subjectID,age,gender,nationality,block_number,trial_number,guess_outcome,delay_time,delay_pos,immediate_amount,RT_guess_start,RT_guess_choice,RT_ITC_start,RT_ITC_choice,RT_ITC_collect,key_guess_start,key_guess_choice,key_ITC_start,key_ITC_choice,key_ITC_collect,blur_guess_start,blur_guess_choice,blur_guess_outcome,blur_ITC_start,blur_ITC_choice,blur_ITC_wait,blur_ITC_collect,blur_ITC_outcome,ITC_chosen_pos,ITC_choice
4,18,female,Belgian,1,1,loss,5,left,14,3107,1055,1330,3530,553,space,j,space,f,k,0,0,0,0,0,0,0,0,left,delay
4,18,female,Belgian,1,2,win,10,right,1,1226,860,1130,1925,437,space,f,space,j,k,0,0,0,0,0,0,0,0,right,delay
4,18,female,Belgian,1,3,win,5,right,14,1398,659,993,855,1960,space,j,space,f,k,0,0,0,0,0,0,0,0,left,immediate
4,18,female,Belgian,1,4,win,5,left,6,1124,1083,1157,1905,460,space,j,space,f,k,0,0,0,0,0,0,0,0,left,delay
4,18,female,Belgian,1,5,win,5,left,16,759,727,1193,2783,1248,space,f,space,j,k,0,0,0,0,0,0,0,0,right,immediate
4,18,female,Belgian,1,6,loss,10,left,7,1411,944,1415,1715,305,space,f,space,f,k,0,0,0,0,0,0,0,0,left,delay
4,18,female,Belgian,1,7,neutral,5,left,5,831,671,1008,1133,389,space,f,space,f,k,0,0,0,0,0,0,0,0,left,delay
4,18,female,Belgian,1,8,neutral,5,left,12,603,597,1326,1656,621,space,f,space,j,k,0,0,0,0,0,0,0,0,right,immediate
4,18,female,Belgian,1,9,loss,10,right,1,620,1183,1055,1145,401,space,j,space,j,k,0,0,0,0,0,0,0,0,right,delay
4,18,female,Belgian,1,10,win,10,right,5,528,1478,957,1368,860,space,f,space,f,k,0,0,0,0,0,0,0,0,left,immediate
4,18,female,Belgian,1,11,loss,5,left,3,596,964,596,904,295,space,j,space,f,k,0,0,0,0,0,0,0,0,left,delay
4,18,female,Belgian,1,12,neutral,5,left,14,434,1474,923,1279,354,space,f,space,j,k,0,0,0,0,0,0,0,0,right,immediate
4,18,female,Belgian,1,13,neutral,5,right,2,572,856,609,1696,323,space,j,space,j,k,0,0,0,0,0,0,0,0,right,delay
4,18,female,Belgian,1,14,neutral,10,left,7,451,530,665,1196,699,space,j,space,j,k,0,0,0,0,0,0,0,0,right,immediate
4,18,female,Belgian,1,15,win,5,right,1,522,1129,629,1287,282,space,f,space,j,k,0,0,0,0,0,0,0,0,right,delay
4,18,female,Belgian,1,16,loss,10,right,5,751,962,639,716,281,space,f,space,j,k,0,0,0,0,0,0,0,0,right,delay
4,18,female,Belgian,1,17,win,5,left,10,683,1059,454,839,611,space,j,space,j,k,0,0,0,0,0,0,0,0,right,immediate
4,18,female,Belgian,1,18,neutral,5,right,4,536,699,430,1421,413,space,f,space,j,k,0,0,0,0,0,0,0,0,right,delay
4,18,female,Belgian,1,19,loss,5,right,4,467,930,414,932,299,space,f,space,j,k,0,0,0,0,0,0,0,0,right,delay
4,18,female,Belgian,1,20,win,5,left,4,419,412,395,944,265,space,j,space,f,k,0,0,0,0,0,0,0,0,left,delay
4,18,female,Belgian,1,21,loss,10,left,6,417,814,463,803,381,space,f,space,j,k,0,0,0,0,0,0,0,0,right,immediate
4,18,female,Belgian,1,22,neutral,10,right,2,444,647,1046,1370,350,space,j,space,f,k,0,0,0,0,0,0,0,0,left,immediate
4,18,female,Belgian,1,23,loss,5,left,13,393,692,745,634,252,space,j,space,f,k,0,0,0,0,0,0,0,0,left,delay
4,18,female,Belgian,1,24,neutral,5,right,7,441,624,480,914,269,space,f,space,j,k,0,0,0,0,0,0,0,0,right,delay
4,18,female,Belgian,1,25,neutral,5,right,15,439,677,568,811,363,space,j,space,j,k,0,0,0,0,0,0,0,0,right,delay
4,18,female,Belgian,1,26,win,10,left,6,381,613,767,755,315,space,f,space,j,k,0,0,0,0,0,0,0,0,right,immediate
4,18,female,Belgian,1,27,neutral,10,left,8,712,602,484,1132,323,space,j,space,j,k,0,0,0,0,0,0,0,0,right,immediate
4,18,female,Belgian,1,28,neutral,5,left,9,573,580,641,896,268,space,j,space,j,k,0,0,0,0,0,0,0,0,right,immediate
4,18,female,Belgian,1,29,win,5,left,3,833,743,1524,1719,279,space,f,space,j,k,0,0,0,0,0,0,0,0,right,immediate
4,18,female,Belgian,1,30,win,10,right,7,1025,776,722,979,322,space,j,space,j,k,0,0,0,0,0,0,0,0,right,delay
4,18,female,Belgian,1,31,neutral,10,right,4,740,666,529,1036,663,space,f,space,f,k,0,0,0,0,0,0,0,0,left,immediate
4,18,female,Belgian,1,32,loss,5,left,10,386,689,532,971,282,space,f,space,f,k,0,0,0,0,0,0,0,0,left,delay
4,18,female,Belgian,1,33,loss,5,right,8,382,479,816,1034,484,space,j,space,j,k,0,0,0,0,0,0,0,0,right,delay
4,18,female,Belgian,1,34,loss,10,right,3,417,1077,472,1193,407,space,j,space,j,k,0,0,0,0,0,0,0,0,right,delay
4,18,female,Belgian,1,35,loss,5,right,15,503,537,608,758,300,space,f,space,j,k,0,0,0,0,0,0,0,0,right,delay
4,18,female,Belgian,1,36,win,10,left,2,379,1076,593,1490,296,space,f,space,j,k,0,0,0,0,0,0,0,0,right,immediate
4,18,female,Belgian,1,37,neutral,5,right,6,491,669,440,958,433,space,j,space,f,k,0,0,0,0,0,0,0,0,left,immediate
4,18,female,Belgian,1,38,win,5,left,8,604,589,566,659,275,space,f,space,j,k,0,0,0,0,0,0,0,0,right,immediate
4,18,female,Belgian,1,39,win,5,right,7,684,490,501,1616,425,space,j,space,j,k,0,0,0,0,0,0,0,0,right,delay
4,18,female,Belgian,1,40,loss,10,right,4,390,598,421,1021,318,space,f,space,f,k,0,0,0,0,0,0,0,0,left,immediate
4,18,female,Belgian,1,41,win,5,left,5,502,797,703,1087,324,space,f,space,j,k,0,0,0,0,0,0,0,0,right,immediate
4,18,female,Belgian,1,42,neutral,10,right,5,575,634,913,1138,260,space,f,space,f,k,0,0,0,0,0,0,0,0,left,immediate
4,18,female,Belgian,1,43,loss,5,right,16,418,556,577,1826,290,space,f,space,f,k,0,0,0,0,0,0,0,0,left,immediate
4,18,female,Belgian,1,44,loss,5,right,11,545,506,493,1911,458,space,j,space,j,k,0,0,0,0,0,0,0,0,right,delay
4,18,female,Belgian,1,45,win,5,right,13,2309,2010,1182,1678,276,space,j,space,f,k,0,0,0,0,0,0,0,0,left,immediate
4,18,female,Belgian,1,46,win,10,left,3,387,551,624,1066,303,space,f,space,j,k,0,0,0,0,0,0,0,0,right,immediate
4,18,female,Belgian,1,47,loss,5,right,9,424,574,524,936,380,space,f,space,j,k,0,0,0,0,0,0,0,0,right,delay
4,18,female,Belgian,1,48,loss,10,right,8,390,820,478,1111,283,space,j,space,f,k,0,0,0,0,0,0,0,0,left,immediate
4,18,female,Belgian,1,49,win,10,left,8,512,412,436,968,280,space,f,space,j,k,0,0,0,0,0,0,0,0,right,immediate
4,18,female,Belgian,1,50,loss,5,right,1,409,460,830,1264,305,space,f,space,j,k,0,0,0,0,0,0,0,0,right,delay
4,18,female,Belgian,1,51,loss,5,right,7,64,0,NA,NA,NA,space,undefined,NA,NA,NA,0,0,NA,NA,NA,NA,NA,NA,NA,NA
4,18,female,Belgian,2,52,neutral,5,left,11,893,702,1246,2478,318,space,j,space,j,k,0,0,0,0,0,0,0,0,right,immediate
4,18,female,Belgian,2,53,loss,5,left,6,448,710,482,1284,282,space,f,space,j,k,0,0,0,0,0,0,0,0,right,immediate
4,18,female,Belgian,2,54,neutral,5,right,3,554,473,401,909,1236,space,j,space,f,k,0,0,0,0,0,0,0,0,left,immediate
4,18,female,Belgian,2,55,neutral,10,right,6,480,657,893,918,638,space,j,space,f,k,0,0,0,0,0,0,0,0,left,immediate
4,18,female,Belgian,2,56,win,5,right,9,402,642,604,675,231,space,f,space,f,k,0,0,0,0,0,0,0,0,left,immediate
4,18,female,Belgian,2,57,win,5,left,2,538,545,518,825,232,space,j,space,j,k,0,0,0,0,0,0,0,0,right,immediate
4,18,female,Belgian,2,58,neutral,5,right,10,491,580,461,966,402,space,j,space,f,k,0,0,0,0,0,0,0,0,left,immediate
4,18,female,Belgian,2,59,neutral,5,left,8,554,533,515,963,297,space,j,space,j,k,0,0,0,0,0,0,0,0,right,immediate
4,18,female,Belgian,2,60,neutral,10,right,3,371,590,363,857,386,space,j,space,j,k,0,0,0,0,0,0,0,0,right,delay
4,18,female,Belgian,2,61,neutral,5,right,16,422,541,639,2595,232,space,j,space,f,k,0,0,0,0,0,0,0,0,left,immediate
4,18,female,Belgian,2,62,loss,5,left,5,409,671,482,715,227,space,f,space,j,k,0,0,0,0,0,0,0,0,right,immediate
4,18,female,Belgian,2,63,loss,5,right,2,484,494,628,1633,870,space,j,space,j,k,0,0,0,0,0,0,0,0,right,delay
4,18,female,Belgian,2,64,win,10,left,4,431,767,485,756,277,space,f,space,j,k,0,0,0,0,0,0,0,0,right,immediate
4,18,female,Belgian,2,65,win,5,right,11,390,386,447,1545,251,space,j,space,f,k,0,0,0,0,0,0,0,0,left,immediate
4,18,female,Belgian,2,66,neutral,5,right,1,454,721,379,993,482,space,f,space,j,k,0,0,0,0,0,0,0,0,right,delay
4,18,female,Belgian,2,67,neutral,5,left,13,666,530,1168,830,240,space,j,space,j,k,0,0,0,0,0,0,0,0,right,immediate
4,18,female,Belgian,2,68,loss,10,right,2,373,896,988,1425,215,space,f,space,f,k,0,0,0,0,0,0,0,0,left,immediate
4,18,female,Belgian,2,69,loss,5,right,12,354,480,564,691,207,space,j,space,f,k,0,0,0,0,0,0,0,0,left,immediate
4,18,female,Belgian,2,70,win,5,right,12,483,1505,435,1051,367,space,f,space,f,k,0,0,0,0,0,0,0,0,left,immediate
4,18,female,Belgian,2,71,win,5,right,15,300,1314,525,711,231,space,j,space,f,k,0,0,0,0,0,0,0,0,left,immediate
4,18,female,Belgian,2,72,neutral,10,left,1,546,531,586,1397,351,space,j,space,f,k,0,0,0,0,0,0,0,0,left,delay
4,18,female,Belgian,2,73,win,10,left,2,654,728,612,2196,1645,space,f,space,f,k,0,0,0,0,0,0,0,0,left,delay
4,18,female,Belgian,2,74,win,10,right,1,1041,1132,730,1931,1240,space,j,space,j,k,0,0,0,0,0,0,0,0,right,delay
4,18,female,Belgian,2,75,win,5,left,1,764,579,629,1913,277,space,f,space,f,k,0,0,0,0,0,0,0,0,left,delay
4,18,female,Belgian,2,76,neutral,10,right,3,529,655,1241,1987,580,space,f,space,j,k,0,0,0,0,0,0,0,0,right,delay
4,18,female,Belgian,2,77,neutral,10,left,5,1203,579,466,545,294,space,f,space,j,k,0,0,0,0,0,0,0,0,right,immediate
4,18,female,Belgian,2,78,loss,10,right,8,349,535,381,1956,3440,space,f,space,j,k,0,0,0,0,0,0,0,0,right,delay
4,18,female,Belgian,2,79,neutral,10,right,8,458,1066,555,1828,2044,space,j,space,j,k,0,0,0,0,0,0,0,0,right,delay
4,18,female,Belgian,2,80,neutral,5,left,16,1173,607,550,724,729,space,j,space,j,k,0,0,0,0,0,0,0,0,right,immediate
4,18,female,Belgian,2,81,loss,10,right,1,540,591,579,805,946,space,f,space,j,k,0,0,0,0,0,0,0,0,right,delay
4,18,female,Belgian,2,82,loss,10,right,6,417,455,361,563,302,space,j,space,f,k,0,0,0,0,0,0,0,0,left,immediate
4,18,female,Belgian,2,83,win,5,left,6,352,489,440,923,317,space,f,space,j,k,0,0,0,0,0,0,0,0,right,immediate
4,18,female,Belgian,2,84,win,5,right,11,301,644,331,724,315,space,j,space,f,k,0,0,0,0,0,0,0,0,left,immediate
4,18,female,Belgian,2,85,win,5,left,9,355,646,95,1741,299,space,f,space,f,k,0,0,0,0,0,0,0,0,left,delay
4,18,female,Belgian,2,86,loss,5,right,2,371,486,383,937,268,space,j,space,j,k,0,0,0,0,0,0,0,0,right,delay
4,18,female,Belgian,2,87,loss,5,right,3,485,490,664,1105,357,space,f,space,j,k,0,0,0,0,0,0,0,0,right,delay
4,18,female,Belgian,2,88,neutral,10,left,2,570,557,563,1286,423,space,j,space,f,k,0,0,0,0,0,0,0,0,left,delay
4,18,female,Belgian,2,89,neutral,5,left,13,499,588,392,653,291,space,f,space,j,k,0,0,0,0,0,0,0,0,right,immediate
4,18,female,Belgian,2,90,neutral,5,right,7,322,591,386,773,328,space,f,space,j,k,0,0,0,0,0,0,0,0,right,delay
4,18,female,Belgian,2,91,loss,5,right,4,167,726,398,727,336,space,f,space,j,k,0,0,0,0,0,0,0,0,right,delay
4,18,female,Belgian,2,92,neutral,5,left,4,414,577,382,814,392,space,f,space,f,k,0,0,0,0,0,0,0,0,left,delay
4,18,female,Belgian,2,93,neutral,5,left,11,347,548,394,917,338,space,f,space,j,k,0,0,0,0,0,0,0,0,right,immediate
4,18,female,Belgian,2,94,loss,5,left,5,403,500,421,879,257,space,f,space,j,k,0,0,0,0,0,0,0,0,right,immediate
4,18,female,Belgian,2,95,win,5,left,15,356,396,71,1478,234,space,j,space,j,k,0,0,0,0,0,0,0,0,right,immediate
4,18,female,Belgian,2,96,loss,5,right,1,731,649,341,656,352,space,f,space,j,k,0,0,0,0,0,0,0,0,right,delay
4,18,female,Belgian,2,97,neutral,5,left,8,383,483,341,1104,246,space,j,space,f,k,0,0,0,0,0,0,0,0,left,delay
4,18,female,Belgian,2,98,loss,5,right,13,403,656,365,558,342,space,f,space,j,k,0,0,0,0,0,0,0,0,right,delay
4,18,female,Belgian,2,99,neutral,10,right,1,580,501,346,1081,266,space,j,space,j,k,0,0,0,0,0,0,0,0,right,delay
4,18,female,Belgian,2,100,win,10,left,7,581,729,365,605,281,space,f,space,j,k,0,0,0,0,0,0,0,0,right,immediate
4,18,female,Belgian,2,101,win,5,left,12,368,551,404,995,306,space,j,space,j,k,0,0,0,0,0,0,0,0,right,immediate
4,18,female,Belgian,2,102,neutral,5,right,3,313,558,357,953,369,space,j,space,j,k,0,0,0,0,0,0,0,0,right,delay
4,18,female,Belgian,2,103,loss,5,right,12,301,465,369,588,438,space,f,space,j,k,0,0,0,0,0,0,0,0,right,delay
4,18,female,Belgian,2,104,loss,5,right,6,392,415,395,714,NA,space,j,space,j,NA,0,0,0,0,0,0,NA,NA,right,delay
4,18,female,Belgian,3,105,win,10,right,4,547,780,2151,1356,295,space,j,space,j,k,0,0,0,0,0,0,0,0,right,delay
4,18,female,Belgian,3,106,loss,10,right,4,364,412,373,646,358,space,f,space,j,k,0,0,0,0,0,0,0,0,right,delay
4,18,female,Belgian,3,107,win,5,right,14,711,645,382,760,389,space,j,space,j,k,0,0,0,0,0,0,0,0,right,delay
4,18,female,Belgian,3,108,loss,5,left,14,502,412,337,661,631,space,f,space,j,k,0,0,0,0,0,0,0,0,right,immediate
4,18,female,Belgian,3,109,win,5,right,3,302,447,608,1437,581,space,j,space,j,k,0,0,0,0,0,0,0,0,right,delay
4,18,female,Belgian,3,110,loss,10,left,3,422,515,403,921,351,space,f,space,f,k,0,0,0,0,0,0,0,0,left,delay
4,18,female,Belgian,3,111,neutral,5,left,12,614,649,467,685,204,space,f,space,j,k,0,0,0,0,0,0,0,0,right,immediate
4,18,female,Belgian,3,112,neutral,5,left,15,336,520,573,561,193,space,j,space,j,k,0,0,0,0,0,0,0,0,right,immediate
4,18,female,Belgian,3,113,loss,5,right,8,317,470,652,596,515,space,f,space,j,k,0,0,0,0,0,0,0,0,right,delay
4,18,female,Belgian,3,114,neutral,10,left,6,319,532,411,1240,341,space,f,space,f,k,0,0,0,0,0,0,0,0,left,delay
4,18,female,Belgian,3,115,neutral,5,left,1,1326,923,827,848,248,space,j,space,f,k,0,0,0,0,0,0,0,0,left,delay
4,18,female,Belgian,3,116,loss,5,left,9,986,711,370,1177,356,space,f,space,f,k,0,0,0,0,0,0,0,0,left,delay
4,18,female,Belgian,3,117,neutral,5,left,14,383,575,487,661,304,space,j,space,j,k,0,0,0,0,0,0,0,0,right,immediate
4,18,female,Belgian,3,118,neutral,5,right,6,311,497,638,632,264,space,f,space,j,k,0,0,0,0,0,0,0,0,right,delay
4,18,female,Belgian,3,119,loss,10,left,7,408,464,515,1989,1158,space,f,space,f,k,0,0,0,0,0,0,0,0,left,delay
4,18,female,Belgian,3,120,loss,5,left,15,515,561,1174,706,201,space,j,space,j,k,0,0,0,0,0,0,0,0,right,immediate
4,18,female,Belgian,3,121,win,10,right,8,364,445,375,1013,302,space,f,space,j,k,0,0,0,0,0,0,0,0,right,delay
4,18,female,Belgian,3,122,loss,10,right,2,434,898,475,1157,953,space,f,space,j,k,0,0,0,0,0,0,0,0,right,delay
4,18,female,Belgian,3,123,win,5,left,7,468,736,542,679,242,space,j,space,j,k,0,0,0,0,0,0,0,0,right,immediate
4,18,female,Belgian,3,124,loss,10,left,5,345,379,446,842,388,space,j,space,f,k,0,0,0,0,0,0,0,0,left,delay
4,18,female,Belgian,3,125,win,5,right,2,849,488,665,1001,742,space,f,space,j,k,0,0,0,0,0,0,0,0,right,delay
4,18,female,Belgian,3,126,win,5,left,16,560,539,441,497,284,space,f,space,j,k,0,0,0,0,0,0,0,0,right,immediate
4,18,female,Belgian,3,127,loss,5,left,10,352,497,603,600,189,space,j,space,j,k,0,0,0,0,0,0,0,0,right,immediate
4,18,female,Belgian,3,128,win,5,right,13,375,506,703,1141,233,space,j,space,f,k,0,0,0,0,0,0,0,0,left,immediate
4,18,female,Belgian,3,129,loss,5,left,11,358,430,556,580,208,space,f,space,j,k,0,0,0,0,0,0,0,0,right,immediate
4,18,female,Belgian,3,130,loss,5,right,16,328,524,351,809,353,space,j,space,f,k,0,0,0,0,0,0,0,0,left,immediate
4,18,female,Belgian,3,131,neutral,5,right,5,303,392,373,1045,296,space,f,space,j,k,0,0,0,0,0,0,0,0,right,delay
4,18,female,Belgian,3,132,win,10,right,3,566,450,705,758,537,space,j,space,j,k,0,0,0,0,0,0,0,0,right,delay
4,18,female,Belgian,3,133,win,5,right,4,566,449,572,1059,271,space,j,space,f,k,0,0,0,0,0,0,0,0,left,immediate
4,18,female,Belgian,3,134,neutral,10,right,4,383,383,396,622,1466,space,j,space,j,k,0,0,0,0,0,0,0,0,right,delay
4,18,female,Belgian,3,135,neutral,5,left,10,532,736,425,974,299,space,j,space,j,k,0,0,0,0,0,0,0,0,right,immediate
4,18,female,Belgian,3,136,neutral,5,left,2,272,1090,396,841,338,space,f,space,f,k,0,0,0,0,0,0,0,0,left,delay
4,18,female,Belgian,3,137,win,10,right,5,307,820,485,1301,255,space,f,space,f,k,0,0,0,0,0,0,0,0,left,immediate
4,18,female,Belgian,3,138,neutral,5,left,9,347,575,901,584,298,space,f,space,j,k,0,0,0,0,0,0,0,0,right,immediate
4,18,female,Belgian,3,139,win,5,left,8,359,414,576,694,248,space,j,space,j,k,0,0,0,0,0,0,0,0,right,immediate
4,18,female,Belgian,3,140,win,10,right,6,341,459,80,1288,388,space,f,space,f,k,0,0,0,0,0,0,0,0,left,immediate
4,18,female,Belgian,3,141,loss,5,left,7,333,326,602,980,514,space,j,space,f,k,0,0,0,0,0,0,0,0,left,delay
4,18,female,Belgian,3,142,win,5,right,10,307,494,433,910,250,space,f,space,f,k,0,0,0,0,0,0,0,0,left,immediate
4,18,female,Belgian,3,143,neutral,10,right,7,336,530,362,728,230,space,f,space,f,k,0,0,0,0,0,0,0,0,left,immediate
4,18,female,Belgian,3,144,win,5,left,5,328,442,649,825,230,space,f,space,j,k,0,0,0,0,0,0,0,0,right,immediate
4,18,female,Belgian,3,145,neutral,10,right,4,334,580,1257,769,938,space,j,space,f,k,0,0,0,0,0,0,0,0,left,immediate
4,18,female,Belgian,3,146,loss,5,right,16,276,440,576,1123,249,space,f,space,f,k,0,0,0,0,0,0,0,0,left,immediate
4,18,female,Belgian,3,147,loss,5,right,9,735,388,472,1156,463,space,j,space,j,k,0,0,0,0,0,0,0,0,right,delay
4,18,female,Belgian,3,148,win,10,right,5,518,465,380,1054,344,space,f,space,f,k,0,0,0,0,0,0,0,0,left,immediate
4,18,female,Belgian,3,149,neutral,5,left,13,305,594,307,600,248,space,j,space,j,k,0,0,0,0,0,0,0,0,right,immediate
4,18,female,Belgian,3,150,win,10,left,8,275,490,885,650,356,space,f,space,f,k,0,0,0,0,0,0,0,0,left,delay
4,18,female,Belgian,3,151,loss,5,right,11,436,646,535,723,431,space,f,space,j,k,0,0,0,0,0,0,0,0,right,delay
4,18,female,Belgian,3,152,loss,5,right,4,311,706,409,1006,282,space,f,space,f,k,0,0,0,0,0,0,0,0,left,immediate
4,18,female,Belgian,3,153,win,5,left,3,369,405,670,999,323,space,j,space,f,k,0,0,0,0,0,0,0,0,left,delay
4,18,female,Belgian,3,154,win,5,left,1,317,401,702,738,889,space,f,space,f,k,0,0,0,0,0,0,0,0,left,delay
4,18,female,Belgian,3,155,win,10,left,7,379,491,552,514,244,space,f,space,j,k,0,0,0,0,0,0,0,0,right,immediate
4,18,female,Belgian,3,156,loss,10,right,3,296,556,509,821,223,space,j,space,f,k,0,0,0,0,0,0,0,0,left,immediate
4,18,female,Belgian,3,157,neutral,10,left,7,291,744,265,797,238,space,j,space,j,k,0,0,0,0,0,0,0,0,right,immediate
4,18,female,Belgian,3,158,loss,5,right,10,258,459,626,851,272,space,f,space,f,k,0,0,0,0,0,0,0,0,left,immediate
4,18,female,Belgian,3,159,neutral,5,left,6,144,651,41,922,228,space,j,space,j,k,0,0,0,0,0,0,0,0,right,immediate
4,18,female,Belgian,3,160,loss,5,left,8,221,493,0,NA,NA,space,f,undefined,NA,NA,0,0,0,0,NA,NA,NA,NA,NA,NA
4,18,female,Belgian,4,161,loss,10,right,2,824,1146,808,1316,922,space,j,space,f,k,0,0,0,0,0,0,0,0,left,immediate
4,18,female,Belgian,4,162,loss,5,left,5,371,390,627,1384,438,space,f,space,f,k,0,0,0,0,0,0,0,0,left,delay
4,18,female,Belgian,4,163,loss,5,right,2,327,339,155,678,364,space,j,space,j,k,0,0,0,0,0,0,0,0,right,delay
4,18,female,Belgian,4,164,loss,10,left,1,327,472,455,1650,1381,space,j,space,f,k,0,0,0,0,0,0,0,0,left,delay
4,18,female,Belgian,4,165,win,5,left,7,1246,453,561,1411,192,space,j,space,j,k,0,0,0,0,0,0,0,0,right,immediate
4,18,female,Belgian,4,166,neutral,5,left,1,436,842,542,964,454,space,f,space,f,k,0,0,0,0,0,0,0,0,left,delay
4,18,female,Belgian,4,167,neutral,5,right,10,380,568,388,776,187,space,f,space,f,k,0,0,0,0,0,0,0,0,left,immediate
4,18,female,Belgian,4,168,win,5,left,5,346,405,367,752,204,space,j,space,j,k,0,0,0,0,0,0,0,0,right,immediate
4,18,female,Belgian,4,169,win,5,right,4,368,451,568,749,279,space,f,space,f,k,0,0,0,0,0,0,0,0,left,immediate
4,18,female,Belgian,4,170,loss,5,right,1,306,499,375,849,274,space,f,space,f,k,0,0,0,0,0,0,0,0,left,immediate
4,18,female,Belgian,4,171,loss,5,right,7,484,432,563,712,199,space,j,space,f,k,0,0,0,0,0,0,0,0,left,immediate
4,18,female,Belgian,4,172,neutral,10,left,3,391,481,359,1239,327,space,j,space,f,k,0,0,0,0,0,0,0,0,left,delay
4,18,female,Belgian,4,173,win,10,left,4,506,414,335,743,342,space,j,space,f,k,0,0,0,0,0,0,0,0,left,delay
4,18,female,Belgian,4,174,loss,5,right,14,322,457,424,707,249,space,f,space,f,k,0,0,0,0,0,0,0,0,left,immediate
4,18,female,Belgian,4,175,neutral,10,left,8,488,368,406,803,385,space,j,space,f,k,0,0,0,0,0,0,0,0,left,delay
4,18,female,Belgian,4,176,win,5,left,11,319,522,352,647,236,space,f,space,j,k,0,0,0,0,0,0,0,0,right,immediate
4,18,female,Belgian,4,177,neutral,5,right,12,351,498,384,772,244,space,f,space,f,k,0,0,0,0,0,0,0,0,left,immediate
4,18,female,Belgian,4,178,win,5,left,8,351,451,552,923,232,space,j,space,j,k,0,0,0,0,0,0,0,0,right,immediate
4,18,female,Belgian,4,179,neutral,5,left,7,563,567,428,494,197,space,j,space,j,k,0,0,0,0,0,0,0,0,right,immediate
4,18,female,Belgian,4,180,win,5,left,15,548,475,342,684,219,space,f,space,j,k,0,0,0,0,0,0,0,0,right,immediate
4,18,female,Belgian,4,181,win,10,right,6,362,473,9,1020,203,space,j,space,f,k,0,0,0,0,0,0,0,0,left,immediate
4,18,female,Belgian,4,182,loss,10,right,4,309,458,614,807,210,space,j,space,f,k,0,0,0,0,0,0,0,0,left,immediate
4,18,female,Belgian,4,183,loss,5,right,12,359,421,376,630,3264,space,f,space,j,k,0,0,0,0,0,0,0,0,right,delay
4,18,female,Belgian,4,184,neutral,10,right,5,566,640,500,802,202,space,f,space,f,k,0,0,0,0,0,0,0,0,left,immediate
4,18,female,Belgian,4,185,win,5,right,6,397,524,426,678,226,space,f,space,f,k,0,0,0,0,0,0,0,0,left,immediate
4,18,female,Belgian,4,186,loss,10,right,5,468,534,510,836,285,space,j,space,f,k,0,0,0,0,0,0,0,0,left,immediate
4,18,female,Belgian,4,187,neutral,5,left,3,419,361,393,756,315,space,f,space,f,k,0,0,0,0,0,0,0,0,left,delay
4,18,female,Belgian,4,188,win,5,left,9,400,389,307,724,287,space,j,space,f,k,0,0,0,0,0,0,0,0,left,delay
4,18,female,Belgian,4,189,loss,10,right,8,349,467,327,776,217,space,f,space,f,k,0,0,0,0,0,0,0,0,left,immediate
4,18,female,Belgian,4,190,win,5,left,2,304,522,839,765,309,space,j,space,f,k,0,0,0,0,0,0,0,0,left,delay
4,18,female,Belgian,4,191,loss,10,right,7,356,530,373,1003,175,space,f,space,f,k,0,0,0,0,0,0,0,0,left,immediate
4,18,female,Belgian,4,192,loss,10,left,6,376,412,395,654,1116,space,j,space,f,k,0,0,0,0,0,0,0,0,left,delay
4,18,female,Belgian,4,193,neutral,10,right,1,577,633,386,797,399,space,f,space,j,k,0,0,0,0,0,0,0,0,right,delay
4,18,female,Belgian,4,194,loss,5,left,6,586,502,643,875,252,space,f,space,j,k,0,0,0,0,0,0,0,0,right,immediate
4,18,female,Belgian,4,195,neutral,10,right,6,288,525,378,649,246,space,f,space,f,k,0,0,0,0,0,0,0,0,left,immediate
4,18,female,Belgian,4,196,win,10,right,2,307,439,349,656,699,space,j,space,f,k,0,0,0,0,0,0,0,0,left,immediate
4,18,female,Belgian,4,197,win,5,left,10,383,478,91,745,185,space,f,space,j,k,0,0,0,0,0,0,0,0,right,immediate
4,18,female,Belgian,4,198,neutral,5,left,11,475,510,245,522,170,space,f,space,j,k,0,0,0,0,0,0,0,0,right,immediate
4,18,female,Belgian,4,199,neutral,5,right,5,644,494,328,748,203,space,j,space,f,k,0,0,0,0,0,0,0,0,left,immediate
4,18,female,Belgian,4,200,neutral,5,left,9,541,490,376,574,194,space,f,space,j,k,0,0,0,0,0,0,0,0,right,immediate
4,18,female,Belgian,4,201,loss,5,right,3,252,564,598,867,327,space,f,space,j,k,0,0,0,0,0,0,0,0,right,delay
4,18,female,Belgian,4,202,loss,5,left,13,376,799,389,508,193,space,f,space,j,k,0,0,0,0,0,0,0,0,right,immediate
4,18,female,Belgian,4,203,win,5,left,16,346,421,541,573,168,space,j,space,j,k,0,0,0,0,0,0,0,0,right,immediate
4,18,female,Belgian,4,204,neutral,10,left,2,320,473,369,684,561,space,f,space,f,k,0,0,0,0,0,0,0,0,left,delay
4,18,female,Belgian,4,205,loss,5,left,15,469,501,505,443,165,space,f,space,j,k,0,0,0,0,0,0,0,0,right,immediate
4,18,female,Belgian,4,206,neutral,5,left,4,533,510,366,663,312,space,f,space,f,k,0,0,0,0,0,0,0,0,left,delay
4,18,female,Belgian,4,207,win,5,left,13,357,483,594,528,181,space,j,space,j,k,0,0,0,0,0,0,0,0,right,immediate
4,18,female,Belgian,4,208,win,10,right,1,317,461,551,755,290,space,f,space,f,k,0,0,0,0,0,0,0,0,left,immediate
4,18,female,Belgian,4,209,win,5,right,14,381,569,502,802,198,space,f,space,f,k,0,0,0,0,0,0,0,0,left,immediate
4,18,female,Belgian,4,210,neutral,5,right,16,299,738,415,590,1052,space,f,space,f,k,0,0,0,0,0,0,0,0,left,immediate
4,18,female,Belgian,4,211,neutral,5,right,8,512,445,489,1201,198,space,j,space,f,k,0,0,0,0,0,0,0,0,left,immediate
4,18,female,Belgian,4,212,neutral,5,left,15,271,458,369,905,218,space,j,space,j,k,0,0,0,0,0,0,0,0,right,immediate
4,18,female,Belgian,4,213,neutral,5,left,2,246,517,419,1027,305,space,j,space,f,k,0,0,0,0,0,0,0,0,left,delay
4,18,female,Belgian,4,214,win,10,right,3,315,480,377,881,617,space,f,space,j,k,0,0,0,0,0,0,0,0,right,delay
4,18,female,Belgian,4,215,neutral,5,left,14,426,469,541,721,220,space,j,space,j,k,0,0,0,0,0,0,0,0,right,immediate
4,18,female,Belgian,4,216,win,5,right,12,304,509,387,742,234,space,f,space,f,k,0,0,0,0,0,0,0,0,left,immediate
4,18,female,Belgian,4,217,loss,5,left,13,322,487,501,529,192,space,j,space,j,k,0,0,0,0,0,0,0,0,right,immediate
4,18,female,Belgian,4,218,win,5,left,3,296,435,647,853,423,space,f,space,f,k,0,0,0,0,0,0,0,0,left,delay
4,18,female,Belgian,4,219,win,5,left,12,260,469,380,523,216,space,f,space,j,k,0,0,0,0,0,0,0,0,right,immediate
4,18,female,Belgian,4,220,win,5,left,9,472,460,375,883,225,space,j,space,j,k,0,0,0,0,0,0,0,0,right,immediate
4,18,female,Belgian,4,221,loss,5,right,12,254,434,681,775,221,space,f,space,f,k,0,0,0,0,0,0,0,0,left,immediate
4,18,female,Belgian,4,222,loss,5,left,7,344,456,427,602,372,space,f,space,f,k,0,0,0,0,0,0,0,0,left,delay
4,18,female,Belgian,4,223,loss,10,right,1,471,375,508,712,348,space,j,space,j,k,0,0,0,0,0,0,0,0,right,delay
4,18,female,Belgian,4,224,win,10,left,8,423,431,614,576,265,space,f,space,j,k,0,0,0,0,0,0,0,0,right,immediate
4,18,female,Belgian,4,225,win,5,left,1,274,394,0,NA,NA,space,j,undefined,NA,NA,0,0,0,0,NA,NA,NA,NA,NA,NA
4,18,female,Belgian,5,226,neutral,5,left,4,1122,926,234,988,203,space,f,space,j,k,0,0,0,0,0,0,0,0,right,immediate
4,18,female,Belgian,5,227,neutral,5,left,7,492,1204,449,965,133,space,f,space,j,k,0,0,0,0,0,0,0,0,right,immediate
4,18,female,Belgian,5,228,win,10,left,5,356,576,974,674,165,space,j,space,j,k,0,0,0,0,0,0,0,0,right,immediate
4,18,female,Belgian,5,229,neutral,5,left,3,350,332,354,698,291,space,f,space,f,k,0,0,0,0,0,0,0,0,left,delay
4,18,female,Belgian,5,230,win,5,left,14,283,408,364,563,159,space,j,space,j,k,0,0,0,0,0,0,0,0,right,immediate
4,18,female,Belgian,5,231,win,10,right,4,300,523,1194,708,256,space,f,space,f,k,0,0,0,0,0,0,0,0,left,immediate
4,18,female,Belgian,5,232,neutral,10,right,3,258,340,302,575,385,space,j,space,j,k,0,0,0,0,0,0,0,0,right,delay
4,18,female,Belgian,5,233,win,5,left,8,497,493,564,566,754,space,f,space,j,k,0,0,0,0,0,0,0,0,right,immediate
4,18,female,Belgian,5,234,loss,10,left,6,333,545,408,581,164,space,j,space,j,k,0,0,0,0,0,0,0,0,right,immediate
4,18,female,Belgian,5,235,loss,5,right,8,446,365,294,811,404,space,f,space,j,k,0,0,0,0,0,0,0,0,right,delay
4,18,female,Belgian,5,236,neutral,10,left,1,332,455,524,715,1435,space,f,space,f,k,0,0,0,0,0,0,0,0,left,delay
4,18,female,Belgian,5,237,neutral,5,right,5,543,1209,343,921,320,space,f,space,f,k,0,0,0,0,0,0,0,0,left,immediate
4,18,female,Belgian,5,238,win,10,left,3,390,473,525,819,398,space,j,space,f,k,0,0,0,0,0,0,0,0,left,delay
4,18,female,Belgian,5,239,loss,5,right,3,354,431,658,1374,465,space,j,space,j,k,0,0,0,0,0,0,0,0,right,delay
4,18,female,Belgian,5,240,loss,5,right,4,296,478,434,860,294,space,f,space,j,k,0,0,0,0,0,0,0,0,right,delay
4,18,female,Belgian,5,241,loss,10,left,8,309,622,591,878,879,space,f,space,f,k,0,0,0,0,0,0,0,0,left,delay
4,18,female,Belgian,5,242,loss,5,right,2,601,497,457,712,330,space,j,space,j,k,0,0,0,0,0,0,0,0,right,delay
4,18,female,Belgian,5,243,loss,10,left,7,283,362,931,734,311,space,f,space,f,k,0,0,0,0,0,0,0,0,left,delay
4,18,female,Belgian,5,244,win,5,right,2,300,379,361,956,181,space,j,space,f,k,0,0,0,0,0,0,0,0,left,immediate
4,18,female,Belgian,5,245,neutral,5,right,13,308,600,337,594,158,space,j,space,f,k,0,0,0,0,0,0,0,0,left,immediate
4,18,female,Belgian,5,246,loss,5,left,5,308,409,346,585,130,space,f,space,j,k,0,0,0,0,0,0,0,0,right,immediate
4,18,female,Belgian,5,247,win,5,right,11,302,446,357,706,132,space,j,space,f,k,0,0,0,0,0,0,0,0,left,immediate
4,18,female,Belgian,5,248,loss,10,left,4,372,357,375,985,802,space,f,space,f,k,0,0,0,0,0,0,0,0,left,delay
4,18,female,Belgian,5,249,neutral,5,right,11,389,1248,490,761,230,space,f,space,f,k,0,0,0,0,0,0,0,0,left,immediate
4,18,female,Belgian,5,250,win,10,right,7,365,366,457,538,170,space,f,space,f,k,0,0,0,0,0,0,0,0,left,immediate
4,18,female,Belgian,5,251,neutral,5,right,14,333,365,370,601,171,space,j,space,f,k,0,0,0,0,0,0,0,0,left,immediate
4,18,female,Belgian,5,252,loss,5,right,16,425,490,281,603,132,space,f,space,f,k,0,0,0,0,0,0,0,0,left,immediate
4,18,female,Belgian,5,253,loss,5,right,15,1175,378,370,532,711,space,j,space,f,k,0,0,0,0,0,0,0,0,left,immediate
4,18,female,Belgian,5,254,loss,5,left,10,303,423,385,682,167,space,f,space,j,k,0,0,0,0,0,0,0,0,right,immediate
4,18,female,Belgian,5,255,win,5,left,7,540,332,163,751,145,space,f,space,j,k,0,0,0,0,0,0,0,0,right,immediate
4,18,female,Belgian,5,256,loss,10,left,3,345,603,379,624,2265,space,f,space,f,k,0,0,0,0,0,0,0,0,left,delay
4,18,female,Belgian,5,257,loss,5,left,14,764,517,832,619,182,space,f,space,j,k,0,0,0,0,0,0,0,0,right,immediate
4,18,female,Belgian,5,258,neutral,5,right,1,403,447,372,960,401,space,j,space,j,k,0,0,0,0,0,0,0,0,right,delay
4,18,female,Belgian,5,259,neutral,10,left,7,302,478,556,677,151,space,j,space,j,k,0,0,0,0,0,0,0,0,right,immediate
4,18,female,Belgian,5,260,win,5,left,16,279,459,421,482,134,space,f,space,j,k,0,0,0,0,0,0,0,0,right,immediate
4,18,female,Belgian,5,261,neutral,5,right,6,269,442,400,572,129,space,j,space,f,k,0,0,0,0,0,0,0,0,left,immediate
4,18,female,Belgian,5,262,neutral,10,left,8,347,498,443,769,134,space,j,space,j,k,0,0,0,0,0,0,0,0,right,immediate
4,18,female,Belgian,5,263,win,10,left,1,287,619,527,670,336,space,f,space,f,k,0,0,0,0,0,0,0,0,left,delay
4,18,female,Belgian,5,264,neutral,5,left,8,373,514,456,527,140,space,f,space,j,k,0,0,0,0,0,0,0,0,right,immediate
4,18,female,Belgian,5,265,loss,5,left,11,336,548,445,531,161,space,j,space,j,k,0,0,0,0,0,0,0,0,right,immediate
4,18,female,Belgian,5,266,win,5,left,13,311,537,1015,572,125,space,j,space,j,k,0,0,0,0,0,0,0,0,right,immediate
4,18,female,Belgian,5,267,neutral,5,right,15,416,576,437,923,166,space,f,space,f,k,0,0,0,0,0,0,0,0,left,immediate
4,18,female,Belgian,5,268,neutral,5,left,12,332,520,434,545,100,space,f,space,j,k,0,0,0,0,0,0,0,0,right,immediate
4,18,female,Belgian,5,269,win,5,right,6,259,540,469,1209,97,space,j,space,f,k,0,0,0,0,0,0,0,0,left,immediate
4,18,female,Belgian,5,270,neutral,5,left,9,249,519,172,600,137,space,j,space,j,k,0,0,0,0,0,0,0,0,right,immediate
4,18,female,Belgian,5,271,neutral,10,left,5,247,432,296,522,128,space,f,space,j,k,0,0,0,0,0,0,0,0,right,immediate
4,18,female,Belgian,5,272,loss,5,right,6,167,507,602,592,886,space,j,space,f,k,0,0,0,0,0,0,0,0,left,immediate
4,18,female,Belgian,5,273,win,10,right,2,237,454,352,893,115,space,f,space,f,k,0,0,0,0,0,0,0,0,left,immediate
4,18,female,Belgian,5,274,win,5,left,15,347,571,57,771,136,space,j,space,j,k,0,0,0,0,0,0,0,0,right,immediate
4,18,female,Belgian,5,275,win,10,right,6,374,581,958,651,97,space,f,space,f,k,0,0,0,0,0,0,0,0,left,immediate
4,18,female,Belgian,5,276,loss,10,right,5,285,571,381,620,129,space,j,space,f,k,0,0,0,0,0,0,0,0,left,immediate
4,18,female,Belgian,5,277,neutral,10,left,4,296,541,390,597,131,space,j,space,j,k,0,0,0,0,0,0,0,0,right,immediate
4,18,female,Belgian,5,278,loss,5,left,1,297,459,563,660,1018,space,f,space,f,k,0,0,0,0,0,0,0,0,left,delay
4,18,female,Belgian,5,279,win,5,right,10,429,632,343,788,137,space,f,space,f,k,0,0,0,0,0,0,0,0,left,immediate
4,18,female,Belgian,5,280,neutral,10,right,6,300,537,349,543,134,space,f,space,f,k,0,0,0,0,0,0,0,0,left,immediate
4,18,female,Belgian,5,281,win,5,left,5,281,492,509,639,137,space,j,space,j,k,0,0,0,0,0,0,0,0,right,immediate
4,18,female,Belgian,5,282,loss,10,right,2,325,650,540,907,874,space,f,space,j,k,0,0,0,0,0,0,0,0,right,delay
4,18,female,Belgian,5,283,loss,5,left,9,424,676,556,554,170,space,f,space,j,k,0,0,0,0,0,0,0,0,right,immediate
4,18,female,Belgian,5,284,neutral,5,left,10,281,560,109,596,140,space,f,space,j,k,0,0,0,0,0,0,0,0,right,immediate
4,18,female,Belgian,5,285,neutral,10,left,2,270,461,322,614,125,space,j,space,j,k,0,0,0,0,0,0,0,0,right,immediate
4,18,female,Belgian,5,286,neutral,5,left,16,381,479,499,434,103,space,j,space,j,k,0,0,0,0,0,0,0,0,right,immediate
4,18,female,Belgian,5,287,win,5,left,4,217,573,328,594,110,space,f,space,j,k,0,0,0,0,0,0,0,0,right,immediate
4,18,female,Belgian,5,288,neutral,5,left,2,273,385,268,424,64,space,j,space,j,k,0,0,0,0,0,0,0,0,right,immediate
4,18,female,Belgian,5,289,loss,5,left,2,232,430,337,542,131,space,f,space,j,k,0,0,0,0,0,0,0,0,right,immediate
4,18,female,Belgian,5,290,win,10,right,7,290,536,382,498,354,space,j,space,j,k,0,0,0,0,0,0,0,0,right,delay
4,18,female,Belgian,5,291,win,5,right,5,419,514,288,767,108,space,f,space,f,k,0,0,0,0,0,0,0,0,left,immediate
4,18,female,Belgian,5,292,win,5,left,9,297,402,122,623,139,space,j,space,j,k,0,0,0,0,0,0,0,0,right,immediate
4,18,female,Belgian,5,293,neutral,5,right,1,286,437,297,1412,314,space,j,space,j,k,0,0,0,0,0,0,0,0,right,delay
4,18,female,Belgian,5,294,neutral,5,left,12,293,494,270,666,132,space,f,space,j,k,0,0,0,0,0,0,0,0,right,immediate
4,18,female,Belgian,6,295,neutral,5,left,3,1090,470,468,573,170,space,j,space,j,k,0,0,0,0,0,0,0,0,right,immediate
4,18,female,Belgian,6,296,loss,5,left,5,312,444,64,597,108,space,f,space,j,k,0,0,0,0,0,0,0,0,right,immediate
4,18,female,Belgian,6,297,loss,10,right,6,331,440,139,742,98,space,j,space,f,k,0,0,0,0,0,0,0,0,left,immediate
4,18,female,Belgian,6,298,loss,5,right,3,473,358,394,539,144,space,f,space,f,k,0,0,0,0,0,0,0,0,left,immediate
4,18,female,Belgian,6,299,win,10,right,2,461,326,349,525,161,space,j,space,f,k,0,0,0,0,0,0,0,0,left,immediate
4,18,female,Belgian,6,300,neutral,10,right,6,462,551,365,591,193,space,j,space,f,k,0,0,0,0,0,0,0,0,left,immediate
4,18,female,Belgian,6,301,win,5,right,3,300,383,746,637,240,space,f,space,f,k,0,0,0,0,0,0,0,0,left,immediate
4,18,female,Belgian,6,302,neutral,10,right,1,390,873,139,888,148,space,j,space,f,k,0,0,0,0,0,0,0,0,left,immediate
4,18,female,Belgian,6,303,neutral,5,left,11,288,470,472,520,181,space,j,space,j,k,0,0,0,0,0,0,0,0,right,immediate
4,18,female,Belgian,6,304,win,10,left,3,105,527,417,447,134,space,f,space,j,k,0,0,0,0,0,0,0,0,right,immediate
4,18,female,Belgian,6,305,loss,5,left,15,278,514,739,466,132,space,f,space,j,k,0,0,0,0,0,0,0,0,right,immediate
4,18,female,Belgian,6,306,neutral,5,right,10,147,532,525,736,131,space,f,space,f,k,0,0,0,0,0,0,0,0,left,immediate
4,18,female,Belgian,6,307,win,10,left,1,201,666,59,971,2127,space,j,space,f,k,0,0,0,0,0,0,0,0,left,delay
4,18,female,Belgian,6,308,loss,10,left,8,1013,606,592,657,138,space,f,space,j,k,0,0,0,0,0,0,0,0,right,immediate
4,18,female,Belgian,6,309,loss,10,right,1,282,383,726,646,1060,space,j,space,j,k,0,0,0,0,0,0,0,0,right,delay
4,18,female,Belgian,6,310,win,10,right,5,292,930,339,1329,189,space,f,space,f,k,0,0,0,0,0,0,0,0,left,immediate
4,18,female,Belgian,6,311,neutral,5,left,13,215,458,506,566,105,space,f,space,j,k,0,0,0,0,0,0,0,0,right,immediate
4,18,female,Belgian,6,312,win,5,left,13,250,439,275,464,94,space,f,space,j,k,0,0,0,0,0,0,0,0,right,immediate
4,18,female,Belgian,6,313,neutral,5,left,15,361,557,391,435,100,space,j,space,j,k,0,0,0,0,0,0,0,0,right,immediate
4,18,female,Belgian,6,314,win,10,right,8,296,448,500,497,266,space,f,space,j,k,0,0,0,0,0,0,0,0,right,delay
4,18,female,Belgian,6,315,neutral,10,right,8,333,485,387,723,430,space,f,space,f,k,0,0,0,0,0,0,0,0,left,immediate
4,18,female,Belgian,6,316,loss,5,right,4,286,514,370,740,122,space,f,space,f,k,0,0,0,0,0,0,0,0,left,immediate
4,18,female,Belgian,6,317,loss,5,right,13,304,337,424,604,146,space,j,space,f,k,0,0,0,0,0,0,0,0,left,immediate
4,18,female,Belgian,6,318,loss,10,left,2,241,363,41,838,167,space,f,space,j,k,0,0,0,0,0,0,0,0,right,immediate
4,18,female,Belgian,6,319,loss,5,left,11,399,342,372,432,102,space,f,space,j,k,0,0,0,0,0,0,0,0,right,immediate
4,18,female,Belgian,6,320,loss,5,right,7,932,353,481,1005,467,space,j,space,f,k,0,0,0,0,0,0,0,0,left,immediate
4,18,female,Belgian,6,321,win,5,right,16,715,256,431,568,106,space,j,space,f,k,0,0,0,0,0,0,0,0,left,immediate
4,18,female,Belgian,6,322,loss,5,left,16,440,338,346,534,102,space,j,space,j,k,0,0,0,0,0,0,0,0,right,immediate
4,18,female,Belgian,6,323,neutral,5,right,9,358,273,373,645,164,space,j,space,f,k,0,0,0,0,0,0,0,0,left,immediate
4,18,female,Belgian,6,324,neutral,5,right,16,233,383,455,518,552,space,j,space,f,k,0,0,0,0,0,0,0,0,left,immediate
4,18,female,Belgian,6,325,loss,10,left,3,253,454,508,518,80,space,f,space,j,k,0,0,0,0,0,0,0,0,right,immediate
4,18,female,Belgian,6,326,loss,5,left,10,427,514,35,71,951,space,f,space,j,k,0,0,0,0,0,0,0,0,right,immediate
4,18,female,Belgian,6,327,neutral,5,left,14,520,563,437,561,111,space,f,space,j,k,0,0,0,0,0,0,0,0,right,immediate
4,18,female,Belgian,6,328,loss,5,left,6,354,776,505,496,31,space,f,space,j,k,0,0,0,0,0,0,0,0,right,immediate
4,18,female,Belgian,6,329,neutral,10,left,4,384,549,491,488,25,space,f,space,j,k,0,0,0,0,0,0,0,0,right,immediate
4,18,female,Belgian,6,330,win,5,left,14,367,477,521,418,98,space,j,space,j,k,0,0,0,0,0,0,0,0,right,immediate
4,18,female,Belgian,6,331,loss,5,right,9,393,441,56,824,135,space,j,space,f,k,0,0,0,0,0,0,0,0,left,immediate
4,18,female,Belgian,6,332,neutral,10,right,3,507,585,327,718,371,space,f,space,f,k,0,0,0,0,0,0,0,0,left,immediate
4,18,female,Belgian,6,333,win,5,right,15,264,681,344,574,63,space,f,space,f,k,0,0,0,0,0,0,0,0,left,immediate
4,18,female,Belgian,6,334,neutral,5,right,7,452,482,440,624,57,space,j,space,f,k,0,0,0,0,0,0,0,0,left,immediate
4,18,female,Belgian,6,335,neutral,5,left,5,349,506,412,767,101,space,j,space,j,k,0,0,0,0,0,0,0,0,right,immediate
4,18,female,Belgian,6,336,neutral,5,left,8,364,523,374,634,97,space,f,space,j,k,0,0,0,0,0,0,0,0,right,immediate
4,18,female,Belgian,6,337,win,5,left,12,38,579,446,510,93,space,f,space,j,k,0,0,0,0,0,0,0,0,right,immediate
4,18,female,Belgian,6,338,win,5,left,1,329,512,519,865,369,space,j,space,f,k,0,0,0,0,0,0,0,0,left,delay
4,18,female,Belgian,6,339,win,5,left,8,356,511,418,559,20,space,j,space,j,k,0,0,0,0,0,0,0,0,right,immediate
4,18,female,Belgian,6,340,win,5,left,11,331,653,378,487,26,space,f,space,j,k,0,0,0,0,0,0,0,0,right,immediate
4,18,female,Belgian,6,341,loss,10,right,5,220,416,45,848,189,space,j,space,f,k,0,0,0,0,0,0,0,0,left,immediate
4,18,female,Belgian,6,342,win,5,left,4,228,420,452,589,27,space,j,space,j,k,0,0,0,0,0,0,0,0,right,immediate
4,18,female,Belgian,6,343,win,5,left,2,303,364,509,580,75,space,f,space,j,k,0,0,0,0,0,0,0,0,right,immediate
4,18,female,Belgian,6,344,loss,5,left,12,245,453,527,518,118,space,j,space,j,k,0,0,0,0,0,0,0,0,right,immediate
4,18,female,Belgian,6,345,loss,5,right,14,311,351,415,759,146,space,f,space,f,k,0,0,0,0,0,0,0,0,left,immediate
4,18,female,Belgian,6,346,win,10,left,4,353,373,528,624,137,space,j,space,j,k,0,0,0,0,0,0,0,0,right,immediate
4,18,female,Belgian,6,347,neutral,5,right,4,353,525,391,842,103,space,j,space,f,k,0,0,0,0,0,0,0,0,left,immediate
4,18,female,Belgian,6,348,win,5,right,6,276,706,372,693,95,space,f,space,f,k,0,0,0,0,0,0,0,0,left,immediate
4,18,female,Belgian,6,349,loss,10,left,7,316,525,388,530,105,space,j,space,j,k,0,0,0,0,0,0,0,0,right,immediate
4,18,female,Belgian,6,350,loss,5,right,8,433,523,616,610,102,space,f,space,f,k,0,0,0,0,0,0,0,0,left,immediate
4,18,female,Belgian,6,351,neutral,10,right,2,663,321,113,792,715,space,f,space,f,k,0,0,0,0,0,0,0,0,left,immediate
4,18,female,Belgian,6,352,neutral,10,left,7,404,540,108,761,104,space,f,space,j,k,0,0,0,0,0,0,0,0,right,immediate
4,18,female,Belgian,6,353,neutral,10,left,5,280,527,366,600,68,space,f,space,j,k,0,0,0,0,0,0,0,0,right,immediate
4,18,female,Belgian,6,354,neutral,5,left,6,118,517,384,509,29,space,f,space,j,k,0,0,0,0,0,0,0,0,right,immediate
4,18,female,Belgian,6,355,loss,5,right,1,378,1036,452,872,606,space,j,space,f,k,0,0,0,0,0,0,0,0,left,immediate
4,18,female,Belgian,6,356,win,5,left,10,350,592,591,520,132,space,f,space,j,k,0,0,0,0,0,0,0,0,right,immediate
4,18,female,Belgian,6,357,loss,10,right,4,159,554,502,658,104,space,f,space,f,k,0,0,0,0,0,0,0,0,left,immediate
4,18,female,Belgian,6,358,win,10,left,6,366,431,386,535,123,space,j,space,j,k,0,0,0,0,0,0,0,0,right,immediate
4,18,female,Belgian,6,359,win,5,left,7,333,615,972,472,96,space,f,space,j,k,0,0,0,0,0,0,0,0,right,immediate
4,18,female,Belgian,6,360,neutral,5,right,2,251,676,347,848,611,space,j,space,f,k,0,0,0,0,0,0,0,0,left,immediate
4,18,female,Belgian,6,361,neutral,5,right,10,279,461,6,645,95,space,j,space,f,k,0,0,0,0,0,0,0,0,left,immediate
4,18,female,Belgian,6,362,neutral,10,right,8,305,1150,37,1142,103,space,j,space,f,k,0,0,0,0,0,0,0,0,left,immediate
4,18,female,Belgian,6,363,win,5,right,12,274,592,142,604,510,space,f,space,f,k,0,0,0,0,0,0,0,0,left,immediate
4,18,female,Belgian,6,364,win,5,left,5,319,574,447,619,128,space,f,space,j,k,0,0,0,0,0,0,0,0,right,immediate
4,18,female,Belgian,6,365,neutral,5,right,16,302,532,410,769,128,space,j,space,f,k,0,0,0,0,0,0,0,0,left,immediate
4,18,female,Belgian,6,366,loss,5,left,16,291,430,131,545,135,space,f,space,j,k,0,0,0,0,0,0,0,0,right,immediate
4,18,female,Belgian,6,367,loss,5,right,3,597,511,569,1079,100,space,j,space,f,k,0,0,0,0,0,0,0,0,left,immediate
4,18,female,Belgian,6,368,loss,5,left,15,298,424,373,525,87,space,j,space,j,k,0,0,0,0,0,0,0,0,right,immediate
4,18,female,Belgian,6,369,loss,10,right,1,371,523,369,814,60,space,j,space,f,k,0,0,0,0,0,0,0,0,left,immediate
4,18,female,Belgian,6,370,win,5,right,13,432,692,576,719,64,space,j,space,f,k,0,0,0,0,0,0,0,0,left,immediate
4,18,female,Belgian,6,371,neutral,5,right,15,378,642,436,605,59,space,f,space,f,k,0,0,0,0,0,0,0,0,left,immediate
4,18,female,Belgian,6,372,neutral,5,right,12,289,596,446,494,56,space,j,space,f,k,0,0,0,0,0,0,0,0,left,immediate
4,18,female,Belgian,6,373,neutral,5,right,2,300,493,543,659,64,space,j,space,f,k,0,0,0,0,0,0,0,0,left,immediate
4,18,female,Belgian,6,374,win,10,right,6,374,539,391,584,486,space,f,space,f,k,0,0,0,0,0,0,0,0,left,immediate
4,18,female,Belgian,6,375,loss,5,right,1,210,589,122,660,67,space,f,space,f,k,0,0,0,0,0,0,0,0,left,immediate
4,18,female,Belgian,6,376,win,5,right,1,399,480,483,607,68,space,j,space,f,k,0,0,0,0,0,0,0,0,left,immediate
4,18,female,Belgian,6,377,win,5,right,7,431,383,343,565,103,space,j,space,f,k,0,0,0,0,0,0,0,0,left,immediate
4,18,female,Belgian,6,378,neutral,10,left,6,325,319,13,1446,98,space,f,space,j,k,0,0,0,0,0,0,0,0,right,immediate
4,18,female,Belgian,6,379,loss,5,right,12,470,584,498,667,58,space,j,space,f,k,0,0,0,0,0,0,0,0,left,immediate
4,18,female,Belgian,6,380,win,5,left,2,328,512,471,981,101,space,f,space,j,k,0,0,0,0,0,0,0,0,right,immediate
4,18,female,Belgian,6,381,win,5,right,9,213,589,380,833,61,space,j,space,f,k,0,0,0,0,0,0,0,0,left,immediate
4,18,female,Belgian,6,382,neutral,10,right,7,270,587,447,531,67,space,f,space,f,k,0,0,0,0,0,0,0,0,left,immediate
4,18,female,Belgian,6,383,win,10,left,3,267,515,381,552,136,space,j,space,j,k,0,0,0,0,0,0,0,0,right,immediate
4,18,female,Belgian,6,384,win,10,left,8,220,780,336,537,72,space,f,space,j,k,0,0,0,0,0,0,0,0,right,immediate
4,18,female,Belgian,6,385,neutral,5,right,14,411,441,151,684,60,space,j,space,f,k,0,0,0,0,0,0,0,0,left,immediate
4,18,female,Belgian,6,386,neutral,5,left,11,343,698,414,763,74,space,f,space,j,k,0,0,0,0,0,0,0,0,right,immediate
4,18,female,Belgian,6,387,loss,10,left,6,142,491,36,563,101,space,f,space,j,k,0,0,0,0,0,0,0,0,right,immediate
4,18,female,Belgian,6,388,neutral,5,left,13,358,545,383,548,25,space,j,space,j,k,0,0,0,0,0,0,0,0,right,immediate
4,18,female,Belgian,6,389,loss,5,left,8,284,539,399,497,31,space,f,space,j,k,0,0,0,0,0,0,0,0,right,immediate
5,24,male,Greek,1,1,loss,5,left,12,2053,1227,1946,1191,5532,space,j,space,j,k,0,0,0,0,0,0,0,0,right,immediate
5,24,male,Greek,1,2,neutral,5,left,9,1238,1212,2061,2162,1098,space,j,space,f,k,0,0,0,0,0,0,0,0,left,delay
5,24,male,Greek,1,3,loss,5,right,3,1175,1007,1083,2941,644,space,f,space,j,k,0,0,0,0,0,0,0,0,right,delay
5,24,male,Greek,1,4,win,5,right,13,671,1434,1709,2202,1221,space,j,space,f,k,0,0,0,0,0,0,0,0,left,immediate
5,24,male,Greek,1,5,neutral,10,right,3,613,828,1881,1548,699,space,f,space,j,k,0,0,0,0,0,0,0,0,right,delay
5,24,male,Greek,1,6,loss,5,right,9,795,854,1105,2274,238,space,j,space,j,k,0,0,0,0,0,0,0,0,right,delay
5,24,male,Greek,1,7,win,5,left,11,483,746,55,1348,261,space,f,space,f,k,0,0,0,0,0,0,0,0,left,delay
5,24,male,Greek,1,8,loss,10,right,4,592,793,630,1248,263,space,f,space,j,k,0,0,0,0,0,0,0,0,right,delay
5,24,male,Greek,1,9,neutral,10,left,5,469,896,1384,922,333,space,j,space,f,k,0,0,0,0,0,0,0,0,left,delay
5,24,male,Greek,1,10,loss,10,left,6,459,870,421,2051,803,space,j,space,j,k,0,0,0,0,0,0,0,0,right,immediate
5,24,male,Greek,1,11,win,10,left,6,459,615,503,1628,756,space,f,space,j,k,0,0,0,0,0,0,0,0,right,immediate
5,24,male,Greek,1,12,neutral,10,left,1,567,640,474,1198,912,space,f,space,j,k,0,0,0,0,0,0,0,0,right,immediate
5,24,male,Greek,1,13,win,5,left,2,428,598,696,1292,732,space,f,space,j,k,0,0,0,0,0,0,0,0,right,immediate
5,24,male,Greek,1,14,neutral,10,left,6,292,571,2944,1287,968,space,f,space,j,k,0,0,0,0,0,0,0,0,right,immediate
5,24,male,Greek,1,15,neutral,5,left,2,499,646,587,1064,774,space,f,space,j,k,0,0,0,0,0,0,0,0,right,immediate
5,24,male,Greek,1,16,win,5,left,16,479,664,478,987,478,space,f,space,j,k,0,0,0,0,0,0,0,0,right,immediate
5,24,male,Greek,1,17,loss,5,left,10,21,1022,385,860,341,space,j,space,j,k,0,0,0,0,0,0,0,0,right,immediate
5,24,male,Greek,1,18,win,10,right,2,313,614,463,1549,488,space,f,space,f,k,0,0,0,0,0,0,0,0,left,immediate
5,24,male,Greek,1,19,neutral,5,left,1,179,798,401,886,396,space,j,space,j,k,0,0,0,0,0,0,0,0,right,immediate
5,24,male,Greek,1,20,loss,10,right,2,385,634,279,910,1554,space,f,space,f,k,0,0,0,0,0,0,0,0,left,immediate
5,24,male,Greek,1,21,neutral,5,left,8,313,673,978,1022,573,space,f,space,j,k,0,0,0,0,0,0,0,0,right,immediate
5,24,male,Greek,1,22,neutral,5,left,12,146,642,442,914,313,space,f,space,j,k,0,0,0,0,0,0,0,0,right,immediate
5,24,male,Greek,1,23,neutral,5,right,6,325,567,685,947,552,space,f,space,f,k,0,0,0,0,0,0,0,0,left,immediate
5,24,male,Greek,1,24,loss,10,left,8,274,751,320,711,324,space,j,space,j,k,0,0,0,0,0,0,0,0,right,immediate
5,24,male,Greek,1,25,loss,5,right,15,174,525,494,1010,729,space,f,space,f,k,0,0,0,0,0,0,0,0,left,immediate
5,24,male,Greek,1,26,neutral,5,left,13,368,865,490,759,341,space,j,space,j,k,0,0,0,0,0,0,0,0,right,immediate
5,24,male,Greek,1,27,win,5,left,5,394,667,204,676,240,space,j,space,j,k,0,0,0,0,0,0,0,0,right,immediate
5,24,male,Greek,1,28,neutral,5,right,4,207,515,443,683,1132,space,f,space,f,k,0,0,0,0,0,0,0,0,left,immediate
5,24,male,Greek,1,29,neutral,5,right,15,510,537,505,761,580,space,f,space,f,k,0,0,0,0,0,0,0,0,left,immediate
5,24,male,Greek,1,30,win,10,right,7,302,660,307,689,1305,space,j,space,f,k,0,0,0,0,0,0,0,0,left,immediate
5,24,male,Greek,1,31,loss,5,right,8,361,610,79,610,528,space,j,space,f,k,0,0,0,0,0,0,0,0,left,immediate
5,24,male,Greek,1,32,loss,5,right,4,70,622,46,748,612,space,f,space,f,k,0,0,0,0,0,0,0,0,left,immediate
5,24,male,Greek,1,33,loss,10,right,1,267,844,26,793,685,space,j,space,f,k,0,0,0,0,0,0,0,0,left,immediate
5,24,male,Greek,1,34,neutral,5,right,16,432,878,759,1534,627,space,f,space,f,k,0,0,0,0,0,0,0,0,left,immediate
5,24,male,Greek,1,35,loss,5,left,6,49,582,20,2755,573,space,j,space,j,k,0,0,0,0,0,0,0,0,right,immediate
5,24,male,Greek,1,36,win,10,right,8,273,484,34,1025,908,space,f,space,f,k,0,0,0,0,0,0,0,0,left,immediate
5,24,male,Greek,1,37,win,5,left,3,360,653,363,1788,38,space,j,space,f,k,0,0,0,0,0,0,0,0,left,delay
5,24,male,Greek,1,38,loss,5,left,16,365,1016,378,1510,615,space,j,space,j,k,0,0,0,0,0,0,0,0,right,immediate
5,24,male,Greek,1,39,neutral,10,right,7,306,589,312,815,570,space,f,space,f,k,0,0,0,0,0,0,0,0,left,immediate
5,24,male,Greek,1,40,neutral,10,left,8,432,557,540,1192,392,space,f,space,j,k,0,0,0,0,0,0,0,0,right,immediate
5,24,male,Greek,1,41,loss,5,left,5,0,679,558,1325,309,space,f,space,f,k,0,0,0,0,0,0,0,0,left,delay
5,24,male,Greek,1,42,win,5,right,4,332,545,478,845,840,space,f,space,f,k,0,0,0,0,0,0,0,0,left,immediate
5,24,male,Greek,1,43,win,5,left,15,417,656,372,1178,310,space,j,space,j,k,0,0,0,0,0,0,0,0,right,immediate
5,24,male,Greek,1,44,loss,5,left,13,297,527,473,998,268,space,j,space,j,k,0,0,0,0,0,0,0,0,right,immediate
5,24,male,Greek,1,45,win,5,left,6,559,406,364,865,194,space,f,space,j,k,0,0,0,0,0,0,0,0,right,immediate
5,24,male,Greek,1,46,win,10,right,3,233,536,340,1282,621,space,f,space,f,k,0,0,0,0,0,0,0,0,left,immediate
5,24,male,Greek,1,47,loss,5,left,14,285,585,66,1092,244,space,f,space,j,k,0,0,0,0,0,0,0,0,right,immediate
5,24,male,Greek,1,48,loss,10,left,5,485,576,366,1388,251,space,j,space,j,k,0,0,0,0,0,0,0,0,right,immediate
5,24,male,Greek,1,49,loss,5,right,11,32,681,335,787,977,space,f,space,f,k,0,0,0,0,0,0,0,0,left,immediate
5,24,male,Greek,1,50,win,5,left,1,228,628,446,1976,2988,space,j,space,f,k,0,0,0,0,0,0,0,0,left,delay
5,24,male,Greek,1,51,neutral,5,right,3,90,1060,401,773,873,space,j,space,f,k,0,0,0,0,0,0,0,0,left,immediate
5,24,male,Greek,1,52,neutral,10,left,2,285,683,447,1312,355,space,j,space,j,k,0,0,0,0,0,0,0,0,right,immediate
5,24,male,Greek,1,53,win,10,left,4,202,600,303,740,280,space,f,space,j,k,0,0,0,0,0,0,0,0,right,immediate
5,24,male,Greek,1,54,neutral,5,left,11,288,716,221,659,412,space,j,space,j,k,0,0,0,0,0,0,0,0,right,immediate
5,24,male,Greek,1,55,neutral,5,left,5,192,563,88,681,137,space,f,space,j,k,0,0,0,0,0,0,0,0,right,immediate
5,24,male,Greek,1,56,win,5,left,14,133,608,274,597,114,space,j,space,j,k,0,0,0,0,0,0,0,0,right,immediate
5,24,male,Greek,1,57,win,5,left,8,263,534,756,646,122,space,f,space,j,k,0,0,0,0,0,0,0,0,right,immediate
5,24,male,Greek,1,58,loss,5,right,2,369,580,26,1076,342,space,f,space,f,k,0,0,0,0,0,0,0,0,left,immediate
5,24,male,Greek,1,59,loss,10,right,7,430,541,163,802,289,space,j,space,f,k,0,0,0,0,0,0,0,0,left,immediate
5,24,male,Greek,1,60,loss,10,right,3,95,583,30,921,218,space,j,space,f,k,0,0,0,0,0,0,0,0,left,immediate
5,24,male,Greek,1,61,neutral,5,right,7,300,437,140,595,198,space,f,space,f,k,0,0,0,0,0,0,0,0,left,immediate
5,24,male,Greek,1,62,win,5,right,7,20,472,35,568,185,space,j,space,f,k,0,0,0,0,0,0,0,0,left,immediate
5,24,male,Greek,1,63,win,5,left,12,247,518,318,835,105,space,f,space,j,k,0,0,0,0,0,0,0,0,right,immediate
5,24,male,Greek,1,64,win,5,right,10,400,420,414,883,131,space,f,space,f,k,0,0,0,0,0,0,0,0,left,immediate
5,24,male,Greek,1,65,neutral,5,left,10,171,484,203,640,79,space,f,space,j,k,0,0,0,0,0,0,0,0,right,immediate
5,24,male,Greek,1,66,win,5,right,9,218,498,56,782,128,space,f,space,f,k,0,0,0,0,0,0,0,0,left,immediate
5,24,male,Greek,1,67,neutral,10,right,4,249,677,268,645,118,space,j,space,f,k,0,0,0,0,0,0,0,0,left,immediate
5,24,male,Greek,1,68,win,10,left,1,111,547,117,673,169,space,j,space,j,k,0,0,0,0,0,0,0,0,right,immediate
5,24,male,Greek,1,69,win,10,left,5,85,796,118,884,108,space,f,space,j,k,0,0,0,0,0,0,0,0,right,immediate
5,24,male,Greek,1,70,neutral,5,right,14,133,628,43,680,166,space,j,space,f,k,0,0,0,0,0,0,0,0,left,immediate
5,24,male,Greek,1,71,loss,5,right,7,162,521,607,722,175,space,f,space,f,k,0,0,0,0,0,0,0,0,left,immediate
5,24,male,Greek,1,72,loss,5,right,1,409,436,NA,NA,NA,space,j,NA,NA,NA,0,0,0,NA,NA,NA,NA,NA,NA,NA
5,24,male,Greek,2,73,win,5,left,5,609,606,42,733,102,space,f,space,j,k,0,0,0,0,0,0,0,0,right,immediate
5,24,male,Greek,2,74,neutral,5,right,14,148,1067,73,539,135,space,j,space,f,k,0,0,0,0,0,0,0,0,left,immediate
5,24,male,Greek,2,75,neutral,5,right,16,355,588,22,589,179,space,j,space,f,k,0,0,0,0,0,0,0,0,left,immediate
5,24,male,Greek,2,76,neutral,10,left,4,224,506,572,643,149,space,f,space,j,k,0,0,0,0,0,0,0,0,right,immediate
5,24,male,Greek,2,77,neutral,5,right,13,57,513,356,659,86,space,j,space,f,k,0,0,0,0,0,0,0,0,left,immediate
5,24,male,Greek,2,78,win,5,left,2,334,588,324,620,97,space,j,space,j,k,0,0,0,0,0,0,0,0,right,immediate
5,24,male,Greek,2,79,win,5,right,13,274,612,147,568,146,space,j,space,f,k,0,0,0,0,0,0,0,0,left,immediate
5,24,male,Greek,2,80,win,5,left,16,310,552,59,582,108,space,f,space,j,k,0,0,0,0,0,0,0,0,right,immediate
5,24,male,Greek,2,81,neutral,5,right,4,35,561,421,503,195,space,f,space,f,k,0,0,0,0,0,0,0,0,left,immediate
5,24,male,Greek,2,82,neutral,5,right,7,6,526,35,553,164,space,j,space,f,k,0,0,0,0,0,0,0,0,left,immediate
5,24,male,Greek,2,83,neutral,5,right,9,49,510,329,605,161,space,j,space,f,k,0,0,0,0,0,0,0,0,left,immediate
5,24,male,Greek,2,84,neutral,5,left,11,467,1028,122,703,124,space,j,space,j,k,0,0,0,0,0,0,0,0,right,immediate
5,24,male,Greek,2,85,win,10,left,3,332,583,282,544,127,space,f,space,j,k,0,0,0,0,0,0,0,0,right,immediate
5,24,male,Greek,2,86,win,5,right,11,22,560,143,677,64,space,f,space,f,k,0,0,0,0,0,0,0,0,left,immediate
5,24,male,Greek,2,87,win,5,right,9,439,568,62,560,72,space,j,space,f,k,0,0,0,0,0,0,0,0,left,immediate
5,24,male,Greek,2,88,neutral,10,left,5,145,540,52,559,136,space,f,space,j,k,0,0,0,0,0,0,0,0,right,immediate
5,24,male,Greek,2,89,loss,5,right,3,24,571,196,740,76,space,j,space,f,k,0,0,0,0,0,0,0,0,left,immediate
5,24,male,Greek,2,90,neutral,10,right,1,356,615,892,699,500,space,f,space,f,k,0,0,0,0,0,0,0,0,left,immediate
5,24,male,Greek,2,91,win,5,right,6,85,452,357,518,116,space,f,space,f,k,0,0,0,0,0,0,0,0,left,immediate
5,24,male,Greek,2,92,loss,10,left,3,109,590,47,652,106,space,f,space,j,k,0,0,0,0,0,0,0,0,right,immediate
5,24,male,Greek,2,93,loss,10,left,8,116,596,174,584,112,space,f,space,j,k,0,0,0,0,0,0,0,0,right,immediate
5,24,male,Greek,2,94,loss,5,right,4,352,672,79,560,101,space,j,space,f,k,0,0,0,0,0,0,0,0,left,immediate
5,24,male,Greek,2,95,loss,5,right,6,259,503,446,616,106,space,f,space,f,k,0,0,0,0,0,0,0,0,left,immediate
5,24,male,Greek,2,96,win,10,left,2,334,541,200,537,93,space,j,space,j,k,0,0,0,0,0,0,0,0,right,immediate
5,24,male,Greek,2,97,win,5,left,4,237,543,388,607,105,space,f,space,j,k,0,0,0,0,0,0,0,0,right,immediate
5,24,male,Greek,2,98,loss,10,right,6,365,561,392,794,47,space,f,space,f,k,0,0,0,0,0,0,0,0,left,immediate
5,24,male,Greek,2,99,win,5,left,14,112,497,178,512,125,space,j,space,j,k,0,0,0,0,0,0,0,0,right,immediate
5,24,male,Greek,2,100,loss,5,left,15,313,497,15,593,111,space,j,space,j,k,0,0,0,0,0,0,0,0,right,immediate
5,24,male,Greek,2,101,neutral,10,right,2,96,642,195,1576,189,space,f,space,f,k,0,0,0,0,0,0,0,0,left,immediate
5,24,male,Greek,2,102,loss,5,left,5,344,463,214,492,85,space,j,space,j,k,0,0,0,0,0,0,0,0,right,immediate
5,24,male,Greek,2,103,win,10,right,8,280,510,264,539,72,space,j,space,f,k,0,0,0,0,0,0,0,0,left,immediate
5,24,male,Greek,2,104,win,5,right,7,273,530,292,515,66,space,j,space,f,k,0,0,0,0,0,0,0,0,left,immediate
5,24,male,Greek,2,105,loss,5,right,8,236,497,344,499,85,space,f,space,f,k,0,0,0,0,0,0,0,0,left,immediate
5,24,male,Greek,2,106,loss,5,left,12,300,471,315,612,95,space,f,space,j,k,0,0,0,0,0,0,0,0,right,immediate
5,24,male,Greek,2,107,loss,10,left,5,169,505,194,537,109,space,j,space,j,k,0,0,0,0,0,0,0,0,right,immediate
5,24,male,Greek,2,108,loss,10,left,4,295,496,125,1063,99,space,f,space,j,k,0,0,0,0,0,0,0,0,right,immediate
5,24,male,Greek,2,109,win,10,right,6,326,533,24,787,58,space,j,space,f,k,0,0,0,0,0,0,0,0,left,immediate
5,24,male,Greek,2,110,loss,10,right,2,339,444,430,886,155,space,f,space,f,k,0,0,0,0,0,0,0,0,left,immediate
5,24,male,Greek,2,111,loss,5,right,9,356,512,188,844,56,space,f,space,f,k,0,0,0,0,0,0,0,0,left,immediate
5,24,male,Greek,2,112,neutral,10,right,7,207,518,42,645,52,space,j,space,f,k,0,0,0,0,0,0,0,0,left,immediate
5,24,male,Greek,2,113,win,5,right,3,217,475,368,2355,441,space,j,space,j,k,0,0,0,0,0,0,0,0,right,delay
5,24,male,Greek,2,114,loss,5,left,14,332,587,377,1412,237,space,j,space,j,k,0,0,0,0,0,0,0,0,right,immediate
5,24,male,Greek,2,115,neutral,5,right,1,478,590,481,1927,374,space,f,space,j,k,0,0,0,0,0,0,0,0,right,delay
5,24,male,Greek,2,116,win,10,left,7,365,487,391,709,75,space,f,space,j,k,0,0,0,0,0,0,0,0,right,immediate
5,24,male,Greek,2,117,loss,5,right,11,50,506,100,608,543,space,j,space,f,k,0,0,0,0,0,0,0,0,left,immediate
5,24,male,Greek,2,118,win,5,right,1,96,528,385,2023,413,space,j,space,j,k,0,0,0,0,0,0,0,0,right,delay
5,24,male,Greek,2,119,neutral,10,left,6,64,555,507,672,118,space,j,space,j,k,0,0,0,0,0,0,0,0,right,immediate
5,24,male,Greek,2,120,neutral,5,left,3,146,532,144,1265,136,space,f,space,j,k,0,0,0,0,0,0,0,0,right,immediate
5,24,male,Greek,2,121,neutral,10,right,3,51,545,427,1241,94,space,j,space,f,k,0,0,0,0,0,0,0,0,left,immediate
5,24,male,Greek,2,122,neutral,10,right,8,68,629,422,805,133,space,f,space,f,k,0,0,0,0,0,0,0,0,left,immediate
5,24,male,Greek,2,123,neutral,5,left,15,97,582,355,644,101,space,j,space,j,k,0,0,0,0,0,0,0,0,right,immediate
5,24,male,Greek,2,124,loss,10,right,7,84,619,199,710,59,space,f,space,f,k,0,0,0,0,0,0,0,0,left,immediate
5,24,male,Greek,2,125,loss,5,right,13,242,532,85,631,112,space,j,space,f,k,0,0,0,0,0,0,0,0,left,immediate
5,24,male,Greek,2,126,loss,5,right,7,122,600,335,576,112,space,j,space,f,k,0,0,0,0,0,0,0,0,left,immediate
5,24,male,Greek,2,127,neutral,5,left,12,238,651,86,814,102,space,f,space,j,k,0,0,0,0,0,0,0,0,right,immediate
5,24,male,Greek,2,128,loss,5,right,16,87,488,17,638,62,space,f,space,f,k,0,0,0,0,0,0,0,0,left,immediate
5,24,male,Greek,2,129,neutral,5,right,8,22,589,497,672,40,space,j,space,f,k,0,0,0,0,0,0,0,0,left,immediate
5,24,male,Greek,2,130,neutral,5,right,5,509,301,394,801,126,space,j,space,f,k,0,0,0,0,0,0,0,0,left,immediate
5,24,male,Greek,2,131,neutral,5,left,6,354,714,712,668,101,space,j,space,j,k,0,0,0,0,0,0,0,0,right,immediate
5,24,male,Greek,2,132,loss,5,right,10,245,531,255,587,103,space,j,space,f,k,0,0,0,0,0,0,0,0,left,immediate
5,24,male,Greek,2,133,loss,5,right,2,262,391,342,641,82,space,f,space,f,k,0,0,0,0,0,0,0,0,left,immediate
5,24,male,Greek,2,134,win,5,left,12,144,519,129,615,92,space,j,space,j,k,0,0,0,0,0,0,0,0,right,immediate
5,24,male,Greek,2,135,neutral,5,right,10,262,552,45,679,98,space,f,space,f,k,0,0,0,0,0,0,0,0,left,immediate
5,24,male,Greek,2,136,neutral,5,left,2,328,616,405,1243,105,space,j,space,j,k,0,0,0,0,0,0,0,0,right,immediate
5,24,male,Greek,2,137,win,5,right,10,263,563,129,586,159,space,j,space,f,k,0,0,0,0,0,0,0,0,left,immediate
5,24,male,Greek,2,138,win,10,right,5,28,582,130,685,59,space,f,space,f,k,0,0,0,0,0,0,0,0,left,immediate
5,24,male,Greek,2,139,loss,5,right,1,166,770,347,1660,1130,space,f,space,j,k,0,0,0,0,0,0,0,0,right,delay
5,24,male,Greek,2,140,loss,10,right,1,339,403,10,1063,310,space,f,space,f,k,0,0,0,0,0,0,0,0,left,immediate
5,24,male,Greek,2,141,win,5,left,15,334,538,254,625,91,space,f,space,j,k,0,0,0,0,0,0,0,0,right,immediate
5,24,male,Greek,2,142,win,10,right,4,95,536,53,743,104,space,f,space,f,k,0,0,0,0,0,0,0,0,left,immediate
5,24,male,Greek,2,143,win,5,right,8,289,438,162,873,72,space,j,space,f,k,0,0,0,0,0,0,0,0,left,immediate
5,24,male,Greek,2,144,win,10,left,1,361,465,235,666,88,space,f,space,j,k,0,0,0,0,0,0,0,0,right,immediate
5,24,male,Greek,2,145,loss,5,right,15,22,478,25,834,76,space,f,space,f,k,0,0,0,0,0,0,0,0,left,immediate
5,24,male,Greek,2,146,neutral,5,right,15,213,523,312,548,140,space,f,space,f,k,0,0,0,0,0,0,0,0,left,immediate
5,24,male,Greek,2,147,loss,5,right,4,279,646,165,550,59,space,f,space,f,k,0,0,0,0,0,0,0,0,left,immediate
5,24,male,Greek,2,148,neutral,5,right,11,214,523,215,514,75,space,f,space,f,k,0,0,0,0,0,0,0,0,left,immediate
5,24,male,Greek,2,149,loss,10,left,2,90,491,713,569,84,space,f,space,j,k,0,0,0,0,0,0,0,0,right,immediate
5,24,male,Greek,2,150,win,5,right,8,255,440,229,816,68,space,j,space,f,k,0,0,0,0,0,0,0,0,left,immediate
5,24,male,Greek,2,151,neutral,5,left,10,339,981,415,651,81,space,j,space,j,k,0,0,0,0,0,0,0,0,right,immediate
5,24,male,Greek,2,152,win,5,left,12,310,530,102,530,95,space,f,space,j,k,0,0,0,0,0,0,0,0,right,immediate
5,24,male,Greek,2,153,loss,10,right,4,619,475,145,736,69,space,f,space,f,k,0,0,0,0,0,0,0,0,left,immediate
5,24,male,Greek,2,154,loss,5,right,5,331,545,8,798,62,space,j,space,f,k,0,0,0,0,0,0,0,0,left,immediate
5,24,male,Greek,2,155,neutral,5,right,3,414,585,367,565,61,space,f,space,f,k,0,0,0,0,0,0,0,0,left,immediate
5,24,male,Greek,2,156,neutral,10,right,3,227,510,283,492,76,space,f,space,f,k,0,0,0,0,0,0,0,0,left,immediate
5,24,male,Greek,2,157,loss,5,left,9,108,574,534,603,111,space,f,space,j,k,0,0,0,0,0,0,0,0,right,immediate
5,24,male,Greek,2,158,loss,10,right,7,370,577,13,522,76,space,j,space,f,k,0,0,0,0,0,0,0,0,left,immediate
5,24,male,Greek,2,159,win,10,right,3,332,529,138,581,62,space,f,space,f,k,0,0,0,0,0,0,0,0,left,immediate
5,24,male,Greek,2,160,neutral,10,left,1,277,462,176,638,115,space,f,space,j,k,0,0,0,0,0,0,0,0,right,immediate
5,24,male,Greek,2,161,neutral,5,left,7,150,522,442,627,78,space,j,space,j,k,0,0,0,0,0,0,0,0,right,immediate
5,24,male,Greek,2,162,loss,5,left,12,348,578,50,470,90,space,j,space,j,k,0,0,0,0,0,0,0,0,right,immediate
5,24,male,Greek,2,163,loss,5,left,16,247,594,139,435,70,space,f,space,j,k,0,0,0,0,0,0,0,0,right,immediate
5,24,male,Greek,2,164,neutral,5,left,6,250,454,395,535,70,space,f,space,j,k,0,0,0,0,0,0,0,0,right,immediate
5,24,male,Greek,2,165,loss,5,left,11,292,279,167,492,93,space,j,space,j,k,0,0,0,0,0,0,0,0,right,immediate
5,24,male,Greek,2,166,win,10,right,5,164,440,73,853,59,space,f,space,f,k,0,0,0,0,0,0,0,0,left,immediate
5,24,male,Greek,2,167,win,5,left,11,675,505,358,425,72,space,f,space,j,k,0,0,0,0,0,0,0,0,right,immediate
5,24,male,Greek,2,168,loss,5,left,10,192,665,322,417,82,space,f,space,j,k,0,0,0,0,0,0,0,0,right,immediate
5,24,male,Greek,2,169,win,5,left,14,92,484,239,371,65,space,f,space,j,k,0,0,0,0,0,0,0,0,right,immediate
5,24,male,Greek,2,170,win,5,left,6,234,424,176,398,46,space,f,space,j,k,0,0,0,0,0,0,0,0,right,immediate
5,24,male,Greek,2,171,loss,10,left,6,53,509,617,292,39,space,f,space,j,k,0,0,0,0,0,0,0,0,right,immediate
5,24,male,Greek,2,172,win,10,right,8,104,607,55,755,59,space,j,space,f,k,0,0,0,0,0,0,0,0,left,immediate
5,24,male,Greek,2,173,neutral,5,left,13,118,465,459,463,87,space,f,space,j,k,0,0,0,0,0,0,0,0,right,immediate
5,24,male,Greek,2,174,neutral,5,right,1,3,522,112,485,849,space,f,space,j,k,0,0,0,0,0,0,0,0,right,delay
5,24,male,Greek,3,175,loss,5,left,7,934,485,541,670,105,space,f,space,j,k,0,0,0,0,0,0,0,0,right,immediate
5,24,male,Greek,3,176,win,10,left,7,356,551,308,485,101,space,j,space,j,k,0,0,0,0,0,0,0,0,right,immediate
5,24,male,Greek,3,177,loss,10,right,1,310,507,384,594,519,space,j,space,f,k,0,0,0,0,0,0,0,0,left,immediate
5,24,male,Greek,3,178,neutral,10,left,2,469,570,192,520,161,space,f,space,j,k,0,0,0,0,0,0,0,0,right,immediate
5,24,male,Greek,3,179,loss,10,right,3,29,560,375,563,354,space,j,space,f,k,0,0,0,0,0,0,0,0,left,immediate
5,24,male,Greek,3,180,loss,5,left,3,1309,620,141,578,116,space,j,space,j,k,0,0,0,0,0,0,0,0,right,immediate
5,24,male,Greek,3,181,win,10,right,2,447,1244,44,740,106,space,j,space,f,k,0,0,0,0,0,0,0,0,left,immediate
5,24,male,Greek,3,182,loss,5,left,2,659,483,380,625,108,space,f,space,j,k,0,0,0,0,0,0,0,0,right,immediate
5,24,male,Greek,3,183,neutral,10,right,8,49,467,425,725,323,space,j,space,f,k,0,0,0,0,0,0,0,0,left,immediate
5,24,male,Greek,3,184,win,5,right,5,866,661,485,650,95,space,j,space,f,k,0,0,0,0,0,0,0,0,left,immediate
5,24,male,Greek,3,185,win,5,right,15,288,498,337,533,108,space,j,space,f,k,0,0,0,0,0,0,0,0,left,immediate
5,24,male,Greek,3,186,win,5,right,16,226,529,310,564,122,space,f,space,f,k,0,0,0,0,0,0,0,0,left,immediate
5,24,male,Greek,3,187,neutral,5,left,5,276,519,424,484,91,space,j,space,j,k,0,0,0,0,0,0,0,0,right,immediate
5,24,male,Greek,3,188,loss,5,left,13,243,490,135,489,98,space,f,space,j,k,0,0,0,0,0,0,0,0,right,immediate
5,24,male,Greek,3,189,loss,5,right,1,340,489,99,783,115,space,j,space,f,k,0,0,0,0,0,0,0,0,left,immediate
5,24,male,Greek,3,190,win,5,right,3,287,477,300,501,92,space,j,space,f,k,0,0,0,0,0,0,0,0,left,immediate
5,24,male,Greek,3,191,neutral,5,right,16,264,521,136,591,131,space,f,space,f,k,0,0,0,0,0,0,0,0,left,immediate
5,24,male,Greek,3,192,win,5,right,2,307,457,263,540,68,space,j,space,f,k,0,0,0,0,0,0,0,0,left,immediate
5,24,male,Greek,3,193,neutral,5,right,12,258,454,128,542,104,space,f,space,f,k,0,0,0,0,0,0,0,0,left,immediate
5,24,male,Greek,3,194,loss,10,right,5,247,445,127,497,115,space,j,space,f,k,0,0,0,0,0,0,0,0,left,immediate
5,24,male,Greek,3,195,win,10,left,6,127,489,160,481,100,space,f,space,j,k,0,0,0,0,0,0,0,0,right,immediate
5,24,male,Greek,3,196,neutral,10,right,6,319,503,385,494,135,space,j,space,f,k,0,0,0,0,0,0,0,0,left,immediate
5,24,male,Greek,3,197,neutral,10,left,4,374,435,405,471,291,space,j,space,j,k,0,0,0,0,0,0,0,0,right,immediate
5,24,male,Greek,3,198,win,5,left,7,177,512,226,502,427,space,j,space,j,k,0,0,0,0,0,0,0,0,right,immediate
5,24,male,Greek,3,199,neutral,5,right,4,250,469,153,561,139,space,j,space,f,k,0,0,0,0,0,0,0,0,left,immediate
5,24,male,Greek,3,200,loss,5,right,14,262,456,312,438,92,space,j,space,f,k,0,0,0,0,0,0,0,0,left,immediate
5,24,male,Greek,3,201,neutral,5,left,8,181,436,85,491,68,space,j,space,j,k,0,0,0,0,0,0,0,0,right,immediate
5,24,male,Greek,3,202,win,5,right,9,298,480,21,556,59,space,f,space,f,k,0,0,0,0,0,0,0,0,left,immediate
5,24,male,Greek,3,203,neutral,5,left,9,213,567,168,786,115,space,f,space,j,k,0,0,0,0,0,0,0,0,right,immediate
5,24,male,Greek,3,204,win,5,right,1,283,567,260,212,287,space,f,space,j,k,0,0,0,0,0,0,0,0,right,delay
5,24,male,Greek,3,205,win,5,right,4,736,475,345,489,128,space,f,space,f,k,0,0,0,0,0,0,0,0,left,immediate
5,24,male,Greek,3,206,win,10,right,4,354,448,300,434,109,space,f,space,f,k,0,0,0,0,0,0,0,0,left,immediate
5,24,male,Greek,3,207,win,10,left,1,320,492,348,431,67,space,j,space,j,k,0,0,0,0,0,0,0,0,right,immediate
5,24,male,Greek,3,208,loss,10,left,8,228,419,100,467,118,space,f,space,j,k,0,0,0,0,0,0,0,0,right,immediate
5,24,male,Greek,3,209,neutral,5,left,2,195,1011,495,537,133,space,f,space,j,k,0,0,0,0,0,0,0,0,right,immediate
5,24,male,Greek,3,210,loss,5,left,6,47,504,142,408,68,space,j,space,j,k,0,0,0,0,0,0,0,0,right,immediate
5,24,male,Greek,3,211,win,5,right,10,286,508,139,581,122,space,j,space,f,k,0,0,0,0,0,0,0,0,left,immediate
5,24,male,Greek,3,212,win,5,right,13,223,540,74,489,97,space,j,space,f,k,0,0,0,0,0,0,0,0,left,immediate
5,24,male,Greek,3,213,neutral,10,right,5,383,515,415,545,62,space,f,space,f,k,0,0,0,0,0,0,0,0,left,immediate
5,24,male,Greek,3,214,loss,5,left,8,468,531,47,512,101,space,f,space,j,k,0,0,0,0,0,0,0,0,right,immediate
5,24,male,Greek,3,215,neutral,5,right,14,304,476,303,696,56,space,f,space,f,k,0,0,0,0,0,0,0,0,left,immediate
5,24,male,Greek,3,216,neutral,10,right,7,396,473,116,497,55,space,j,space,f,k,0,0,0,0,0,0,0,0,left,immediate
5,24,male,Greek,3,217,win,5,left,5,314,551,13,589,138,space,f,space,j,k,0,0,0,0,0,0,0,0,right,immediate
5,24,male,Greek,3,218,neutral,10,left,4,306,396,125,451,108,space,j,space,j,k,0,0,0,0,0,0,0,0,right,immediate
5,24,male,Greek,3,219,loss,5,left,13,384,541,141,475,115,space,j,space,j,k,0,0,0,0,0,0,0,0,right,immediate
5,24,male,Greek,3,220,neutral,5,left,1,303,448,253,409,82,space,j,space,j,k,0,0,0,0,0,0,0,0,right,immediate
5,24,male,Greek,3,221,loss,5,left,10,220,521,199,442,132,space,f,space,j,k,0,0,0,0,0,0,0,0,right,immediate
5,24,male,Greek,3,222,neutral,5,right,13,220,418,7,498,51,space,j,space,j,k,0,0,0,0,0,0,0,0,right,delay
5,24,male,Greek,3,223,loss,5,right,12,229,450,140,1290,101,space,f,space,f,k,0,0,0,0,0,0,0,0,left,immediate
5,24,male,Greek,3,224,win,5,right,16,289,396,43,720,74,space,j,space,f,k,0,0,0,0,0,0,0,0,left,immediate
5,24,male,Greek,3,225,neutral,5,left,15,241,441,384,548,94,space,f,space,j,k,0,0,0,0,0,0,0,0,right,immediate
5,24,male,Greek,3,226,neutral,5,right,10,219,481,472,586,161,space,j,space,f,k,0,0,0,0,0,0,0,0,left,immediate
5,24,male,Greek,3,227,neutral,10,left,3,184,477,434,488,112,space,j,space,j,k,0,0,0,0,0,0,0,0,right,immediate
5,24,male,Greek,3,228,loss,5,left,9,338,454,168,278,431,space,f,space,j,k,0,0,0,0,0,0,0,0,right,immediate
5,24,male,Greek,3,229,loss,10,right,4,132,843,61,471,127,space,j,space,f,k,0,0,0,0,0,0,0,0,left,immediate
5,24,male,Greek,3,230,win,5,left,15,283,430,443,561,104,space,j,space,j,k,0,0,0,0,0,0,0,0,right,immediate
5,24,male,Greek,3,231,win,10,left,5,335,564,607,331,98,space,j,space,j,k,0,0,0,0,0,0,0,0,right,immediate
5,24,male,Greek,3,232,win,5,left,8,270,499,134,461,78,space,f,space,j,k,0,0,0,0,0,0,0,0,right,immediate
5,24,male,Greek,3,233,loss,10,right,6,284,442,132,487,122,space,f,space,f,k,0,0,0,0,0,0,0,0,left,immediate
5,24,male,Greek,3,234,neutral,10,left,2,181,472,192,464,69,space,j,space,j,k,0,0,0,0,0,0,0,0,right,immediate
5,24,male,Greek,3,235,loss,5,left,4,2,721,93,486,86,space,f,space,j,k,0,0,0,0,0,0,0,0,right,immediate
5,24,male,Greek,3,236,win,10,left,4,411,434,114,455,81,space,j,space,j,k,0,0,0,0,0,0,0,0,right,immediate
5,24,male,Greek,3,237,neutral,5,left,3,159,515,53,445,68,space,f,space,j,k,0,0,0,0,0,0,0,0,right,immediate
5,24,male,Greek,3,238,loss,10,left,7,193,480,121,449,83,space,j,space,j,k,0,0,0,0,0,0,0,0,right,immediate
5,24,male,Greek,3,239,neutral,5,left,7,116,491,359,438,101,space,j,space,j,k,0,0,0,0,0,0,0,0,right,immediate
5,24,male,Greek,3,240,neutral,10,right,7,162,533,414,570,112,space,f,space,f,k,0,0,0,0,0,0,0,0,left,immediate
5,24,male,Greek,3,241,win,10,left,2,83,923,421,482,114,space,f,space,j,k,0,0,0,0,0,0,0,0,right,immediate
5,24,male,Greek,3,242,win,5,right,12,161,425,139,525,122,space,f,space,f,k,0,0,0,0,0,0,0,0,left,immediate
5,24,male,Greek,3,243,loss,5,right,5,280,498,194,510,138,space,f,space,f,k,0,0,0,0,0,0,0,0,left,immediate
5,24,male,Greek,3,244,loss,5,right,16,67,412,108,482,101,space,j,space,f,k,0,0,0,0,0,0,0,0,left,immediate
5,24,male,Greek,3,245,loss,5,right,2,308,360,40,503,68,space,f,space,f,k,0,0,0,0,0,0,0,0,left,immediate
5,24,male,Greek,3,246,neutral,5,left,4,370,1215,49,679,105,space,j,space,j,k,0,0,0,0,0,0,0,0,right,immediate
5,24,male,Greek,3,247,loss,10,right,3,108,620,335,512,96,space,f,space,f,k,0,0,0,0,0,0,0,0,left,immediate
5,24,male,Greek,3,248,win,10,left,3,206,579,270,478,88,space,f,space,j,k,0,0,0,0,0,0,0,0,right,immediate
5,24,male,Greek,3,249,win,5,left,2,132,594,196,532,122,space,f,space,j,k,0,0,0,0,0,0,0,0,right,immediate
5,24,male,Greek,3,250,win,5,right,7,110,470,6,727,1775,space,j,space,f,k,0,0,0,0,0,0,0,0,left,immediate
5,24,male,Greek,3,251,neutral,10,left,8,418,571,176,524,95,space,j,space,j,k,0,0,0,0,0,0,0,0,right,immediate
5,24,male,Greek,3,252,loss,5,right,11,34,817,341,535,127,space,j,space,f,k,0,0,0,0,0,0,0,0,left,immediate
5,24,male,Greek,3,253,neutral,5,left,16,381,551,379,481,117,space,j,space,j,k,0,0,0,0,0,0,0,0,right,immediate
5,24,male,Greek,3,254,win,5,right,10,264,517,27,572,101,space,f,space,f,k,0,0,0,0,0,0,0,0,left,immediate
5,24,male,Greek,3,255,neutral,5,right,8,148,526,103,513,92,space,j,space,f,k,0,0,0,0,0,0,0,0,left,immediate
5,24,male,Greek,3,256,neutral,5,left,5,263,468,65,520,155,space,j,space,j,k,0,0,0,0,0,0,0,0,right,immediate
5,24,male,Greek,3,257,win,10,left,7,262,599,124,563,84,space,j,space,j,k,0,0,0,0,0,0,0,0,right,immediate
5,24,male,Greek,3,258,neutral,10,right,5,335,416,78,522,85,space,j,space,f,k,0,0,0,0,0,0,0,0,left,immediate
5,24,male,Greek,3,259,win,5,left,3,195,552,88,541,108,space,f,space,j,k,0,0,0,0,0,0,0,0,right,immediate
5,24,male,Greek,3,260,loss,5,left,6,46,568,88,490,79,space,f,space,j,k,0,0,0,0,0,0,0,0,right,immediate
5,24,male,Greek,3,261,loss,5,right,15,60,465,333,624,96,space,j,space,f,k,0,0,0,0,0,0,0,0,left,immediate
5,24,male,Greek,3,262,win,5,left,4,126,460,134,476,135,space,f,space,j,k,0,0,0,0,0,0,0,0,right,immediate
5,24,male,Greek,3,263,win,5,right,1,256,383,278,605,134,space,f,space,f,k,0,0,0,0,0,0,0,0,left,immediate
5,24,male,Greek,3,264,neutral,10,left,6,57,559,276,437,92,space,j,space,j,k,0,0,0,0,0,0,0,0,right,immediate
5,24,male,Greek,3,265,win,5,right,9,170,448,111,536,81,space,f,space,f,k,0,0,0,0,0,0,0,0,left,immediate
5,24,male,Greek,3,266,win,5,right,11,297,422,8,534,83,space,f,space,f,k,0,0,0,0,0,0,0,0,left,immediate
5,24,male,Greek,3,267,loss,10,left,2,91,838,383,528,103,space,f,space,j,k,0,0,0,0,0,0,0,0,right,immediate
5,24,male,Greek,3,268,neutral,5,right,9,316,561,90,474,101,space,j,space,f,k,0,0,0,0,0,0,0,0,left,immediate
5,24,male,Greek,3,269,neutral,5,right,6,352,547,334,519,89,space,j,space,f,k,0,0,0,0,0,0,0,0,left,immediate
5,24,male,Greek,3,270,loss,10,right,8,303,565,193,609,72,space,j,space,f,k,0,0,0,0,0,0,0,0,left,immediate
5,24,male,Greek,3,271,win,5,right,13,233,528,118,514,75,space,f,space,f,k,0,0,0,0,0,0,0,0,left,immediate
5,24,male,Greek,3,272,neutral,10,left,1,159,543,416,574,138,space,f,space,j,k,0,0,0,0,0,0,0,0,right,immediate
5,24,male,Greek,3,273,win,5,right,6,397,572,424,513,122,space,f,space,f,k,0,0,0,0,0,0,0,0,left,immediate
5,24,male,Greek,3,274,neutral,5,left,11,11,579,466,822,143,space,j,space,j,k,0,0,0,0,0,0,0,0,right,immediate
5,24,male,Greek,3,275,loss,5,right,7,328,455,300,487,96,space,f,space,f,k,0,0,0,0,0,0,0,0,left,immediate
5,24,male,Greek,3,276,win,5,right,14,306,517,301,489,80,space,j,space,f,k,0,0,0,0,0,0,0,0,left,immediate
5,24,male,Greek,3,277,loss,5,right,14,285,502,337,473,81,space,f,space,f,k,0,0,0,0,0,0,0,0,left,immediate
5,24,male,Greek,3,278,neutral,5,left,12,212,455,328,457,113,space,f,space,j,k,0,0,0,0,0,0,0,0,right,immediate
5,24,male,Greek,3,279,neutral,5,right,2,289,438,361,456,68,space,f,space,f,k,0,0,0,0,0,0,0,0,left,immediate
5,24,male,Greek,3,280,win,10,right,6,292,393,53,444,92,space,f,space,f,k,0,0,0,0,0,0,0,0,left,immediate
5,24,male,Greek,3,281,win,10,right,1,267,569,271,482,119,space,f,space,f,k,0,0,0,0,0,0,0,0,left,immediate
5,24,male,Greek,3,282,neutral,5,right,14,304,427,17,437,114,space,j,space,f,k,0,0,0,0,0,0,0,0,left,immediate
5,24,male,Greek,3,283,loss,5,left,8,303,338,97,499,115,space,j,space,j,k,0,0,0,0,0,0,0,0,right,immediate
5,24,male,Greek,3,284,loss,10,right,1,263,497,145,429,108,space,f,space,f,k,0,0,0,0,0,0,0,0,left,immediate
5,24,male,Greek,4,285,loss,10,right,5,1334,580,354,549,186,space,j,space,f,k,0,0,0,0,0,0,0,0,left,immediate
5,24,male,Greek,4,286,loss,5,right,1,345,522,446,646,111,space,f,space,f,k,0,0,0,0,0,0,0,0,left,immediate
5,24,male,Greek,4,287,win,10,right,8,285,542,338,507,166,space,j,space,f,k,0,0,0,0,0,0,0,0,left,immediate
5,24,male,Greek,4,288,loss,5,right,3,277,417,313,497,92,space,j,space,f,k,0,0,0,0,0,0,0,0,left,immediate
5,24,male,Greek,4,289,loss,5,right,1,146,454,33,534,71,space,f,space,f,k,0,0,0,0,0,0,0,0,left,immediate
5,24,male,Greek,4,290,win,10,right,5,174,512,95,500,190,space,j,space,f,k,0,0,0,0,0,0,0,0,left,immediate
5,24,male,Greek,4,291,neutral,5,right,5,152,498,72,450,112,space,j,space,f,k,0,0,0,0,0,0,0,0,left,immediate
5,24,male,Greek,4,292,loss,5,left,2,67,905,371,488,92,space,f,space,j,k,0,0,0,0,0,0,0,0,right,immediate
5,24,male,Greek,4,293,neutral,5,left,14,272,363,46,477,113,space,j,space,j,k,0,0,0,0,0,0,0,0,right,immediate
5,24,male,Greek,4,294,loss,5,right,8,95,449,213,578,120,space,j,space,f,k,0,0,0,0,0,0,0,0,left,immediate
5,24,male,Greek,4,295,neutral,10,left,5,326,528,39,470,119,space,f,space,j,k,0,0,0,0,0,0,0,0,right,immediate
5,24,male,Greek,4,296,win,5,right,9,58,641,153,495,82,space,f,space,f,k,0,0,0,0,0,0,0,0,left,immediate
5,24,male,Greek,4,297,neutral,10,left,8,269,446,160,421,78,space,j,space,j,k,0,0,0,0,0,0,0,0,right,immediate
5,24,male,Greek,4,298,neutral,5,left,7,251,416,149,423,73,space,j,space,j,k,0,0,0,0,0,0,0,0,right,immediate
5,24,male,Greek,4,299,neutral,5,left,15,243,707,155,394,104,space,j,space,j,k,0,0,0,0,0,0,0,0,right,immediate
5,24,male,Greek,4,300,loss,5,right,16,47,783,443,646,114,space,f,space,f,k,0,0,0,0,0,0,0,0,left,immediate
5,24,male,Greek,4,301,win,5,left,16,308,425,1061,555,125,space,j,space,j,k,0,0,0,0,0,0,0,0,right,immediate
5,24,male,Greek,4,302,win,5,left,8,457,487,276,408,91,space,j,space,j,k,0,0,0,0,0,0,0,0,right,immediate
5,24,male,Greek,4,303,win,5,left,6,29,618,137,415,95,space,f,space,j,k,0,0,0,0,0,0,0,0,right,immediate
5,24,male,Greek,4,304,neutral,5,left,2,216,374,19,437,127,space,j,space,j,k,0,0,0,0,0,0,0,0,right,immediate
5,24,male,Greek,4,305,loss,5,left,4,326,388,201,440,761,space,j,space,j,k,0,0,0,0,0,0,0,0,right,immediate
5,24,male,Greek,4,306,loss,5,left,5,221,450,425,270,126,space,f,space,j,k,0,0,0,0,0,0,0,0,right,immediate
5,24,male,Greek,4,307,neutral,5,left,8,253,357,367,462,81,space,j,space,j,k,0,0,0,0,0,0,0,0,right,immediate
5,24,male,Greek,4,308,loss,5,right,3,305,363,82,451,212,space,j,space,f,k,0,0,0,0,0,0,0,0,left,immediate
5,24,male,Greek,4,309,win,10,left,3,108,532,141,466,101,space,j,space,j,k,0,0,0,0,0,0,0,0,right,immediate
5,24,male,Greek,4,310,loss,5,right,12,391,483,101,494,105,space,f,space,f,k,0,0,0,0,0,0,0,0,left,immediate
5,24,male,Greek,4,311,neutral,10,right,1,353,569,120,576,78,space,f,space,f,k,0,0,0,0,0,0,0,0,left,immediate
5,24,male,Greek,4,312,loss,10,right,2,112,472,267,526,62,space,f,space,f,k,0,0,0,0,0,0,0,0,left,immediate
5,24,male,Greek,4,313,neutral,5,right,12,125,412,337,579,39,space,j,space,f,k,0,0,0,0,0,0,0,0,left,immediate
5,24,male,Greek,4,314,win,5,left,5,138,520,20,465,97,space,f,space,j,k,0,0,0,0,0,0,0,0,right,immediate
5,24,male,Greek,4,315,neutral,5,right,4,204,590,267,484,71,space,j,space,f,k,0,0,0,0,0,0,0,0,left,immediate
5,24,male,Greek,4,316,loss,5,left,11,68,530,105,456,70,space,f,space,j,k,0,0,0,0,0,0,0,0,right,immediate
5,24,male,Greek,4,317,loss,5,left,9,292,436,27,464,51,space,f,space,j,k,0,0,0,0,0,0,0,0,right,immediate
5,24,male,Greek,4,318,neutral,5,left,10,535,509,71,428,63,space,f,space,j,k,0,0,0,0,0,0,0,0,right,immediate
5,24,male,Greek,4,319,neutral,10,left,2,326,691,277,417,63,space,f,space,j,k,0,0,0,0,0,0,0,0,right,immediate
5,24,male,Greek,4,320,win,5,right,12,384,448,191,548,75,space,f,space,f,k,0,0,0,0,0,0,0,0,left,immediate
5,24,male,Greek,4,321,loss,10,right,3,78,462,619,544,52,space,f,space,f,k,0,0,0,0,0,0,0,0,left,immediate
5,24,male,Greek,4,322,loss,10,right,7,324,462,422,443,86,space,j,space,f,k,0,0,0,0,0,0,0,0,left,immediate
5,24,male,Greek,4,323,win,10,right,8,128,488,329,457,83,space,j,space,f,k,0,0,0,0,0,0,0,0,left,immediate
5,24,male,Greek,4,324,neutral,10,left,4,140,489,371,481,86,space,f,space,j,k,0,0,0,0,0,0,0,0,right,immediate
5,24,male,Greek,4,325,win,5,right,15,372,441,111,516,151,space,f,space,f,k,0,0,0,0,0,0,0,0,left,immediate
5,24,male,Greek,4,326,loss,5,left,14,294,517,180,468,89,space,j,space,j,k,0,0,0,0,0,0,0,0,right,immediate
5,24,male,Greek,4,327,loss,5,right,6,3,454,55,548,49,space,f,space,f,k,0,0,0,0,0,0,0,0,left,immediate
5,24,male,Greek,4,328,loss,10,right,8,376,280,208,509,78,space,j,space,f,k,0,0,0,0,0,0,0,0,left,immediate
5,24,male,Greek,4,329,win,10,left,2,224,328,419,511,87,space,f,space,j,k,0,0,0,0,0,0,0,0,right,immediate
5,24,male,Greek,4,330,win,5,right,2,461,438,399,503,78,space,f,space,f,k,0,0,0,0,0,0,0,0,left,immediate
5,24,male,Greek,4,331,win,5,left,4,577,466,107,437,68,space,j,space,j,k,0,0,0,0,0,0,0,0,right,immediate
5,24,male,Greek,4,332,loss,5,left,15,299,528,139,478,81,space,j,space,j,k,0,0,0,0,0,0,0,0,right,immediate
5,24,male,Greek,4,333,win,10,right,7,279,541,440,458,95,space,f,space,f,k,0,0,0,0,0,0,0,0,left,immediate
5,24,male,Greek,4,334,neutral,5,left,3,429,548,322,446,99,space,j,space,j,k,0,0,0,0,0,0,0,0,right,immediate
5,24,male,Greek,4,335,win,5,left,13,110,472,335,421,68,space,f,space,j,k,0,0,0,0,0,0,0,0,right,immediate
5,24,male,Greek,4,336,win,10,left,6,95,608,456,330,85,space,f,space,j,k,0,0,0,0,0,0,0,0,right,immediate
5,24,male,Greek,4,337,loss,5,left,13,94,575,523,483,88,space,j,space,j,k,0,0,0,0,0,0,0,0,right,immediate
5,24,male,Greek,4,338,win,5,right,10,306,479,356,464,486,space,f,space,j,k,0,0,0,0,0,0,0,0,right,delay
5,24,male,Greek,4,339,neutral,5,left,11,230,1553,522,554,104,space,j,space,j,k,0,0,0,0,0,0,0,0,right,immediate
5,24,male,Greek,4,340,win,5,left,11,2024,934,3692,1031,95,space,f,space,j,k,0,0,0,0,0,0,0,0,right,immediate
5,24,male,Greek,4,341,loss,10,left,1,1332,547,476,556,8,space,f,space,j,k,0,0,0,0,0,0,0,0,right,immediate
5,24,male,Greek,4,342,win,10,left,4,456,507,130,445,113,space,f,space,j,k,0,0,0,0,0,0,0,0,right,immediate
5,24,male,Greek,4,343,loss,10,right,4,321,483,14,490,162,space,f,space,f,k,0,0,0,0,0,0,0,0,left,immediate
5,24,male,Greek,4,344,neutral,10,right,7,304,385,59,801,159,space,f,space,f,k,0,0,0,0,0,0,0,0,left,immediate
5,24,male,Greek,4,345,neutral,10,left,3,350,620,91,459,96,space,j,space,j,k,0,0,0,0,0,0,0,0,right,immediate
5,24,male,Greek,4,346,neutral,5,left,1,140,434,123,431,77,space,j,space,j,k,0,0,0,0,0,0,0,0,right,immediate
5,24,male,Greek,4,347,loss,10,right,6,351,427,133,530,92,space,j,space,f,k,0,0,0,0,0,0,0,0,left,immediate
5,24,male,Greek,4,348,loss,10,right,5,368,395,183,517,32,space,f,space,f,k,0,0,0,0,0,0,0,0,left,immediate
5,24,male,Greek,4,349,win,5,left,1,745,495,366,445,81,space,j,space,j,k,0,0,0,0,0,0,0,0,right,immediate
5,24,male,Greek,4,350,neutral,5,right,9,190,467,167,546,58,space,f,space,f,k,0,0,0,0,0,0,0,0,left,immediate
5,24,male,Greek,4,351,neutral,5,left,6,267,465,704,484,85,space,j,space,j,k,0,0,0,0,0,0,0,0,right,immediate
5,24,male,Greek,4,352,neutral,5,left,13,122,502,334,469,80,space,f,space,j,k,0,0,0,0,0,0,0,0,right,immediate
5,24,male,Greek,4,353,win,5,left,3,260,561,132,475,101,space,f,space,j,k,0,0,0,0,0,0,0,0,right,immediate
5,24,male,Greek,4,354,loss,5,left,10,21,553,369,479,95,space,f,space,j,k,0,0,0,0,0,0,0,0,right,immediate
5,24,male,Greek,4,355,neutral,5,left,16,86,501,272,440,105,space,f,space,j,k,0,0,0,0,0,0,0,0,right,immediate
5,24,male,Greek,4,356,loss,5,left,7,134,508,182,465,111,space,f,space,j,k,0,0,0,0,0,0,0,0,right,immediate
5,24,male,Greek,4,357,neutral,10,right,6,332,442,16,480,109,space,j,space,f,k,0,0,0,0,0,0,0,0,left,immediate
5,24,male,Greek,4,358,win,5,left,14,285,515,464,435,105,space,j,space,j,k,0,0,0,0,0,0,0,0,right,immediate
5,24,male,Greek,4,359,win,5,left,7,25,480,110,432,92,space,f,space,j,k,0,0,0,0,0,0,0,0,right,immediate
5,24,male,Greek,4,360,win,10,right,1,311,434,56,589,49,space,f,space,f,k,0,0,0,0,0,0,0,0,left,immediate
5,24,male,Greek,4,361,win,10,right,3,285,466,307,450,53,space,j,space,f,k,0,0,0,0,0,0,0,0,left,immediate
5,24,male,Greek,4,362,win,5,left,16,526,333,194,549,92,space,f,space,j,k,0,0,0,0,0,0,0,0,right,immediate
5,24,male,Greek,4,363,neutral,5,right,12,359,473,133,582,54,space,j,space,f,k,0,0,0,0,0,0,0,0,left,immediate
5,24,male,Greek,4,364,loss,5,left,2,332,393,47,456,92,space,f,space,j,k,0,0,0,0,0,0,0,0,right,immediate
5,24,male,Greek,4,365,win,5,left,10,172,539,79,470,95,space,f,space,j,k,0,0,0,0,0,0,0,0,right,immediate
5,24,male,Greek,4,366,loss,10,right,4,323,363,140,524,29,space,j,space,f,k,0,0,0,0,0,0,0,0,left,immediate
5,24,male,Greek,4,367,loss,5,right,14,174,435,370,620,73,space,f,space,f,k,0,0,0,0,0,0,0,0,left,immediate
5,24,male,Greek,4,368,neutral,5,right,14,259,435,384,449,45,space,j,space,f,k,0,0,0,0,0,0,0,0,left,immediate
5,24,male,Greek,4,369,loss,5,right,10,145,537,282,487,58,space,f,space,f,k,0,0,0,0,0,0,0,0,left,immediate
5,24,male,Greek,4,370,win,5,left,1,368,358,310,446,123,space,j,space,j,k,0,0,0,0,0,0,0,0,right,immediate
5,24,male,Greek,4,371,neutral,5,right,5,213,486,116,483,41,space,f,space,f,k,0,0,0,0,0,0,0,0,left,immediate
5,24,male,Greek,4,372,neutral,5,right,10,285,640,19,484,44,space,j,space,f,k,0,0,0,0,0,0,0,0,left,immediate
5,24,male,Greek,4,373,win,10,right,1,362,382,396,455,48,space,f,space,f,k,0,0,0,0,0,0,0,0,left,immediate
5,24,male,Greek,4,374,neutral,5,right,2,295,480,376,431,97,space,j,space,f,k,0,0,0,0,0,0,0,0,left,immediate
5,24,male,Greek,4,375,neutral,10,right,5,331,384,324,445,35,space,f,space,f,k,0,0,0,0,0,0,0,0,left,immediate
5,24,male,Greek,4,376,neutral,5,right,8,397,431,9,580,81,space,f,space,f,k,0,0,0,0,0,0,0,0,left,immediate
5,24,male,Greek,4,377,win,5,left,3,364,510,427,560,346,space,f,space,j,k,0,0,0,0,0,0,0,0,right,immediate
5,24,male,Greek,4,378,loss,10,right,1,303,647,282,461,80,space,f,space,f,k,0,0,0,0,0,0,0,0,left,immediate
5,24,male,Greek,4,379,win,10,right,5,282,482,143,566,66,space,f,space,f,k,0,0,0,0,0,0,0,0,left,immediate
5,24,male,Greek,4,380,neutral,5,right,9,459,525,397,664,62,space,f,space,f,k,0,0,0,0,0,0,0,0,left,immediate
5,24,male,Greek,4,381,neutral,5,right,11,322,510,384,530,60,space,j,space,f,k,0,0,0,0,0,0,0,0,left,immediate
5,24,male,Greek,4,382,win,10,left,7,231,520,431,481,128,space,f,space,j,k,0,0,0,0,0,0,0,0,right,immediate
5,24,male,Greek,4,383,win,5,left,9,320,469,90,471,100,space,f,space,j,k,0,0,0,0,0,0,0,0,right,immediate
5,24,male,Greek,4,384,neutral,5,left,6,245,586,36,448,88,space,j,space,j,k,0,0,0,0,0,0,0,0,right,immediate
5,24,male,Greek,4,385,loss,5,right,4,294,473,30,496,75,space,f,space,f,k,0,0,0,0,0,0,0,0,left,immediate
5,24,male,Greek,4,386,neutral,10,right,6,328,457,760,536,46,space,f,space,f,k,0,0,0,0,0,0,0,0,left,immediate
5,24,male,Greek,4,387,win,10,right,2,20,438,219,530,29,space,f,space,f,k,0,0,0,0,0,0,0,0,left,immediate
5,24,male,Greek,4,388,loss,10,right,2,316,525,188,455,64,space,j,space,f,k,0,0,0,0,0,0,0,0,left,immediate
5,24,male,Greek,4,389,win,5,left,8,340,363,327,384,56,space,f,space,j,k,0,0,0,0,0,0,0,0,right,immediate
5,24,male,Greek,4,390,win,10,right,8,88,486,207,474,36,space,f,space,f,k,0,0,0,0,0,0,0,0,left,immediate
5,24,male,Greek,4,391,win,5,right,13,361,417,308,484,71,space,f,space,f,k,0,0,0,0,0,0,0,0,left,immediate
5,24,male,Greek,4,392,loss,5,right,9,368,467,201,620,25,space,f,space,f,k,0,0,0,0,0,0,0,0,left,immediate
5,24,male,Greek,4,393,neutral,5,right,15,266,497,888,576,819,space,j,space,j,k,0,0,0,0,0,0,0,0,right,delay
5,24,male,Greek,4,394,neutral,10,left,7,342,518,443,890,87,space,f,space,j,k,0,0,0,0,0,0,0,0,right,immediate
5,24,male,Greek,5,395,loss,5,right,15,724,561,361,545,76,space,f,space,f,k,0,0,0,0,0,0,0,0,left,immediate
5,24,male,Greek,5,396,win,5,right,5,286,746,9,595,91,space,j,space,f,k,0,0,0,0,0,0,0,0,left,immediate
5,24,male,Greek,5,397,neutral,10,right,8,878,608,105,542,109,space,f,space,f,k,0,0,0,0,0,0,0,0,left,immediate
5,24,male,Greek,5,398,neutral,5,left,13,233,514,878,442,91,space,j,space,j,k,0,0,0,0,0,0,0,0,right,immediate
5,24,male,Greek,5,399,loss,5,left,16,235,542,356,414,66,space,j,space,j,k,0,0,0,0,0,0,0,0,right,immediate
5,24,male,Greek,5,400,win,5,right,2,218,339,75,464,84,space,f,space,f,k,0,0,0,0,0,0,0,0,left,immediate
5,24,male,Greek,5,401,loss,5,right,3,288,420,29,468,78,space,j,space,f,k,0,0,0,0,0,0,0,0,left,immediate
5,24,male,Greek,5,402,win,5,right,14,254,455,140,487,58,space,f,space,f,k,0,0,0,0,0,0,0,0,left,immediate
5,24,male,Greek,5,403,neutral,5,right,4,228,453,41,425,31,space,f,space,f,k,0,0,0,0,0,0,0,0,left,immediate
5,24,male,Greek,5,404,neutral,5,left,16,300,452,455,427,113,space,j,space,j,k,0,0,0,0,0,0,0,0,right,immediate
5,24,male,Greek,5,405,loss,10,right,8,224,477,9,498,46,space,f,space,f,k,0,0,0,0,0,0,0,0,left,immediate
5,24,male,Greek,5,406,win,5,left,15,300,442,75,430,72,space,j,space,j,k,0,0,0,0,0,0,0,0,right,immediate
5,24,male,Greek,5,407,loss,5,right,7,234,529,76,453,58,space,f,space,f,k,0,0,0,0,0,0,0,0,left,immediate
5,24,male,Greek,5,408,loss,10,left,6,253,419,232,128,1457,space,j,space,j,k,0,0,0,0,0,0,0,0,right,immediate
5,24,male,Greek,5,409,win,10,right,4,83,418,442,531,58,space,j,space,f,k,0,0,0,0,0,0,0,0,left,immediate
5,24,male,Greek,5,410,win,5,left,4,355,464,499,449,61,space,j,space,j,k,0,0,0,0,0,0,0,0,right,immediate
5,24,male,Greek,5,411,neutral,10,left,4,384,424,14,468,65,space,j,space,j,k,0,0,0,0,0,0,0,0,right,immediate
5,24,male,Greek,5,412,loss,10,right,7,467,480,418,434,54,space,j,space,f,k,0,0,0,0,0,0,0,0,left,immediate
5,24,male,Greek,5,413,loss,5,right,5,415,532,412,494,51,space,j,space,f,k,0,0,0,0,0,0,0,0,left,immediate
5,24,male,Greek,5,414,neutral,5,left,1,343,469,152,470,67,space,j,space,j,k,0,0,0,0,0,0,0,0,right,immediate
5,24,male,Greek,5,415,neutral,5,right,3,474,461,273,430,55,space,f,space,f,k,0,0,0,0,0,0,0,0,left,immediate
5,24,male,Greek,5,416,loss,10,right,5,439,419,207,438,35,space,f,space,f,k,0,0,0,0,0,0,0,0,left,immediate
5,24,male,Greek,5,417,loss,10,left,3,316,463,116,464,62,space,j,space,j,k,0,0,0,0,0,0,0,0,right,immediate
5,24,male,Greek,5,418,loss,5,right,8,285,47,167,552,21,space,j,space,f,k,0,0,0,0,0,0,0,0,left,immediate
5,24,male,Greek,5,419,loss,5,left,12,409,477,14,492,407,space,j,space,j,k,0,0,0,0,0,0,0,0,right,immediate
5,24,male,Greek,5,420,neutral,10,left,1,512,475,312,537,95,space,j,space,j,k,0,0,0,0,0,0,0,0,right,immediate
5,24,male,Greek,5,421,win,5,left,7,1120,482,1077,482,63,space,j,space,j,k,0,0,0,0,0,0,0,0,right,immediate
5,24,male,Greek,5,422,neutral,5,right,7,620,469,242,441,56,space,j,space,f,k,0,0,0,0,0,0,0,0,left,immediate
5,24,male,Greek,5,423,loss,5,right,1,198,486,47,514,82,space,j,space,f,k,0,0,0,0,0,0,0,0,left,immediate
5,24,male,Greek,5,424,win,5,right,12,155,232,75,475,34,space,f,space,f,k,0,0,0,0,0,0,0,0,left,immediate
5,24,male,Greek,5,425,neutral,10,right,2,336,433,178,458,59,space,j,space,f,k,0,0,0,0,0,0,0,0,left,immediate
5,24,male,Greek,5,426,neutral,10,left,3,86,483,386,404,75,space,f,space,j,k,0,0,0,0,0,0,0,0,right,immediate
5,24,male,Greek,5,427,loss,5,left,11,228,754,203,465,79,space,f,space,j,k,0,0,0,0,0,0,0,0,right,immediate
5,24,male,Greek,5,428,win,5,left,6,241,502,470,405,49,space,j,space,j,k,0,0,0,0,0,0,0,0,right,immediate
5,24,male,Greek,5,429,win,10,left,6,342,532,319,337,87,space,j,space,j,k,0,0,0,0,0,0,0,0,right,immediate
5,24,male,Greek,5,430,loss,5,right,13,372,426,361,422,76,space,j,space,f,k,0,0,0,0,0,0,0,0,left,immediate
5,24,male,Greek,5,431,win,5,right,11,426,793,155,513,53,space,j,space,f,k,0,0,0,0,0,0,0,0,left,immediate
5,24,male,Greek,5,432,loss,5,right,6,61,313,133,471,24,space,j,space,f,k,0,0,0,0,0,0,0,0,left,immediate
5,24,male,Greek,5,433,loss,5,right,11,343,759,316,506,54,space,j,space,f,k,0,0,0,0,0,0,0,0,left,immediate
5,24,male,Greek,5,434,win,10,left,8,399,415,68,507,137,space,f,space,j,k,0,0,0,0,0,0,0,0,right,immediate
5,24,male,Greek,5,435,win,10,left,3,552,474,292,405,66,space,f,space,j,k,0,0,0,0,0,0,0,0,right,immediate
5,24,male,Greek,5,436,neutral,10,right,2,93,426,436,405,79,space,j,space,f,k,0,0,0,0,0,0,0,0,left,immediate
5,24,male,Greek,5,437,loss,10,left,8,71,434,442,504,91,space,j,space,j,k,0,0,0,0,0,0,0,0,right,immediate
5,24,male,Greek,5,438,neutral,5,right,4,337,661,950,323,490,space,f,space,f,k,0,0,0,0,0,0,0,0,left,immediate
5,24,male,Greek,5,439,neutral,10,left,8,358,465,305,424,113,space,f,space,j,k,0,0,0,0,0,0,0,0,right,immediate
5,24,male,Greek,5,440,win,5,right,8,490,522,344,551,67,space,j,space,f,k,0,0,0,0,0,0,0,0,left,immediate
5,24,male,Greek,5,441,win,5,right,16,402,582,379,492,70,space,f,space,f,k,0,0,0,0,0,0,0,0,left,immediate
5,24,male,Greek,5,442,neutral,10,right,3,564,400,429,502,101,space,j,space,f,k,0,0,0,0,0,0,0,0,left,immediate
5,24,male,Greek,5,443,loss,5,right,12,292,439,338,372,81,space,j,space,f,k,0,0,0,0,0,0,0,0,left,immediate
5,24,male,Greek,5,444,win,5,left,12,379,502,363,471,69,space,j,space,j,k,0,0,0,0,0,0,0,0,right,immediate
5,24,male,Greek,5,445,neutral,5,right,10,188,413,307,436,56,space,j,space,f,k,0,0,0,0,0,0,0,0,left,immediate
5,24,male,Greek,5,446,loss,5,left,14,161,483,103,449,71,space,j,space,j,k,0,0,0,0,0,0,0,0,right,immediate
5,24,male,Greek,5,447,neutral,5,left,3,204,491,374,409,98,space,f,space,j,k,0,0,0,0,0,0,0,0,right,immediate
5,24,male,Greek,5,448,loss,10,left,6,255,437,565,451,27,space,f,space,j,k,0,0,0,0,0,0,0,0,right,immediate
5,24,male,Greek,5,449,neutral,5,left,13,289,379,105,430,40,space,f,space,j,k,0,0,0,0,0,0,0,0,right,immediate
5,24,male,Greek,5,450,loss,5,right,1,207,462,309,408,71,space,f,space,f,k,0,0,0,0,0,0,0,0,left,immediate
5,24,male,Greek,5,451,win,5,right,13,1093,372,217,560,15,space,f,space,f,k,0,0,0,0,0,0,0,0,left,immediate
5,24,male,Greek,5,452,neutral,10,right,1,264,410,57,509,98,space,f,space,f,k,0,0,0,0,0,0,0,0,left,immediate
5,24,male,Greek,5,453,loss,10,right,2,152,479,235,444,88,space,f,space,f,k,0,0,0,0,0,0,0,0,left,immediate
5,24,male,Greek,5,454,loss,10,left,5,81,505,180,427,108,space,j,space,j,k,0,0,0,0,0,0,0,0,right,immediate
5,24,male,Greek,5,455,win,5,right,1,24,482,3,521,78,space,f,space,f,k,0,0,0,0,0,0,0,0,left,immediate
5,24,male,Greek,5,456,loss,5,left,7,244,511,11,280,407,space,f,space,j,k,0,0,0,0,0,0,0,0,right,immediate
5,24,male,Greek,5,457,loss,10,right,4,186,441,337,503,58,space,f,space,f,k,0,0,0,0,0,0,0,0,left,immediate
5,24,male,Greek,5,458,loss,5,right,2,109,480,224,459,68,space,f,space,f,k,0,0,0,0,0,0,0,0,left,immediate
5,24,male,Greek,5,459,loss,5,left,6,126,706,141,477,110,space,j,space,j,k,0,0,0,0,0,0,0,0,right,immediate
5,24,male,Greek,5,460,loss,5,right,15,260,451,35,593,62,space,f,space,f,k,0,0,0,0,0,0,0,0,left,immediate
5,24,male,Greek,5,461,loss,5,right,16,208,409,386,439,65,space,f,space,f,k,0,0,0,0,0,0,0,0,left,immediate
5,24,male,Greek,5,462,win,5,right,2,222,439,451,521,81,space,f,space,f,k,0,0,0,0,0,0,0,0,left,immediate
5,24,male,Greek,5,463,neutral,10,right,7,367,401,247,454,123,space,f,space,f,k,0,0,0,0,0,0,0,0,left,immediate
5,24,male,Greek,5,464,neutral,5,left,6,236,1060,267,462,112,space,j,space,j,k,0,0,0,0,0,0,0,0,right,immediate
5,24,male,Greek,5,465,win,5,left,7,341,481,118,486,81,space,f,space,j,k,0,0,0,0,0,0,0,0,right,immediate
5,24,male,Greek,5,466,win,5,right,4,331,579,340,629,55,space,f,space,f,k,0,0,0,0,0,0,0,0,left,immediate
5,24,male,Greek,5,467,win,5,right,11,304,446,116,546,68,space,j,space,f,k,0,0,0,0,0,0,0,0,left,immediate
5,24,male,Greek,5,468,neutral,5,left,2,215,465,350,472,102,space,f,space,j,k,0,0,0,0,0,0,0,0,right,immediate
5,24,male,Greek,5,469,neutral,5,left,11,151,479,146,950,97,space,j,space,j,k,0,0,0,0,0,0,0,0,right,immediate
5,24,male,Greek,5,470,loss,5,right,5,254,488,0,647,34,space,f,space,f,k,0,0,0,0,0,0,0,0,left,immediate
5,24,male,Greek,5,471,win,10,left,7,238,486,299,428,86,space,j,space,j,k,0,0,0,0,0,0,0,0,right,immediate
5,24,male,Greek,5,472,loss,10,right,7,330,426,103,511,65,space,j,space,f,k,0,0,0,0,0,0,0,0,left,immediate
5,24,male,Greek,5,473,loss,5,left,13,60,523,354,450,97,space,j,space,j,k,0,0,0,0,0,0,0,0,right,immediate
5,24,male,Greek,5,474,win,10,right,6,373,345,64,482,95,space,j,space,f,k,0,0,0,0,0,0,0,0,left,immediate
5,24,male,Greek,5,475,neutral,5,right,8,399,697,103,495,51,space,f,space,f,k,0,0,0,0,0,0,0,0,left,immediate
5,24,male,Greek,5,476,neutral,10,left,4,368,517,41,704,93,space,j,space,j,k,0,0,0,0,0,0,0,0,right,immediate
5,24,male,Greek,5,477,win,5,left,9,148,445,384,423,86,space,j,space,j,k,0,0,0,0,0,0,0,0,right,immediate
5,24,male,Greek,5,478,win,10,left,1,75,475,323,484,95,space,j,space,j,k,0,0,0,0,0,0,0,0,right,immediate
5,24,male,Greek,5,479,neutral,5,right,9,367,542,353,702,83,space,j,space,f,k,0,0,0,0,0,0,0,0,left,immediate
5,24,male,Greek,5,480,loss,5,left,4,543,395,290,360,71,space,f,space,j,k,0,0,0,0,0,0,0,0,right,immediate
5,24,male,Greek,5,481,neutral,10,left,6,299,488,39,1008,92,space,f,space,j,k,0,0,0,0,0,0,0,0,right,immediate
5,24,male,Greek,5,482,loss,10,left,3,259,509,196,443,72,space,f,space,j,k,0,0,0,0,0,0,0,0,right,immediate
5,24,male,Greek,5,483,win,5,right,5,335,597,276,540,36,space,f,space,f,k,0,0,0,0,0,0,0,0,left,immediate
5,24,male,Greek,5,484,win,5,left,15,306,512,216,422,74,space,f,space,j,k,0,0,0,0,0,0,0,0,right,immediate
5,24,male,Greek,5,485,neutral,10,right,5,273,483,340,592,73,space,f,space,f,k,0,0,0,0,0,0,0,0,left,immediate
5,24,male,Greek,5,486,neutral,5,right,7,66,497,273,505,75,space,j,space,f,k,0,0,0,0,0,0,0,0,left,immediate
5,24,male,Greek,5,487,win,10,right,4,287,420,174,492,49,space,f,space,f,k,0,0,0,0,0,0,0,0,left,immediate
5,24,male,Greek,5,488,neutral,5,left,16,19,577,415,515,547,space,f,space,j,k,0,0,0,0,0,0,0,0,right,immediate
5,24,male,Greek,5,489,loss,5,left,3,96,558,141,525,107,space,j,space,j,k,0,0,0,0,0,0,0,0,right,immediate
5,24,male,Greek,5,490,neutral,5,right,5,352,411,263,520,58,space,f,space,f,k,0,0,0,0,0,0,0,0,left,immediate
5,24,male,Greek,5,491,neutral,5,right,14,333,437,380,444,55,space,f,space,f,k,0,0,0,0,0,0,0,0,left,immediate
5,24,male,Greek,5,492,win,10,right,5,4,577,335,463,69,space,f,space,f,k,0,0,0,0,0,0,0,0,left,immediate
5,24,male,Greek,5,493,win,5,right,14,139,495,413,461,80,space,f,space,f,k,0,0,0,0,0,0,0,0,left,immediate
5,24,male,Greek,5,494,loss,5,right,8,237,464,432,421,68,space,j,space,f,k,0,0,0,0,0,0,0,0,left,immediate
5,24,male,Greek,5,495,neutral,5,left,12,116,541,217,702,86,space,f,space,j,k,0,0,0,0,0,0,0,0,right,immediate
5,24,male,Greek,5,496,win,10,left,2,159,479,169,484,102,space,j,space,j,k,0,0,0,0,0,0,0,0,right,immediate
5,24,male,Greek,5,497,neutral,5,right,1,311,395,73,495,78,space,f,space,f,k,0,0,0,0,0,0,0,0,left,immediate
5,24,male,Greek,5,498,win,5,right,10,279,497,356,675,58,space,f,space,f,k,0,0,0,0,0,0,0,0,left,immediate
5,24,male,Greek,5,499,neutral,5,right,15,280,475,313,419,90,space,j,space,f,k,0,0,0,0,0,0,0,0,left,immediate
5,24,male,Greek,5,500,win,5,left,3,347,510,232,470,84,space,f,space,j,k,0,0,0,0,0,0,0,0,right,immediate
5,24,male,Greek,5,501,win,5,right,6,153,319,28,522,65,space,j,space,f,k,0,0,0,0,0,0,0,0,left,immediate
5,24,male,Greek,5,502,loss,10,left,1,458,424,47,491,81,space,f,space,j,k,0,0,0,0,0,0,0,0,right,immediate
5,24,male,Greek,5,503,loss,5,left,9,359,451,419,418,101,space,f,space,j,k,0,0,0,0,0,0,0,0,right,immediate
5,24,male,Greek,5,504,loss,5,left,10,355,503,331,421,97,space,j,space,j,k,0,0,0,0,0,0,0,0,right,immediate
5,24,male,Greek,5,505,neutral,5,left,2,279,365,17,490,79,space,f,space,j,k,0,0,0,0,0,0,0,0,right,immediate
5,24,male,Greek,5,506,neutral,5,right,3,331,451,351,588,84,space,f,space,f,k,0,0,0,0,0,0,0,0,left,immediate
5,24,male,Greek,5,507,loss,5,left,5,310,526,116,467,107,space,f,space,j,k,0,0,0,0,0,0,0,0,right,immediate
5,24,male,Greek,5,508,neutral,5,right,11,152,416,395,544,75,space,j,space,f,k,0,0,0,0,0,0,0,0,left,immediate
5,24,male,Greek,5,509,neutral,10,right,5,303,0,NA,NA,NA,space,undefined,NA,NA,NA,0,0,NA,NA,NA,NA,NA,NA,NA,NA
5,24,male,Greek,6,510,loss,5,left,6,353,548,115,411,81,space,j,space,j,k,0,0,0,0,0,0,0,0,right,immediate
5,24,male,Greek,6,511,neutral,5,right,16,257,276,367,526,75,space,f,space,f,k,0,0,0,0,0,0,0,0,left,immediate
5,24,male,Greek,6,512,loss,5,right,4,309,450,250,458,66,space,j,space,f,k,0,0,0,0,0,0,0,0,left,immediate
5,24,male,Greek,6,513,win,10,left,3,336,455,300,435,118,space,f,space,j,k,0,0,0,0,0,0,0,0,right,immediate
5,24,male,Greek,6,514,neutral,5,right,6,276,333,340,532,65,space,f,space,f,k,0,0,0,0,0,0,0,0,left,immediate
5,24,male,Greek,6,515,neutral,5,left,13,10,653,52,438,82,space,j,space,j,k,0,0,0,0,0,0,0,0,right,immediate
5,24,male,Greek,6,516,win,5,right,8,371,354,144,499,72,space,f,space,f,k,0,0,0,0,0,0,0,0,left,immediate
5,24,male,Greek,6,517,win,10,left,5,270,349,15,401,107,space,f,space,j,k,0,0,0,0,0,0,0,0,right,immediate
5,24,male,Greek,6,518,neutral,10,left,7,196,450,57,562,621,space,f,space,f,k,0,0,0,0,0,0,0,0,left,delay
5,24,male,Greek,6,519,neutral,10,right,4,552,370,460,744,62,space,f,space,f,k,0,0,0,0,0,0,0,0,left,immediate
5,24,male,Greek,6,520,loss,10,right,3,323,492,17,497,67,space,j,space,f,k,0,0,0,0,0,0,0,0,left,immediate
5,24,male,Greek,6,521,win,5,right,4,907,391,331,490,15,space,f,space,f,k,0,0,0,0,0,0,0,0,left,immediate
5,24,male,Greek,6,522,win,5,left,12,383,483,377,495,101,space,j,space,j,k,0,0,0,0,0,0,0,0,right,immediate
5,24,male,Greek,6,523,win,10,right,6,252,325,151,361,259,space,f,space,j,k,0,0,0,0,0,0,0,0,right,delay
5,24,male,Greek,6,524,win,10,left,2,184,424,394,502,86,space,f,space,j,k,0,0,0,0,0,0,0,0,right,immediate
5,24,male,Greek,6,525,win,5,left,14,398,347,276,471,94,space,j,space,j,k,0,0,0,0,0,0,0,0,right,immediate
5,24,male,Greek,6,526,neutral,10,right,3,332,423,454,599,158,space,f,space,f,k,0,0,0,0,0,0,0,0,left,immediate
5,24,male,Greek,6,527,loss,5,left,14,317,435,230,467,120,space,f,space,j,k,0,0,0,0,0,0,0,0,right,immediate
5,24,male,Greek,6,528,loss,10,right,8,199,447,234,451,82,space,f,space,f,k,0,0,0,0,0,0,0,0,left,immediate
5,24,male,Greek,6,529,loss,10,left,2,331,490,117,470,81,space,j,space,j,k,0,0,0,0,0,0,0,0,right,immediate
5,24,male,Greek,6,530,neutral,5,right,15,40,483,160,414,77,space,j,space,f,k,0,0,0,0,0,0,0,0,left,immediate
5,24,male,Greek,6,531,neutral,5,right,4,243,438,89,532,41,space,f,space,f,k,0,0,0,0,0,0,0,0,left,immediate
5,24,male,Greek,6,532,neutral,5,right,14,375,423,164,599,37,space,f,space,f,k,0,0,0,0,0,0,0,0,left,immediate
5,24,male,Greek,6,533,neutral,5,left,9,327,422,167,499,87,space,f,space,j,k,0,0,0,0,0,0,0,0,right,immediate
5,24,male,Greek,6,534,loss,5,right,15,531,455,92,542,62,space,f,space,f,k,0,0,0,0,0,0,0,0,left,immediate
