subjectID,age,gender,nationality,block_number,trial_number,trial_type,guess_outcome,delay_time,delay_pos,immediate_amount,stage,respRT,respKey,blur_count,focus_count,total_points,remaining_duration,time_elapsed
1,24,female,Belg,1,1,guess,neutral,30,left,7,guess_start,1585,space,0,0,0,478412,181604
1,24,female,Belg,1,1,guess,neutral,30,left,7,guess_choice,1709,f,0,0,0,476695,183321
1,24,female,Belg,1,1,guess,neutral,30,left,7,guess_outcome,0,undefined,0,0,0,475135,184881
1,24,female,Belg,1,1,ITC,neutral,30,left,7,ITC_start,1796,space,0,0,0,473336,186680
1,24,female,Belg,1,1,ITC,neutral,30,left,7,ITC_choice,1323,j,0,0,0,472011,188005
1,24,female,Belg,1,1,ITC,neutral,30,left,7,ITC_wait,0,undefined,0,0,0,472006,188010
1,24,female,Belg,1,1,ITC,neutral,30,left,7,ITC_collect,1314,k,0,0,0,470691,189325
1,24,female,Belg,1,1,ITC,neutral,30,left,7,ITC_outcome,0,undefined,0,0,7,469685,190331
1,24,female,Belg,1,2,guess,neutral,30,right,8,guess_start,1106,space,0,0,7,468575,191441
1,24,female,Belg,1,2,guess,neutral,30,right,8,guess_choice,1799,f,0,0,7,466770,193246
1,24,female,Belg,1,2,guess,neutral,30,right,8,guess_outcome,0,undefined,0,0,7,465213,194803
1,24,female,Belg,1,2,ITC,neutral,30,right,8,ITC_start,1847,space,0,0,7,463364,196652
1,24,female,Belg,1,2,ITC,neutral,30,right,8,ITC_choice,1138,f,0,0,7,462223,197793
1,24,female,Belg,1,2,ITC,neutral,30,right,8,ITC_wait,0,undefined,0,0,7,462220,197796
1,24,female,Belg,1,2,ITC,neutral,30,right,8,ITC_collect,1215,k,0,0,7,461003,199013
1,24,female,Belg,1,2,ITC,neutral,30,right,8,ITC_outcome,0,undefined,0,0,15,459995,200021
1,24,female,Belg,1,3,guess,win,5,left,14,guess_start,2365,space,0,0,15,457628,202388
1,24,female,Belg,1,3,guess,win,5,left,14,guess_choice,3025,j,0,0,15,454599,205417
1,24,female,Belg,1,3,guess,win,5,left,14,guess_outcome,0,undefined,0,0,35,453040,206976
1,24,female,Belg,1,3,ITC,win,5,left,14,ITC_start,623,space,0,0,35,452416,207600
1,24,female,Belg,1,3,ITC,win,5,left,14,ITC_choice,1656,f,0,0,35,450758,209258
1,24,female,Belg,1,3,ITC,win,5,left,14,ITC_wait,0,undefined,0,0,35,445750,214266
1,24,female,Belg,1,3,ITC,win,5,left,14,ITC_collect,1154,k,0,0,35,444593,215423
1,24,female,Belg,1,3,ITC,win,5,left,14,ITC_outcome,0,undefined,0,0,55,443589,216427
1,24,female,Belg,1,4,guess,win,30,right,3,guess_start,943,space,0,0,55,442644,217372
1,24,female,Belg,1,4,guess,win,30,right,3,guess_choice,1928,f,0,0,55,440711,219305
1,24,female,Belg,1,4,guess,win,30,right,3,guess_outcome,0,undefined,0,0,75,439155,220861
1,24,female,Belg,1,4,ITC,win,30,right,3,ITC_start,532,space,0,0,75,438621,221395
1,24,female,Belg,1,4,ITC,win,30,right,3,ITC_choice,1599,j,0,0,75,437019,222997
1,24,female,Belg,1,4,ITC,win,30,right,3,ITC_wait,0,undefined,0,0,75,407013,253003
1,24,female,Belg,1,4,ITC,win,30,right,3,ITC_collect,1012,k,0,0,75,405998,254018
1,24,female,Belg,1,4,ITC,win,30,right,3,ITC_outcome,0,undefined,0,0,95,404992,255024
1,24,female,Belg,1,5,guess,win,5,right,9,guess_start,2436,space,0,0,95,402553,257463
1,24,female,Belg,1,5,guess,win,5,right,9,guess_choice,1594,j,0,0,95,400954,259062
1,24,female,Belg,1,5,guess,win,5,right,9,guess_outcome,0,undefined,0,0,115,399396,260620
1,24,female,Belg,1,5,ITC,win,5,right,9,ITC_start,712,space,0,0,115,398682,261334
1,24,female,Belg,1,5,ITC,win,5,right,9,ITC_choice,1668,j,0,0,115,397012,263004
1,24,female,Belg,1,5,ITC,win,5,right,9,ITC_wait,0,undefined,0,0,115,392006,268010
1,24,female,Belg,1,5,ITC,win,5,right,9,ITC_collect,1189,k,0,0,115,390815,269201
1,24,female,Belg,1,5,ITC,win,5,right,9,ITC_outcome,0,undefined,0,0,135,389810,270206
1,24,female,Belg,1,6,guess,win,15,left,7,guess_start,1006,space,0,0,135,388802,271214
1,24,female,Belg,1,6,guess,win,15,left,7,guess_choice,851,f,0,0,135,387946,272070
1,24,female,Belg,1,6,guess,win,15,left,7,guess_outcome,0,undefined,0,0,155,386386,273630
1,24,female,Belg,1,6,ITC,win,15,left,7,ITC_start,995,space,0,0,155,385390,274626
1,24,female,Belg,1,6,ITC,win,15,left,7,ITC_choice,1290,f,0,0,155,384097,275919
1,24,female,Belg,1,6,ITC,win,15,left,7,ITC_wait,0,undefined,0,0,155,369093,290923
1,24,female,Belg,1,6,ITC,win,15,left,7,ITC_collect,5672,k,0,0,155,363419,296597
1,24,female,Belg,1,6,ITC,win,15,left,7,ITC_outcome,0,undefined,0,0,175,362414,297602
1,24,female,Belg,1,7,guess,neutral,30,right,6,guess_start,1328,space,0,0,175,361083,298933
1,24,female,Belg,1,7,guess,neutral,30,right,6,guess_choice,1219,j,0,0,175,359859,300157
1,24,female,Belg,1,7,guess,neutral,30,right,6,guess_outcome,0,undefined,0,0,175,358301,301715
1,24,female,Belg,1,7,ITC,neutral,30,right,6,ITC_start,767,space,0,0,175,357532,302484
1,24,female,Belg,1,7,ITC,neutral,30,right,6,ITC_choice,1711,j,0,0,175,355819,304197
1,24,female,Belg,1,7,ITC,neutral,30,right,6,ITC_wait,0,undefined,0,0,175,325816,334200
1,24,female,Belg,1,7,ITC,neutral,30,right,6,ITC_collect,6556,k,0,0,175,319258,340758
1,24,female,Belg,1,7,ITC,neutral,30,right,6,ITC_outcome,0,undefined,0,0,195,318254,341762
1,24,female,Belg,1,8,guess,neutral,30,left,2,guess_start,624,space,0,0,195,317627,342389
1,24,female,Belg,1,8,guess,neutral,30,left,2,guess_choice,1102,f,0,0,195,316521,343495
1,24,female,Belg,1,8,guess,neutral,30,left,2,guess_outcome,0,undefined,0,0,195,314967,345049
1,24,female,Belg,1,8,ITC,neutral,30,left,2,ITC_start,870,space,0,0,195,314095,345921
1,24,female,Belg,1,8,ITC,neutral,30,left,2,ITC_choice,1882,j,0,0,195,312211,347805
1,24,female,Belg,1,8,ITC,neutral,30,left,2,ITC_wait,0,undefined,0,0,195,312206,347810
1,24,female,Belg,1,8,ITC,neutral,30,left,2,ITC_collect,1349,k,0,0,195,310856,349160
1,24,female,Belg,1,8,ITC,neutral,30,left,2,ITC_outcome,0,undefined,0,0,197,309852,350164
1,24,female,Belg,1,9,guess,win,30,right,6,guess_start,530,space,0,0,197,309320,350696
1,24,female,Belg,1,9,guess,win,30,right,6,guess_choice,1934,f,0,0,197,307382,352634
1,24,female,Belg,1,9,guess,win,30,right,6,guess_outcome,0,undefined,0,0,217,305823,354193
1,24,female,Belg,1,9,ITC,win,30,right,6,ITC_start,675,space,0,0,217,305146,354870
1,24,female,Belg,1,9,ITC,win,30,right,6,ITC_choice,1196,f,0,0,217,303948,356068
1,24,female,Belg,1,9,ITC,win,30,right,6,ITC_wait,0,undefined,0,0,217,303944,356072
1,24,female,Belg,1,9,ITC,win,30,right,6,ITC_collect,1843,k,0,0,217,302099,357917
1,24,female,Belg,1,9,ITC,win,30,right,6,ITC_outcome,0,undefined,0,0,223,301092,358924
1,24,female,Belg,1,10,guess,loss,5,left,14,guess_start,457,space,0,0,223,300632,359384
1,24,female,Belg,1,10,guess,loss,5,left,14,guess_choice,554,j,0,0,223,300074,359942
1,24,female,Belg,1,10,guess,loss,5,left,14,guess_outcome,0,undefined,0,0,208,298515,361501
1,24,female,Belg,1,10,ITC,loss,5,left,14,ITC_start,1235,space,0,0,208,297278,362738
1,24,female,Belg,1,10,ITC,loss,5,left,14,ITC_choice,1918,f,0,0,208,295359,364657
1,24,female,Belg,1,10,ITC,loss,5,left,14,ITC_wait,0,undefined,0,0,208,290353,369663
1,24,female,Belg,1,10,ITC,loss,5,left,14,ITC_collect,752,k,0,0,208,289598,370418
1,24,female,Belg,1,10,ITC,loss,5,left,14,ITC_outcome,0,undefined,0,0,228,288593,371423
1,24,female,Belg,1,11,guess,win,5,left,16,guess_start,540,space,0,0,228,288050,371966
1,24,female,Belg,1,11,guess,win,5,left,16,guess_choice,1129,j,0,0,228,286917,373099
1,24,female,Belg,1,11,guess,win,5,left,16,guess_outcome,0,undefined,0,0,248,285360,374656
1,24,female,Belg,1,11,ITC,win,5,left,16,ITC_start,422,space,0,0,248,284937,375079
1,24,female,Belg,1,11,ITC,win,5,left,16,ITC_choice,1387,f,0,0,248,283548,376468
1,24,female,Belg,1,11,ITC,win,5,left,16,ITC_wait,0,undefined,0,0,248,278539,381477
1,24,female,Belg,1,11,ITC,win,5,left,16,ITC_collect,7360,k,0,0,248,271177,388839
1,24,female,Belg,1,11,ITC,win,5,left,16,ITC_outcome,0,undefined,0,0,268,270174,389842
1,24,female,Belg,1,12,guess,neutral,15,right,7,guess_start,5363,space,0,0,268,264809,395207
1,24,female,Belg,1,12,guess,neutral,15,right,7,guess_choice,1306,j,0,0,268,263498,396518
1,24,female,Belg,1,12,guess,neutral,15,right,7,guess_outcome,0,undefined,0,0,268,261939,398077
1,24,female,Belg,1,12,ITC,neutral,15,right,7,ITC_start,454,space,0,0,268,261483,398533
1,24,female,Belg,1,12,ITC,neutral,15,right,7,ITC_choice,1140,j,0,0,268,260341,399675
1,24,female,Belg,1,12,ITC,neutral,15,right,7,ITC_wait,0,undefined,0,0,268,245334,414682
1,24,female,Belg,1,12,ITC,neutral,15,right,7,ITC_collect,3507,k,0,0,268,241825,418191
1,24,female,Belg,1,12,ITC,neutral,15,right,7,ITC_outcome,0,undefined,0,0,288,240820,419196
1,24,female,Belg,1,13,guess,neutral,5,left,11,guess_start,709,space,0,0,288,240108,419908
1,24,female,Belg,1,13,guess,neutral,5,left,11,guess_choice,749,f,0,0,288,239355,420661
1,24,female,Belg,1,13,guess,neutral,5,left,11,guess_outcome,0,undefined,0,0,288,237799,422217
1,24,female,Belg,1,13,ITC,neutral,5,left,11,ITC_start,796,space,0,0,288,237001,423015
1,24,female,Belg,1,13,ITC,neutral,5,left,11,ITC_choice,1956,f,0,0,288,235043,424973
1,24,female,Belg,1,13,ITC,neutral,5,left,11,ITC_wait,0,undefined,0,0,288,230037,429979
1,24,female,Belg,1,13,ITC,neutral,5,left,11,ITC_collect,1666,k,0,0,288,228369,431647
1,24,female,Belg,1,13,ITC,neutral,5,left,11,ITC_outcome,0,undefined,0,0,308,227361,432655
1,24,female,Belg,1,14,guess,win,15,right,6,guess_start,641,space,0,0,308,226718,433298
1,24,female,Belg,1,14,guess,win,15,right,6,guess_choice,1438,j,0,0,308,225276,434740
1,24,female,Belg,1,14,guess,win,15,right,6,guess_outcome,0,undefined,0,0,328,223721,436295
1,24,female,Belg,1,14,ITC,win,15,right,6,ITC_start,410,space,0,0,328,223309,436707
1,24,female,Belg,1,14,ITC,win,15,right,6,ITC_choice,1623,f,0,0,328,221684,438332
1,24,female,Belg,1,14,ITC,win,15,right,6,ITC_wait,0,undefined,0,0,328,221680,438336
1,24,female,Belg,1,14,ITC,win,15,right,6,ITC_collect,1148,k,0,0,328,220530,439486
1,24,female,Belg,1,14,ITC,win,15,right,6,ITC_outcome,0,undefined,0,0,334,219524,440492
1,24,female,Belg,1,15,guess,win,30,right,1,guess_start,325,space,0,0,334,219195,440821
1,24,female,Belg,1,15,guess,win,30,right,1,guess_choice,881,f,0,0,334,218310,441706
1,24,female,Belg,1,15,guess,win,30,right,1,guess_outcome,0,undefined,0,0,354,216749,443267
1,24,female,Belg,1,15,ITC,win,30,right,1,ITC_start,629,space,0,0,354,216119,443897
1,24,female,Belg,1,15,ITC,win,30,right,1,ITC_choice,2122,j,0,0,354,213995,446021
1,24,female,Belg,1,15,ITC,win,30,right,1,ITC_wait,0,undefined,0,0,354,183992,476024
1,24,female,Belg,1,15,ITC,win,30,right,1,ITC_collect,2764,k,0,0,354,181226,478790
1,24,female,Belg,1,15,ITC,win,30,right,1,ITC_outcome,0,undefined,0,0,374,180219,479797
1,24,female,Belg,1,16,guess,loss,30,left,7,guess_start,2732,space,0,0,374,177484,482532
1,24,female,Belg,1,16,guess,loss,30,left,7,guess_choice,1423,f,0,0,374,176056,483960
1,24,female,Belg,1,16,guess,loss,30,left,7,guess_outcome,0,undefined,0,0,359,174500,485516
1,24,female,Belg,1,16,ITC,loss,30,left,7,ITC_start,422,space,0,0,359,174076,485940
1,24,female,Belg,1,16,ITC,loss,30,left,7,ITC_choice,1524,j,0,0,359,172550,487466
1,24,female,Belg,1,16,ITC,loss,30,left,7,ITC_wait,0,undefined,0,0,359,172546,487470
1,24,female,Belg,1,16,ITC,loss,30,left,7,ITC_collect,1046,k,0,0,359,171498,488518
1,24,female,Belg,1,16,ITC,loss,30,left,7,ITC_outcome,0,undefined,0,0,366,170494,489522
1,24,female,Belg,1,17,guess,neutral,15,right,10,guess_start,324,space,0,0,366,170168,489848
1,24,female,Belg,1,17,guess,neutral,15,right,10,guess_choice,693,f,0,0,366,169471,490545
1,24,female,Belg,1,17,guess,neutral,15,right,10,guess_outcome,0,undefined,0,0,366,167917,492099
1,24,female,Belg,1,17,ITC,neutral,15,right,10,ITC_start,1183,space,0,0,366,166732,493284
1,24,female,Belg,1,17,ITC,neutral,15,right,10,ITC_choice,1886,f,0,0,366,164843,495173
1,24,female,Belg,1,17,ITC,neutral,15,right,10,ITC_wait,0,undefined,0,0,366,164840,495176
1,24,female,Belg,1,17,ITC,neutral,15,right,10,ITC_collect,1010,k,0,0,366,163828,496188
1,24,female,Belg,1,17,ITC,neutral,15,right,10,ITC_outcome,0,undefined,0,0,376,162825,497191
1,24,female,Belg,1,18,guess,neutral,30,right,4,guess_start,398,space,0,0,376,162424,497592
1,24,female,Belg,1,18,guess,neutral,30,right,4,guess_choice,596,f,0,0,376,161824,498192
1,24,female,Belg,1,18,guess,neutral,30,right,4,guess_outcome,0,undefined,0,0,376,160266,499750
1,24,female,Belg,1,18,ITC,neutral,30,right,4,ITC_start,714,space,0,0,376,159549,500467
1,24,female,Belg,1,18,ITC,neutral,30,right,4,ITC_choice,812,f,0,0,376,158735,501281
1,24,female,Belg,1,18,ITC,neutral,30,right,4,ITC_wait,0,undefined,0,0,376,158731,501285
1,24,female,Belg,1,18,ITC,neutral,30,right,4,ITC_collect,724,k,0,0,376,158006,502010
1,24,female,Belg,1,18,ITC,neutral,30,right,4,ITC_outcome,0,undefined,0,0,380,157002,503014
1,24,female,Belg,1,19,guess,neutral,5,right,12,guess_start,412,space,0,0,380,156587,503429
1,24,female,Belg,1,19,guess,neutral,5,right,12,guess_choice,529,f,0,0,380,156052,503964
1,24,female,Belg,1,19,guess,neutral,5,right,12,guess_outcome,0,undefined,0,0,380,154495,505521
1,24,female,Belg,1,19,ITC,neutral,5,right,12,ITC_start,621,space,0,0,380,153872,506144
1,24,female,Belg,1,19,ITC,neutral,5,right,12,ITC_choice,1829,j,0,0,380,152042,507974
1,24,female,Belg,1,19,ITC,neutral,5,right,12,ITC_wait,0,undefined,0,0,380,147036,512980
1,24,female,Belg,1,19,ITC,neutral,5,right,12,ITC_collect,949,k,0,0,380,146085,513931
1,24,female,Belg,1,19,ITC,neutral,5,right,12,ITC_outcome,0,undefined,0,0,400,145080,514936
1,24,female,Belg,1,20,guess,win,30,right,2,guess_start,389,space,0,0,400,144688,515328
1,24,female,Belg,1,20,guess,win,30,right,2,guess_choice,901,j,0,0,400,143783,516233
1,24,female,Belg,1,20,guess,win,30,right,2,guess_outcome,0,undefined,0,0,420,142224,517792
1,24,female,Belg,1,20,ITC,win,30,right,2,ITC_start,471,space,0,0,420,141751,518265
1,24,female,Belg,1,20,ITC,win,30,right,2,ITC_choice,1053,j,0,0,420,140695,519321
1,24,female,Belg,1,20,ITC,win,30,right,2,ITC_wait,0,undefined,0,0,420,110690,549326
1,24,female,Belg,1,20,ITC,win,30,right,2,ITC_collect,1277,k,0,0,420,109411,550605
1,24,female,Belg,1,20,ITC,win,30,right,2,ITC_outcome,0,undefined,0,0,440,108407,551609
1,24,female,Belg,1,21,guess,loss,5,left,15,guess_start,436,space,0,0,440,107969,552047
1,24,female,Belg,1,21,guess,loss,5,left,15,guess_choice,579,j,0,0,440,107384,552632
1,24,female,Belg,1,21,guess,loss,5,left,15,guess_outcome,0,undefined,0,0,425,105826,554190
1,24,female,Belg,1,21,ITC,loss,5,left,15,ITC_start,580,space,0,0,425,105245,554771
1,24,female,Belg,1,21,ITC,loss,5,left,15,ITC_choice,638,f,0,0,425,104605,555411
1,24,female,Belg,1,21,ITC,loss,5,left,15,ITC_wait,0,undefined,0,0,425,99602,560414
1,24,female,Belg,1,21,ITC,loss,5,left,15,ITC_collect,1659,k,0,0,425,97940,562076
1,24,female,Belg,1,21,ITC,loss,5,left,15,ITC_outcome,0,undefined,0,0,445,96935,563081
1,24,female,Belg,1,22,guess,loss,15,right,5,guess_start,266,space,0,0,445,96667,563349
1,24,female,Belg,1,22,guess,loss,15,right,5,guess_choice,1056,f,0,0,445,95607,564409
1,24,female,Belg,1,22,guess,loss,15,right,5,guess_outcome,0,undefined,0,0,430,94052,565964
1,24,female,Belg,1,22,ITC,loss,15,right,5,ITC_start,2857,space,0,0,430,91194,568822
1,24,female,Belg,1,22,ITC,loss,15,right,5,ITC_choice,1511,f,0,0,430,89681,570335
1,24,female,Belg,1,22,ITC,loss,15,right,5,ITC_wait,0,undefined,0,0,430,89677,570339
1,24,female,Belg,1,22,ITC,loss,15,right,5,ITC_collect,806,k,0,0,430,88870,571146
1,24,female,Belg,1,22,ITC,loss,15,right,5,ITC_outcome,0,undefined,0,0,435,87865,572151
1,24,female,Belg,1,23,guess,loss,30,left,6,guess_start,431,space,0,0,435,87431,572585
1,24,female,Belg,1,23,guess,loss,30,left,6,guess_choice,837,j,0,0,435,86590,573426
1,24,female,Belg,1,23,guess,loss,30,left,6,guess_outcome,0,undefined,0,0,420,85031,574985
1,24,female,Belg,1,23,ITC,loss,30,left,6,ITC_start,418,space,0,0,420,84611,575405
1,24,female,Belg,1,23,ITC,loss,30,left,6,ITC_choice,1419,f,0,0,420,83190,576826
1,24,female,Belg,1,23,ITC,loss,30,left,6,ITC_wait,0,undefined,0,0,420,53185,606831
1,24,female,Belg,1,23,ITC,loss,30,left,6,ITC_collect,899,k,0,0,420,52283,607733
1,24,female,Belg,1,23,ITC,loss,30,left,6,ITC_outcome,0,undefined,0,0,440,51279,608737
1,24,female,Belg,1,24,guess,win,5,left,11,guess_start,878,space,0,0,440,50399,609617
1,24,female,Belg,1,24,guess,win,5,left,11,guess_choice,1015,f,0,0,440,49380,610636
1,24,female,Belg,1,24,guess,win,5,left,11,guess_outcome,0,undefined,0,0,460,47826,612190
1,24,female,Belg,1,24,ITC,win,5,left,11,ITC_start,388,space,0,0,460,47436,612580
1,24,female,Belg,1,24,ITC,win,5,left,11,ITC_choice,1329,j,0,0,460,46104,613912
1,24,female,Belg,1,24,ITC,win,5,left,11,ITC_wait,0,undefined,0,0,460,46100,613916
1,24,female,Belg,1,24,ITC,win,5,left,11,ITC_collect,1781,k,0,0,460,44317,615699
1,24,female,Belg,1,24,ITC,win,5,left,11,ITC_outcome,0,undefined,0,0,471,43310,616706
1,24,female,Belg,1,25,guess,neutral,30,left,1,guess_start,382,space,0,0,471,42926,617090
1,24,female,Belg,1,25,guess,neutral,30,left,1,guess_choice,927,j,0,0,471,41995,618021
1,24,female,Belg,1,25,guess,neutral,30,left,1,guess_outcome,0,undefined,0,0,471,40437,619579
1,24,female,Belg,1,25,ITC,neutral,30,left,1,ITC_start,409,space,0,0,471,40026,619990
1,24,female,Belg,1,25,ITC,neutral,30,left,1,ITC_choice,1130,j,0,0,471,38894,621122
1,24,female,Belg,1,25,ITC,neutral,30,left,1,ITC_wait,0,undefined,0,0,471,38890,621126
1,24,female,Belg,1,25,ITC,neutral,30,left,1,ITC_collect,869,k,0,0,471,38019,621997
1,24,female,Belg,1,25,ITC,neutral,30,left,1,ITC_outcome,0,undefined,0,0,472,37014,623002
1,24,female,Belg,1,26,guess,neutral,5,right,13,guess_start,391,space,0,0,472,36621,623395
1,24,female,Belg,1,26,guess,neutral,5,right,13,guess_choice,704,j,0,0,472,35912,624104
1,24,female,Belg,1,26,guess,neutral,5,right,13,guess_outcome,0,undefined,0,0,472,34354,625662
1,24,female,Belg,1,26,ITC,neutral,5,right,13,ITC_start,303,space,0,0,472,34049,625967
1,24,female,Belg,1,26,ITC,neutral,5,right,13,ITC_choice,1204,f,0,0,472,32842,627174
1,24,female,Belg,1,26,ITC,neutral,5,right,13,ITC_wait,0,undefined,0,0,472,32838,627178
1,24,female,Belg,1,26,ITC,neutral,5,right,13,ITC_collect,770,k,0,0,472,32066,627950
1,24,female,Belg,1,26,ITC,neutral,5,right,13,ITC_outcome,0,undefined,0,0,485,31061,628955
1,24,female,Belg,1,27,guess,win,15,right,12,guess_start,293,space,0,0,485,30766,629250
1,24,female,Belg,1,27,guess,win,15,right,12,guess_choice,966,f,0,0,485,29797,630219
1,24,female,Belg,1,27,guess,win,15,right,12,guess_outcome,0,undefined,0,0,505,28240,631776
1,24,female,Belg,1,27,ITC,win,15,right,12,ITC_start,372,space,0,0,505,27866,632150
1,24,female,Belg,1,27,ITC,win,15,right,12,ITC_choice,1751,f,0,0,505,26113,633903
1,24,female,Belg,1,27,ITC,win,15,right,12,ITC_wait,0,undefined,0,0,505,26110,633906
1,24,female,Belg,1,27,ITC,win,15,right,12,ITC_collect,1034,k,0,0,505,25072,634944
1,24,female,Belg,1,27,ITC,win,15,right,12,ITC_outcome,0,undefined,0,0,517,24066,635950
1,24,female,Belg,1,28,guess,neutral,15,left,6,guess_start,378,space,0,0,517,23686,636330
1,24,female,Belg,1,28,guess,neutral,15,left,6,guess_choice,616,f,0,0,517,23066,636950
1,24,female,Belg,1,28,guess,neutral,15,left,6,guess_outcome,0,undefined,0,0,517,21508,638508
1,24,female,Belg,1,28,ITC,neutral,15,left,6,ITC_start,332,space,0,0,517,21175,638841
1,24,female,Belg,1,28,ITC,neutral,15,left,6,ITC_choice,1484,j,0,0,517,19689,640327
1,24,female,Belg,1,28,ITC,neutral,15,left,6,ITC_wait,0,undefined,0,0,517,19684,640332
1,24,female,Belg,1,28,ITC,neutral,15,left,6,ITC_collect,974,k,0,0,517,18708,641308
1,24,female,Belg,1,28,ITC,neutral,15,left,6,ITC_outcome,0,undefined,0,0,523,17704,642312
1,24,female,Belg,1,29,guess,win,5,right,13,guess_start,457,space,0,0,523,17245,642771
1,24,female,Belg,1,29,guess,win,5,right,13,guess_choice,750,j,0,0,523,16491,643525
1,24,female,Belg,1,29,guess,win,5,right,13,guess_outcome,0,undefined,0,0,543,14935,645081
1,24,female,Belg,1,29,ITC,win,5,right,13,ITC_start,543,space,0,0,543,14390,645626
1,24,female,Belg,1,29,ITC,win,5,right,13,ITC_choice,905,f,0,0,543,13482,646534
1,24,female,Belg,1,29,ITC,win,5,right,13,ITC_wait,0,undefined,0,0,543,13478,646538
1,24,female,Belg,1,29,ITC,win,5,right,13,ITC_collect,756,k,0,0,543,12720,647296
1,24,female,Belg,1,29,ITC,win,5,right,13,ITC_outcome,0,undefined,0,0,556,11713,648303
1,24,female,Belg,1,30,guess,neutral,5,right,16,guess_start,382,space,0,0,556,11328,648688
1,24,female,Belg,1,30,guess,neutral,5,right,16,guess_choice,589,f,0,0,556,10736,649280
1,24,female,Belg,1,30,guess,neutral,5,right,16,guess_outcome,0,undefined,0,0,556,9182,650834
1,24,female,Belg,1,30,ITC,neutral,5,right,16,ITC_start,316,space,0,0,556,8864,651152
1,24,female,Belg,1,30,ITC,neutral,5,right,16,ITC_choice,1063,f,0,0,556,7799,652217
1,24,female,Belg,1,30,ITC,neutral,5,right,16,ITC_wait,0,undefined,0,0,556,7794,652222
1,24,female,Belg,1,30,ITC,neutral,5,right,16,ITC_collect,681,k,0,0,556,7111,652905
1,24,female,Belg,1,30,ITC,neutral,5,right,16,ITC_outcome,0,undefined,0,0,572,6105,653911
1,24,female,Belg,1,31,guess,win,5,right,10,guess_start,327,space,0,0,572,5776,654240
1,24,female,Belg,1,31,guess,win,5,right,10,guess_choice,1005,f,0,0,572,4766,655250
1,24,female,Belg,1,31,guess,win,5,right,10,guess_outcome,0,undefined,0,0,592,3208,656808
1,24,female,Belg,1,31,ITC,win,5,right,10,ITC_start,436,space,0,0,592,2769,657247
1,24,female,Belg,1,31,ITC,win,5,right,10,ITC_choice,752,f,0,0,592,2015,658001
1,24,female,Belg,1,31,ITC,win,5,right,10,ITC_wait,0,undefined,0,0,592,2011,658005
1,24,female,Belg,1,31,ITC,win,5,right,10,ITC_collect,610,k,0,0,592,1399,658617
1,24,female,Belg,1,31,ITC,win,5,right,10,ITC_outcome,0,undefined,0,0,602,393,659623
1,24,female,Belg,1,32,guess,loss,30,left,8,guess_start,296,space,0,0,602,95,659921
1,24,female,Belg,1,32,guess,loss,30,left,8,guess_choice,0,undefined,0,0,602,-7,660023
1,24,female,Belg,2,33,guess,neutral,15,left,9,guess_start,1018,space,0,0,0,478980,670819
1,24,female,Belg,2,33,guess,neutral,15,left,9,guess_choice,1436,j,0,0,0,477540,672259
1,24,female,Belg,2,33,guess,neutral,15,left,9,guess_outcome,0,undefined,0,0,0,475986,673813
1,24,female,Belg,2,33,ITC,neutral,15,left,9,ITC_start,507,space,0,0,0,475477,674322
1,24,female,Belg,2,33,ITC,neutral,15,left,9,ITC_choice,902,j,0,0,0,474573,675226
1,24,female,Belg,2,33,ITC,neutral,15,left,9,ITC_wait,0,undefined,0,0,0,474569,675230
1,24,female,Belg,2,33,ITC,neutral,15,left,9,ITC_collect,1338,k,0,0,0,473230,676569
1,24,female,Belg,2,33,ITC,neutral,15,left,9,ITC_outcome,0,undefined,0,0,9,472227,677572
1,24,female,Belg,2,34,guess,neutral,5,right,9,guess_start,358,space,0,0,9,471867,677932
1,24,female,Belg,2,34,guess,neutral,5,right,9,guess_choice,766,j,0,0,9,471096,678703
1,24,female,Belg,2,34,guess,neutral,5,right,9,guess_outcome,0,undefined,0,0,9,469539,680260
1,24,female,Belg,2,34,ITC,neutral,5,right,9,ITC_start,1065,space,0,0,9,468472,681327
1,24,female,Belg,2,34,ITC,neutral,5,right,9,ITC_choice,902,f,0,0,9,467568,682231
1,24,female,Belg,2,34,ITC,neutral,5,right,9,ITC_wait,0,undefined,0,0,9,467564,682235
1,24,female,Belg,2,34,ITC,neutral,5,right,9,ITC_collect,703,k,0,0,9,466859,682940
1,24,female,Belg,2,34,ITC,neutral,5,right,9,ITC_outcome,0,undefined,0,0,18,465852,683947
1,24,female,Belg,2,35,guess,loss,5,right,9,guess_start,354,space,0,0,18,465496,684303
1,24,female,Belg,2,35,guess,loss,5,right,9,guess_choice,857,j,0,0,18,464635,685164
1,24,female,Belg,2,35,guess,loss,5,right,9,guess_outcome,0,undefined,0,0,3,463077,686722
1,24,female,Belg,2,35,ITC,loss,5,right,9,ITC_start,765,space,0,0,3,462311,687488
1,24,female,Belg,2,35,ITC,loss,5,right,9,ITC_choice,2333,j,0,0,3,459976,689823
1,24,female,Belg,2,35,ITC,loss,5,right,9,ITC_wait,0,undefined,0,0,3,454974,694825
1,24,female,Belg,2,35,ITC,loss,5,right,9,ITC_collect,1033,k,0,0,3,453939,695860
1,24,female,Belg,2,35,ITC,loss,5,right,9,ITC_outcome,0,undefined,0,0,23,452935,696864
1,24,female,Belg,2,36,guess,neutral,15,right,5,guess_start,2092,space,0,0,23,450841,698958
1,24,female,Belg,2,36,guess,neutral,15,right,5,guess_choice,886,j,0,0,23,449950,699849
1,24,female,Belg,2,36,guess,neutral,15,right,5,guess_outcome,0,undefined,0,0,23,448396,701403
1,24,female,Belg,2,36,ITC,neutral,15,right,5,ITC_start,404,space,0,0,23,447990,701809
1,24,female,Belg,2,36,ITC,neutral,15,right,5,ITC_choice,652,f,0,0,23,447336,702463
1,24,female,Belg,2,36,ITC,neutral,15,right,5,ITC_wait,0,undefined,0,0,23,447332,702467
1,24,female,Belg,2,36,ITC,neutral,15,right,5,ITC_collect,560,k,0,0,23,446770,703029
1,24,female,Belg,2,36,ITC,neutral,15,right,5,ITC_outcome,0,undefined,0,0,28,445766,704033
1,24,female,Belg,2,37,guess,neutral,5,right,15,guess_start,492,space,0,0,28,445272,704527
1,24,female,Belg,2,37,guess,neutral,5,right,15,guess_choice,521,f,0,0,28,444747,705052
1,24,female,Belg,2,37,guess,neutral,5,right,15,guess_outcome,0,undefined,0,0,28,443190,706609
1,24,female,Belg,2,37,ITC,neutral,5,right,15,ITC_start,279,space,0,0,28,442909,706890
1,24,female,Belg,2,37,ITC,neutral,5,right,15,ITC_choice,593,f,0,0,28,442314,707485
1,24,female,Belg,2,37,ITC,neutral,5,right,15,ITC_wait,0,undefined,0,0,28,442310,707489
1,24,female,Belg,2,37,ITC,neutral,5,right,15,ITC_collect,379,k,0,0,28,441929,707870
1,24,female,Belg,2,37,ITC,neutral,5,right,15,ITC_outcome,0,undefined,0,0,43,440925,708874
1,24,female,Belg,2,38,guess,loss,30,right,4,guess_start,394,space,0,0,43,440530,709269
1,24,female,Belg,2,38,guess,loss,30,right,4,guess_choice,539,f,0,0,43,439985,709814
1,24,female,Belg,2,38,guess,loss,30,right,4,guess_outcome,0,undefined,0,0,28,438429,711370
1,24,female,Belg,2,38,ITC,loss,30,right,4,ITC_start,435,space,0,0,28,437992,711807
1,24,female,Belg,2,38,ITC,loss,30,right,4,ITC_choice,1514,j,0,0,28,436476,713323
1,24,female,Belg,2,38,ITC,loss,30,right,4,ITC_wait,0,undefined,0,0,28,406472,743327
1,24,female,Belg,2,38,ITC,loss,30,right,4,ITC_collect,1649,k,0,0,28,404821,744978
1,24,female,Belg,2,38,ITC,loss,30,right,4,ITC_outcome,0,undefined,0,0,48,403816,745983
1,24,female,Belg,2,39,guess,neutral,15,right,12,guess_start,1941,space,0,0,48,401873,747926
1,24,female,Belg,2,39,guess,neutral,15,right,12,guess_choice,1129,f,0,0,48,400738,749061
1,24,female,Belg,2,39,guess,neutral,15,right,12,guess_outcome,0,undefined,0,0,48,399180,750619
1,24,female,Belg,2,39,ITC,neutral,15,right,12,ITC_start,454,space,0,0,48,398724,751075
1,24,female,Belg,2,39,ITC,neutral,15,right,12,ITC_choice,1670,f,0,0,48,397052,752747
1,24,female,Belg,2,39,ITC,neutral,15,right,12,ITC_wait,0,undefined,0,0,48,397049,752750
1,24,female,Belg,2,39,ITC,neutral,15,right,12,ITC_collect,822,k,0,0,48,396225,753574
1,24,female,Belg,2,39,ITC,neutral,15,right,12,ITC_outcome,0,undefined,0,0,60,395219,754580
1,24,female,Belg,2,40,guess,win,30,right,4,guess_start,548,space,0,0,60,394669,755130
1,24,female,Belg,2,40,guess,win,30,right,4,guess_choice,1382,j,0,0,60,393281,756518
1,24,female,Belg,2,40,guess,win,30,right,4,guess_outcome,0,undefined,0,0,80,391727,758072
1,24,female,Belg,2,40,ITC,win,30,right,4,ITC_start,909,space,0,0,80,390816,758983
1,24,female,Belg,2,40,ITC,win,30,right,4,ITC_choice,1012,f,0,0,80,389802,759997
1,24,female,Belg,2,40,ITC,win,30,right,4,ITC_wait,0,undefined,0,0,80,389797,760002
1,24,female,Belg,2,40,ITC,win,30,right,4,ITC_collect,886,k,0,0,80,388909,760890
1,24,female,Belg,2,40,ITC,win,30,right,4,ITC_outcome,0,undefined,0,0,84,387902,761897
1,24,female,Belg,2,41,guess,loss,15,left,7,guess_start,633,space,0,0,84,387266,762533
1,24,female,Belg,2,41,guess,loss,15,left,7,guess_choice,945,f,0,0,84,386316,763483
1,24,female,Belg,2,41,guess,loss,15,left,7,guess_outcome,0,undefined,0,0,69,384760,765039
1,24,female,Belg,2,41,ITC,loss,15,left,7,ITC_start,635,space,0,0,69,384124,765675
1,24,female,Belg,2,41,ITC,loss,15,left,7,ITC_choice,972,j,0,0,69,383148,766651
1,24,female,Belg,2,41,ITC,loss,15,left,7,ITC_wait,0,undefined,0,0,69,383145,766654
1,24,female,Belg,2,41,ITC,loss,15,left,7,ITC_collect,1441,k,0,0,69,381702,768097
1,24,female,Belg,2,41,ITC,loss,15,left,7,ITC_outcome,0,undefined,0,0,76,380697,769102
1,24,female,Belg,2,42,guess,win,30,right,8,guess_start,657,space,0,0,76,380038,769761
1,24,female,Belg,2,42,guess,win,30,right,8,guess_choice,827,j,0,0,76,379207,770592
1,24,female,Belg,2,42,guess,win,30,right,8,guess_outcome,0,undefined,0,0,96,377649,772150
1,24,female,Belg,2,42,ITC,win,30,right,8,ITC_start,492,space,0,0,96,377155,772644
1,24,female,Belg,2,42,ITC,win,30,right,8,ITC_choice,1035,f,0,0,96,376118,773681
1,24,female,Belg,2,42,ITC,win,30,right,8,ITC_wait,0,undefined,0,0,96,376114,773685
1,24,female,Belg,2,42,ITC,win,30,right,8,ITC_collect,1040,k,0,0,96,375073,774726
1,24,female,Belg,2,42,ITC,win,30,right,8,ITC_outcome,0,undefined,0,0,104,374068,775731
1,24,female,Belg,2,43,guess,loss,15,left,12,guess_start,296,space,0,0,104,373770,776029
1,24,female,Belg,2,43,guess,loss,15,left,12,guess_choice,719,j,0,0,104,373049,776750
1,24,female,Belg,2,43,guess,loss,15,left,12,guess_outcome,0,undefined,0,0,89,371490,778309
1,24,female,Belg,2,43,ITC,loss,15,left,12,ITC_start,4464,space,0,0,89,367024,782775
1,24,female,Belg,2,43,ITC,loss,15,left,12,ITC_choice,963,j,0,0,89,366059,783740
1,24,female,Belg,2,43,ITC,loss,15,left,12,ITC_wait,0,undefined,0,0,89,366055,783744
1,24,female,Belg,2,43,ITC,loss,15,left,12,ITC_collect,566,k,0,0,89,365487,784312
1,24,female,Belg,2,43,ITC,loss,15,left,12,ITC_outcome,0,undefined,0,0,101,364483,785316
1,24,female,Belg,2,44,guess,loss,30,left,1,guess_start,553,space,0,0,101,363928,785871
1,24,female,Belg,2,44,guess,loss,30,left,1,guess_choice,489,f,0,0,101,363435,786364
1,24,female,Belg,2,44,guess,loss,30,left,1,guess_outcome,0,undefined,0,0,86,361877,787922
1,24,female,Belg,2,44,ITC,loss,30,left,1,ITC_start,581,space,0,0,86,361294,788505
1,24,female,Belg,2,44,ITC,loss,30,left,1,ITC_choice,969,f,0,0,86,360321,789478
1,24,female,Belg,2,44,ITC,loss,30,left,1,ITC_wait,0,undefined,0,0,86,330315,819484
1,24,female,Belg,2,44,ITC,loss,30,left,1,ITC_collect,2344,k,0,0,86,327968,821831
1,24,female,Belg,2,44,ITC,loss,30,left,1,ITC_outcome,0,undefined,0,0,106,326965,822834
1,24,female,Belg,2,45,guess,win,30,left,7,guess_start,849,space,0,0,106,326113,823686
1,24,female,Belg,2,45,guess,win,30,left,7,guess_choice,599,f,0,0,106,325511,824288
1,24,female,Belg,2,45,guess,win,30,left,7,guess_outcome,0,undefined,0,0,126,323952,825847
1,24,female,Belg,2,45,ITC,win,30,left,7,ITC_start,431,space,0,0,126,323520,826279
1,24,female,Belg,2,45,ITC,win,30,left,7,ITC_choice,1032,f,0,0,126,322485,827314
1,24,female,Belg,2,45,ITC,win,30,left,7,ITC_wait,0,undefined,0,0,126,292482,857317
1,24,female,Belg,2,45,ITC,win,30,left,7,ITC_collect,1491,k,0,0,126,290989,858810
1,24,female,Belg,2,45,ITC,win,30,left,7,ITC_outcome,0,undefined,0,0,146,289986,859813
1,24,female,Belg,2,46,guess,win,15,left,10,guess_start,630,space,0,0,146,289353,860446
1,24,female,Belg,2,46,guess,win,15,left,10,guess_choice,680,f,0,0,146,288670,861129
1,24,female,Belg,2,46,guess,win,15,left,10,guess_outcome,0,undefined,0,0,166,287113,862686
1,24,female,Belg,2,46,ITC,win,15,left,10,ITC_start,394,space,0,0,166,286717,863082
1,24,female,Belg,2,46,ITC,win,15,left,10,ITC_choice,1090,j,0,0,166,285625,864174
1,24,female,Belg,2,46,ITC,win,15,left,10,ITC_wait,0,undefined,0,0,166,285621,864178
1,24,female,Belg,2,46,ITC,win,15,left,10,ITC_collect,980,k,0,0,166,284639,865160
1,24,female,Belg,2,46,ITC,win,15,left,10,ITC_outcome,0,undefined,0,0,176,283636,866163
1,24,female,Belg,2,47,guess,loss,5,left,16,guess_start,395,space,0,0,176,283239,866560
1,24,female,Belg,2,47,guess,loss,5,left,16,guess_choice,671,f,0,0,176,282565,867234
1,24,female,Belg,2,47,guess,loss,5,left,16,guess_outcome,0,undefined,0,0,161,281006,868793
1,24,female,Belg,2,47,ITC,loss,5,left,16,ITC_start,306,space,0,0,161,280698,869101
1,24,female,Belg,2,47,ITC,loss,5,left,16,ITC_choice,1139,j,0,0,161,279557,870242
1,24,female,Belg,2,47,ITC,loss,5,left,16,ITC_wait,0,undefined,0,0,161,279553,870246
1,24,female,Belg,2,47,ITC,loss,5,left,16,ITC_collect,515,k,0,0,161,279036,870763
1,24,female,Belg,2,47,ITC,loss,5,left,16,ITC_outcome,0,undefined,0,0,177,278032,871767
1,24,female,Belg,2,48,guess,win,15,left,9,guess_start,392,space,0,0,177,277638,872161
1,24,female,Belg,2,48,guess,win,15,left,9,guess_choice,529,j,0,0,177,277105,872694
1,24,female,Belg,2,48,guess,win,15,left,9,guess_outcome,0,undefined,0,0,197,275549,874250
1,24,female,Belg,2,48,ITC,win,15,left,9,ITC_start,464,space,0,0,197,275083,874716
1,24,female,Belg,2,48,ITC,win,15,left,9,ITC_choice,800,j,0,0,197,274281,875518
1,24,female,Belg,2,48,ITC,win,15,left,9,ITC_wait,0,undefined,0,0,197,274277,875522
1,24,female,Belg,2,48,ITC,win,15,left,9,ITC_collect,617,k,0,0,197,273658,876141
1,24,female,Belg,2,48,ITC,win,15,left,9,ITC_outcome,0,undefined,0,0,206,272652,877147
1,24,female,Belg,2,49,guess,neutral,15,left,8,guess_start,395,space,0,0,206,272255,877544
1,24,female,Belg,2,49,guess,neutral,15,left,8,guess_choice,804,f,0,0,206,271447,878352
1,24,female,Belg,2,49,guess,neutral,15,left,8,guess_outcome,0,undefined,0,0,206,269888,879911
1,24,female,Belg,2,49,ITC,neutral,15,left,8,ITC_start,446,space,0,0,206,269440,880359
1,24,female,Belg,2,49,ITC,neutral,15,left,8,ITC_choice,1331,j,0,0,206,268107,881692
1,24,female,Belg,2,49,ITC,neutral,15,left,8,ITC_wait,0,undefined,0,0,206,268103,881696
1,24,female,Belg,2,49,ITC,neutral,15,left,8,ITC_collect,989,k,0,0,206,267113,882686
1,24,female,Belg,2,49,ITC,neutral,15,left,8,ITC_outcome,0,undefined,0,0,214,266110,883689
1,24,female,Belg,2,50,guess,loss,15,left,9,guess_start,669,space,0,0,214,265437,884362
1,24,female,Belg,2,50,guess,loss,15,left,9,guess_choice,1546,f,0,0,214,263886,885913
1,24,female,Belg,2,50,guess,loss,15,left,9,guess_outcome,0,undefined,0,0,199,262331,887468
1,24,female,Belg,2,50,ITC,loss,15,left,9,ITC_start,831,space,0,0,199,261498,888301
1,24,female,Belg,2,50,ITC,loss,15,left,9,ITC_choice,739,j,0,0,199,260757,889042
1,24,female,Belg,2,50,ITC,loss,15,left,9,ITC_wait,0,undefined,0,0,199,260754,889045
1,24,female,Belg,2,50,ITC,loss,15,left,9,ITC_collect,571,k,0,0,199,260180,889619
1,24,female,Belg,2,50,ITC,loss,15,left,9,ITC_outcome,0,undefined,0,0,208,259177,890622
1,24,female,Belg,2,51,guess,loss,5,right,10,guess_start,283,space,0,0,208,258891,890908
1,24,female,Belg,2,51,guess,loss,5,right,10,guess_choice,441,j,0,0,208,258447,891352
1,24,female,Belg,2,51,guess,loss,5,right,10,guess_outcome,0,undefined,0,0,193,256892,892907
1,24,female,Belg,2,51,ITC,loss,5,right,10,ITC_start,452,space,0,0,193,256438,893361
1,24,female,Belg,2,51,ITC,loss,5,right,10,ITC_choice,446,f,0,0,193,255989,893810
1,24,female,Belg,2,51,ITC,loss,5,right,10,ITC_wait,0,undefined,0,0,193,255985,893814
1,24,female,Belg,2,51,ITC,loss,5,right,10,ITC_collect,1284,k,0,0,193,254700,895099
1,24,female,Belg,2,51,ITC,loss,5,right,10,ITC_outcome,0,undefined,0,0,203,253692,896107
1,24,female,Belg,2,52,guess,win,15,right,11,guess_start,396,space,0,0,203,253294,896505
1,24,female,Belg,2,52,guess,win,15,right,11,guess_choice,610,j,0,0,203,252680,897119
1,24,female,Belg,2,52,guess,win,15,right,11,guess_outcome,0,undefined,0,0,223,251121,898678
1,24,female,Belg,2,52,ITC,win,15,right,11,ITC_start,458,space,0,0,223,250661,899138
1,24,female,Belg,2,52,ITC,win,15,right,11,ITC_choice,1376,f,0,0,223,249283,900516
1,24,female,Belg,2,52,ITC,win,15,right,11,ITC_wait,0,undefined,0,0,223,249278,900521
1,24,female,Belg,2,52,ITC,win,15,right,11,ITC_collect,713,k,0,0,223,248562,901237
1,24,female,Belg,2,52,ITC,win,15,right,11,ITC_outcome,0,undefined,0,0,234,247557,902242
1,24,female,Belg,2,53,guess,win,15,left,5,guess_start,296,space,0,0,234,247258,902541
1,24,female,Belg,2,53,guess,win,15,left,5,guess_choice,433,j,0,0,234,246821,902978
1,24,female,Belg,2,53,guess,win,15,left,5,guess_outcome,0,undefined,0,0,254,245264,904535
1,24,female,Belg,2,53,ITC,win,15,left,5,ITC_start,405,space,0,0,254,244857,904942
1,24,female,Belg,2,53,ITC,win,15,left,5,ITC_choice,655,j,0,0,254,244200,905599
1,24,female,Belg,2,53,ITC,win,15,left,5,ITC_wait,0,undefined,0,0,254,244196,905603
1,24,female,Belg,2,53,ITC,win,15,left,5,ITC_collect,534,k,0,0,254,243660,906139
1,24,female,Belg,2,53,ITC,win,15,left,5,ITC_outcome,0,undefined,0,0,259,242652,907147
1,24,female,Belg,2,54,guess,neutral,30,right,5,guess_start,347,space,0,0,259,242302,907497
1,24,female,Belg,2,54,guess,neutral,30,right,5,guess_choice,576,f,0,0,259,241722,908077
1,24,female,Belg,2,54,guess,neutral,30,right,5,guess_outcome,0,undefined,0,0,259,240167,909632
1,24,female,Belg,2,54,ITC,neutral,30,right,5,ITC_start,461,space,0,0,259,239704,910095
1,24,female,Belg,2,54,ITC,neutral,30,right,5,ITC_choice,837,f,0,0,259,238865,910934
1,24,female,Belg,2,54,ITC,neutral,30,right,5,ITC_wait,0,undefined,0,0,259,238862,910937
1,24,female,Belg,2,54,ITC,neutral,30,right,5,ITC_collect,562,k,0,0,259,238298,911501
1,24,female,Belg,2,54,ITC,neutral,30,right,5,ITC_outcome,0,undefined,0,0,264,237291,912508
1,24,female,Belg,2,55,guess,neutral,5,left,14,guess_start,353,space,0,0,264,236935,912864
1,24,female,Belg,2,55,guess,neutral,5,left,14,guess_choice,550,f,0,0,264,236380,913419
1,24,female,Belg,2,55,guess,neutral,5,left,14,guess_outcome,0,undefined,0,0,264,234822,914977
1,24,female,Belg,2,55,ITC,neutral,5,left,14,ITC_start,155,space,0,0,264,234664,915135
1,24,female,Belg,2,55,ITC,neutral,5,left,14,ITC_choice,713,j,0,0,264,233949,915850
1,24,female,Belg,2,55,ITC,neutral,5,left,14,ITC_wait,0,undefined,0,0,264,233945,915854
1,24,female,Belg,2,55,ITC,neutral,5,left,14,ITC_collect,514,k,0,0,264,233429,916370
1,24,female,Belg,2,55,ITC,neutral,5,left,14,ITC_outcome,0,undefined,0,0,278,232423,917376
1,24,female,Belg,2,56,guess,win,5,left,15,guess_start,302,space,0,0,278,232118,917681
1,24,female,Belg,2,56,guess,win,5,left,15,guess_choice,600,j,0,0,278,231513,918286
1,24,female,Belg,2,56,guess,win,5,left,15,guess_outcome,0,undefined,0,0,298,229955,919844
1,24,female,Belg,2,56,ITC,win,5,left,15,ITC_start,361,space,0,0,298,229593,920206
1,24,female,Belg,2,56,ITC,win,5,left,15,ITC_choice,818,j,0,0,298,228772,921027
1,24,female,Belg,2,56,ITC,win,5,left,15,ITC_wait,0,undefined,0,0,298,228768,921031
1,24,female,Belg,2,56,ITC,win,5,left,15,ITC_collect,292,k,0,0,298,228475,921324
1,24,female,Belg,2,56,ITC,win,5,left,15,ITC_outcome,0,undefined,0,0,313,227471,922328
1,24,female,Belg,2,57,guess,loss,5,right,12,guess_start,308,space,0,0,313,227160,922639
1,24,female,Belg,2,57,guess,loss,5,right,12,guess_choice,523,j,0,0,313,226633,923166
1,24,female,Belg,2,57,guess,loss,5,right,12,guess_outcome,0,undefined,0,0,298,225077,924722
1,24,female,Belg,2,57,ITC,loss,5,right,12,ITC_start,398,space,0,0,298,224677,925122
1,24,female,Belg,2,57,ITC,loss,5,right,12,ITC_choice,756,f,0,0,298,223919,925880
1,24,female,Belg,2,57,ITC,loss,5,right,12,ITC_wait,0,undefined,0,0,298,223915,925884
1,24,female,Belg,2,57,ITC,loss,5,right,12,ITC_collect,535,k,0,0,298,223378,926421
1,24,female,Belg,2,57,ITC,loss,5,right,12,ITC_outcome,0,undefined,0,0,310,222374,927425
1,24,female,Belg,2,58,guess,neutral,15,left,11,guess_start,305,space,0,0,310,222065,927734
1,24,female,Belg,2,58,guess,neutral,15,left,11,guess_choice,492,j,0,0,310,221569,928230
1,24,female,Belg,2,58,guess,neutral,15,left,11,guess_outcome,0,undefined,0,0,310,220011,929788
1,24,female,Belg,2,58,ITC,neutral,15,left,11,ITC_start,288,space,0,0,310,219722,930077
1,24,female,Belg,2,58,ITC,neutral,15,left,11,ITC_choice,543,j,0,0,310,219177,930622
1,24,female,Belg,2,58,ITC,neutral,15,left,11,ITC_wait,0,undefined,0,0,310,219174,930625
1,24,female,Belg,2,58,ITC,neutral,15,left,11,ITC_collect,370,k,0,0,310,218803,930996
1,24,female,Belg,2,58,ITC,neutral,15,left,11,ITC_outcome,0,undefined,0,0,321,217799,932000
1,24,female,Belg,2,59,guess,loss,30,left,2,guess_start,396,space,0,0,321,217401,932398
1,24,female,Belg,2,59,guess,loss,30,left,2,guess_choice,522,j,0,0,321,216876,932923
1,24,female,Belg,2,59,guess,loss,30,left,2,guess_outcome,0,undefined,0,0,306,215321,934478
1,24,female,Belg,2,59,ITC,loss,30,left,2,ITC_start,257,space,0,0,306,215062,934737
1,24,female,Belg,2,59,ITC,loss,30,left,2,ITC_choice,480,j,0,0,306,214580,935219
1,24,female,Belg,2,59,ITC,loss,30,left,2,ITC_wait,0,undefined,0,0,306,214577,935222
1,24,female,Belg,2,59,ITC,loss,30,left,2,ITC_collect,511,k,0,0,306,214064,935735
1,24,female,Belg,2,59,ITC,loss,30,left,2,ITC_outcome,0,undefined,0,0,308,213061,936738
1,24,female,Belg,2,60,guess,neutral,5,left,10,guess_start,375,space,0,0,308,212684,937115
1,24,female,Belg,2,60,guess,neutral,5,left,10,guess_choice,569,f,0,0,308,212111,937688
1,24,female,Belg,2,60,guess,neutral,5,left,10,guess_outcome,0,undefined,0,0,308,210556,939243
1,24,female,Belg,2,60,ITC,neutral,5,left,10,ITC_start,279,space,0,0,308,210275,939524
1,24,female,Belg,2,60,ITC,neutral,5,left,10,ITC_choice,525,j,0,0,308,209747,940052
1,24,female,Belg,2,60,ITC,neutral,5,left,10,ITC_wait,0,undefined,0,0,308,209744,940055
1,24,female,Belg,2,60,ITC,neutral,5,left,10,ITC_collect,317,k,0,0,308,209424,940375
1,24,female,Belg,2,60,ITC,neutral,5,left,10,ITC_outcome,0,undefined,0,0,318,208418,941381
1,24,female,Belg,2,61,guess,loss,15,left,6,guess_start,384,space,0,0,318,208032,941767
1,24,female,Belg,2,61,guess,loss,15,left,6,guess_choice,618,j,0,0,318,207410,942389
1,24,female,Belg,2,61,guess,loss,15,left,6,guess_outcome,0,undefined,0,0,303,205852,943947
1,24,female,Belg,2,61,ITC,loss,15,left,6,ITC_start,265,space,0,0,303,205586,944213
1,24,female,Belg,2,61,ITC,loss,15,left,6,ITC_choice,626,j,0,0,303,204957,944842
1,24,female,Belg,2,61,ITC,loss,15,left,6,ITC_wait,0,undefined,0,0,303,204954,944845
1,24,female,Belg,2,61,ITC,loss,15,left,6,ITC_collect,236,k,0,0,303,204716,945083
1,24,female,Belg,2,61,ITC,loss,15,left,6,ITC_outcome,0,undefined,0,0,309,203711,946088
1,24,female,Belg,2,62,guess,loss,30,left,5,guess_start,349,space,0,0,309,203360,946439
1,24,female,Belg,2,62,guess,loss,30,left,5,guess_choice,585,j,0,0,309,202771,947028
1,24,female,Belg,2,62,guess,loss,30,left,5,guess_outcome,0,undefined,0,0,294,201214,948585
1,24,female,Belg,2,62,ITC,loss,30,left,5,ITC_start,85,space,0,0,294,201127,948672
1,24,female,Belg,2,62,ITC,loss,30,left,5,ITC_choice,544,j,0,0,294,200581,949218
1,24,female,Belg,2,62,ITC,loss,30,left,5,ITC_wait,0,undefined,0,0,294,200578,949221
1,24,female,Belg,2,62,ITC,loss,30,left,5,ITC_collect,327,k,0,0,294,200250,949549
1,24,female,Belg,2,62,ITC,loss,30,left,5,ITC_outcome,0,undefined,0,0,299,199246,950553
1,24,female,Belg,2,63,guess,loss,15,left,11,guess_start,257,space,0,0,299,198987,950812
1,24,female,Belg,2,63,guess,loss,15,left,11,guess_choice,479,f,0,0,299,198503,951296
1,24,female,Belg,2,63,guess,loss,15,left,11,guess_outcome,0,undefined,0,0,284,196948,952851
1,24,female,Belg,2,63,ITC,loss,15,left,11,ITC_start,293,space,0,0,284,196653,953146
1,24,female,Belg,2,63,ITC,loss,15,left,11,ITC_choice,528,j,0,0,284,196123,953676
1,24,female,Belg,2,63,ITC,loss,15,left,11,ITC_wait,0,undefined,0,0,284,196119,953680
1,24,female,Belg,2,63,ITC,loss,15,left,11,ITC_collect,318,k,0,0,284,195800,953999
1,24,female,Belg,2,63,ITC,loss,15,left,11,ITC_outcome,0,undefined,0,0,295,194794,955005
1,24,female,Belg,2,64,guess,loss,5,left,13,guess_start,419,space,0,0,295,194372,955427
1,24,female,Belg,2,64,guess,loss,5,left,13,guess_choice,627,j,0,0,295,193741,956058
1,24,female,Belg,2,64,guess,loss,5,left,13,guess_outcome,0,undefined,0,0,280,192187,957612
1,24,female,Belg,2,64,ITC,loss,5,left,13,ITC_start,264,space,0,0,280,191921,957878
1,24,female,Belg,2,64,ITC,loss,5,left,13,ITC_choice,334,j,0,0,280,191585,958214
1,24,female,Belg,2,64,ITC,loss,5,left,13,ITC_wait,0,undefined,0,0,280,191581,958218
1,24,female,Belg,2,64,ITC,loss,5,left,13,ITC_collect,460,k,0,0,280,191119,958680
1,24,female,Belg,2,64,ITC,loss,5,left,13,ITC_outcome,0,undefined,0,0,293,190115,959684
1,24,female,Belg,2,65,guess,neutral,30,right,3,guess_start,342,space,0,0,293,189770,960029
1,24,female,Belg,2,65,guess,neutral,30,right,3,guess_choice,505,f,0,0,293,189260,960539
1,24,female,Belg,2,65,guess,neutral,30,right,3,guess_outcome,0,undefined,0,0,293,187706,962093
1,24,female,Belg,2,65,ITC,neutral,30,right,3,ITC_start,353,space,0,0,293,187351,962448
1,24,female,Belg,2,65,ITC,neutral,30,right,3,ITC_wait,0,undefined,0,0,293,186764,963035
1,24,female,Belg,2,65,ITC,neutral,30,right,3,ITC_choice,580,f,0,0,293,186769,963030
1,24,female,Belg,2,65,ITC,neutral,30,right,3,ITC_collect,400,k,0,0,293,186363,963436
1,24,female,Belg,2,65,ITC,neutral,30,right,3,ITC_outcome,0,undefined,0,0,296,185357,964442
1,24,female,Belg,2,66,guess,loss,15,right,10,guess_start,322,space,0,0,296,185032,964767
1,24,female,Belg,2,66,guess,loss,15,right,10,guess_choice,516,j,0,0,296,184512,965287
1,24,female,Belg,2,66,guess,loss,15,right,10,guess_outcome,0,undefined,0,0,281,182957,966842
1,24,female,Belg,2,66,ITC,loss,15,right,10,ITC_start,260,space,0,0,281,182695,967104
1,24,female,Belg,2,66,ITC,loss,15,right,10,ITC_choice,1430,f,0,0,281,181264,968535
1,24,female,Belg,2,66,ITC,loss,15,right,10,ITC_wait,0,undefined,0,0,281,181259,968540
1,24,female,Belg,2,66,ITC,loss,15,right,10,ITC_collect,380,k,0,0,281,180878,968921
1,24,female,Belg,2,66,ITC,loss,15,right,10,ITC_outcome,0,undefined,0,0,291,179873,969926
1,24,female,Belg,2,67,guess,win,15,right,8,guess_start,370,space,0,0,291,179500,970299
1,24,female,Belg,2,67,guess,win,15,right,8,guess_choice,515,j,0,0,291,178980,970819
1,24,female,Belg,2,67,guess,win,15,right,8,guess_outcome,0,undefined,0,0,311,177425,972374
1,24,female,Belg,2,67,ITC,win,15,right,8,ITC_start,321,space,0,0,311,177102,972697
1,24,female,Belg,2,67,ITC,win,15,right,8,ITC_choice,977,f,0,0,311,176122,973677
1,24,female,Belg,2,67,ITC,win,15,right,8,ITC_wait,0,undefined,0,0,311,176119,973680
1,24,female,Belg,2,67,ITC,win,15,right,8,ITC_collect,420,k,0,0,311,175697,974102
1,24,female,Belg,2,67,ITC,win,15,right,8,ITC_outcome,0,undefined,0,0,319,174691,975108
1,24,female,Belg,2,68,guess,loss,30,left,3,guess_start,796,space,0,0,319,173892,975907
1,24,female,Belg,2,68,guess,loss,30,left,3,guess_choice,572,j,0,0,319,173316,976483
1,24,female,Belg,2,68,guess,loss,30,left,3,guess_outcome,0,undefined,0,0,304,171759,978040
1,24,female,Belg,2,68,ITC,loss,30,left,3,ITC_start,358,space,0,0,304,171399,978400
1,24,female,Belg,2,68,ITC,loss,30,left,3,ITC_choice,722,j,0,0,304,170675,979124
1,24,female,Belg,2,68,ITC,loss,30,left,3,ITC_wait,0,undefined,0,0,304,170671,979128
1,24,female,Belg,2,68,ITC,loss,30,left,3,ITC_collect,301,k,0,0,304,170367,979432
1,24,female,Belg,2,68,ITC,loss,30,left,3,ITC_outcome,0,undefined,0,0,307,169362,980437
1,24,female,Belg,2,69,guess,win,5,right,12,guess_start,265,space,0,0,307,169094,980705
1,24,female,Belg,2,69,guess,win,5,right,12,guess_choice,880,j,0,0,307,168210,981589
1,24,female,Belg,2,69,guess,win,5,right,12,guess_outcome,0,undefined,0,0,327,166656,983143
1,24,female,Belg,2,69,ITC,win,5,right,12,ITC_start,354,space,0,0,327,166300,983499
1,24,female,Belg,2,69,ITC,win,5,right,12,ITC_choice,1146,f,0,0,327,165153,984646
1,24,female,Belg,2,69,ITC,win,5,right,12,ITC_wait,0,undefined,0,0,327,165149,984650
1,24,female,Belg,2,69,ITC,win,5,right,12,ITC_collect,471,k,0,0,327,164677,985122
1,24,female,Belg,2,69,ITC,win,5,right,12,ITC_outcome,0,undefined,0,0,339,163672,986127
1,24,female,Belg,2,70,guess,loss,15,left,8,guess_start,376,space,0,0,339,163293,986506
1,24,female,Belg,2,70,guess,loss,15,left,8,guess_choice,540,j,0,0,339,162749,987050
1,24,female,Belg,2,70,guess,loss,15,left,8,guess_outcome,0,undefined,0,0,324,161194,988605
1,24,female,Belg,2,70,ITC,loss,15,left,8,ITC_start,436,space,0,0,324,160756,989043
1,24,female,Belg,2,70,ITC,loss,15,left,8,ITC_choice,455,j,0,0,324,160299,989500
1,24,female,Belg,2,70,ITC,loss,15,left,8,ITC_wait,0,undefined,0,0,324,160295,989504
1,24,female,Belg,2,70,ITC,loss,15,left,8,ITC_collect,238,k,0,0,324,160055,989744
1,24,female,Belg,2,70,ITC,loss,15,left,8,ITC_outcome,0,undefined,0,0,332,159049,990750
1,24,female,Belg,2,71,guess,loss,5,left,11,guess_start,319,space,0,0,332,158727,991072
1,24,female,Belg,2,71,guess,loss,5,left,11,guess_choice,389,f,0,0,332,158333,991466
1,24,female,Belg,2,71,guess,loss,5,left,11,guess_outcome,0,undefined,0,0,317,156776,993023
1,24,female,Belg,2,71,ITC,loss,5,left,11,ITC_start,267,space,0,0,317,156507,993292
1,24,female,Belg,2,71,ITC,loss,5,left,11,ITC_choice,328,j,0,0,317,156177,993622
1,24,female,Belg,2,71,ITC,loss,5,left,11,ITC_wait,0,undefined,0,0,317,156174,993625
1,24,female,Belg,2,71,ITC,loss,5,left,11,ITC_collect,274,k,0,0,317,155899,993900
1,24,female,Belg,2,71,ITC,loss,5,left,11,ITC_outcome,0,undefined,0,0,328,154895,994904
1,24,female,Belg,2,72,guess,win,30,left,5,guess_start,261,space,0,0,328,154632,995167
1,24,female,Belg,2,72,guess,win,30,left,5,guess_choice,429,j,0,0,328,154199,995600
1,24,female,Belg,2,72,guess,win,30,left,5,guess_outcome,0,undefined,0,0,348,152643,997156
1,24,female,Belg,2,72,ITC,win,30,left,5,ITC_start,284,space,0,0,348,152357,997442
1,24,female,Belg,2,72,ITC,win,30,left,5,ITC_choice,285,j,0,0,348,152070,997729
1,24,female,Belg,2,72,ITC,win,30,left,5,ITC_wait,0,undefined,0,0,348,152066,997733
1,24,female,Belg,2,72,ITC,win,30,left,5,ITC_collect,385,k,0,0,348,151680,998119
1,24,female,Belg,2,72,ITC,win,30,left,5,ITC_outcome,0,undefined,0,0,353,150675,999124
1,24,female,Belg,2,73,guess,neutral,30,right,2,guess_start,341,space,0,0,353,150332,999467
1,24,female,Belg,2,73,guess,neutral,30,right,2,guess_choice,881,f,0,0,353,149447,1000352
1,24,female,Belg,2,73,guess,neutral,30,right,2,guess_outcome,0,undefined,0,0,353,147889,1001910
1,24,female,Belg,2,73,ITC,neutral,30,right,2,ITC_start,157,space,0,0,353,147730,1002069
1,24,female,Belg,2,73,ITC,neutral,30,right,2,ITC_choice,731,f,0,0,353,146996,1002803
1,24,female,Belg,2,73,ITC,neutral,30,right,2,ITC_wait,0,undefined,0,0,353,146992,1002807
1,24,female,Belg,2,73,ITC,neutral,30,right,2,ITC_collect,607,k,0,0,353,146383,1003416
1,24,female,Belg,2,73,ITC,neutral,30,right,2,ITC_outcome,0,undefined,0,0,355,145380,1004419
1,24,female,Belg,2,74,guess,win,5,left,12,guess_start,271,space,0,0,355,145107,1004692
1,24,female,Belg,2,74,guess,win,5,left,12,guess_choice,666,j,0,0,355,144437,1005362
1,24,female,Belg,2,74,guess,win,5,left,12,guess_outcome,0,undefined,0,0,375,142879,1006920
1,24,female,Belg,2,74,ITC,win,5,left,12,ITC_start,270,space,0,0,375,142607,1007192
1,24,female,Belg,2,74,ITC,win,5,left,12,ITC_choice,485,j,0,0,375,142120,1007679
1,24,female,Belg,2,74,ITC,win,5,left,12,ITC_wait,0,undefined,0,0,375,142116,1007683
1,24,female,Belg,2,74,ITC,win,5,left,12,ITC_collect,339,k,0,0,375,141775,1008024
1,24,female,Belg,2,74,ITC,win,5,left,12,ITC_outcome,0,undefined,0,0,387,140771,1009028
1,24,female,Belg,2,75,guess,neutral,15,left,10,guess_start,110,space,0,0,387,140658,1009141
1,24,female,Belg,2,75,guess,neutral,15,left,10,guess_choice,612,j,0,0,387,140042,1009757
1,24,female,Belg,2,75,guess,neutral,15,left,10,guess_outcome,0,undefined,0,0,387,138485,1011314
1,24,female,Belg,2,75,ITC,neutral,15,left,10,ITC_start,321,space,0,0,387,138162,1011637
1,24,female,Belg,2,75,ITC,neutral,15,left,10,ITC_choice,507,j,0,0,387,137653,1012146
1,24,female,Belg,2,75,ITC,neutral,15,left,10,ITC_wait,0,undefined,0,0,387,137649,1012150
1,24,female,Belg,2,75,ITC,neutral,15,left,10,ITC_collect,250,k,0,0,387,137397,1012402
1,24,female,Belg,2,75,ITC,neutral,15,left,10,ITC_outcome,0,undefined,0,0,397,136394,1013405
1,24,female,Belg,2,76,guess,win,5,left,11,guess_start,277,space,0,0,397,136115,1013684
1,24,female,Belg,2,76,guess,win,5,left,11,guess_choice,513,j,0,0,397,135598,1014201
1,24,female,Belg,2,76,guess,win,5,left,11,guess_outcome,0,undefined,0,0,417,134043,1015756
1,24,female,Belg,2,76,ITC,win,5,left,11,ITC_start,246,space,0,0,417,133796,1016003
1,24,female,Belg,2,76,ITC,win,5,left,11,ITC_choice,617,j,0,0,417,133176,1016623
1,24,female,Belg,2,76,ITC,win,5,left,11,ITC_wait,0,undefined,0,0,417,133172,1016627
1,24,female,Belg,2,76,ITC,win,5,left,11,ITC_collect,219,k,0,0,417,132951,1016848
1,24,female,Belg,2,76,ITC,win,5,left,11,ITC_outcome,0,undefined,0,0,428,131948,1017851
1,24,female,Belg,2,77,guess,loss,5,left,16,guess_start,266,space,0,0,428,131680,1018119
1,24,female,Belg,2,77,guess,loss,5,left,16,guess_choice,408,j,0,0,428,131267,1018532
1,24,female,Belg,2,77,guess,loss,5,left,16,guess_outcome,0,undefined,0,0,413,129713,1020086
1,24,female,Belg,2,77,ITC,loss,5,left,16,ITC_start,417,space,0,0,413,129294,1020505
1,24,female,Belg,2,77,ITC,loss,5,left,16,ITC_choice,506,j,0,0,413,128786,1021013
1,24,female,Belg,2,77,ITC,loss,5,left,16,ITC_wait,0,undefined,0,0,413,128783,1021016
1,24,female,Belg,2,77,ITC,loss,5,left,16,ITC_collect,260,k,0,0,413,128521,1021278
1,24,female,Belg,2,77,ITC,loss,5,left,16,ITC_outcome,0,undefined,0,0,429,127518,1022281
1,24,female,Belg,2,78,guess,loss,15,left,10,guess_start,271,space,0,0,429,127246,1022553
1,24,female,Belg,2,78,guess,loss,15,left,10,guess_choice,595,f,0,0,429,126648,1023151
1,24,female,Belg,2,78,guess,loss,15,left,10,guess_outcome,0,undefined,0,0,414,125093,1024706
1,24,female,Belg,2,78,ITC,loss,15,left,10,ITC_start,227,space,0,0,414,124864,1024935
1,24,female,Belg,2,78,ITC,loss,15,left,10,ITC_choice,238,j,0,0,414,124624,1025175
1,24,female,Belg,2,78,ITC,loss,15,left,10,ITC_wait,0,undefined,0,0,414,124619,1025180
1,24,female,Belg,2,78,ITC,loss,15,left,10,ITC_collect,285,k,0,0,414,124331,1025468
1,24,female,Belg,2,78,ITC,loss,15,left,10,ITC_outcome,0,undefined,0,0,424,123328,1026471
1,24,female,Belg,2,79,guess,win,5,left,13,guess_start,421,space,0,0,424,122904,1026895
1,24,female,Belg,2,79,guess,win,5,left,13,guess_choice,616,j,0,0,424,122284,1027515
1,24,female,Belg,2,79,guess,win,5,left,13,guess_outcome,0,undefined,0,0,444,120726,1029073
1,24,female,Belg,2,79,ITC,win,5,left,13,ITC_start,247,space,0,0,444,120477,1029322
1,24,female,Belg,2,79,ITC,win,5,left,13,ITC_choice,307,j,0,0,444,120168,1029631
1,24,female,Belg,2,79,ITC,win,5,left,13,ITC_wait,0,undefined,0,0,444,120164,1029635
1,24,female,Belg,2,79,ITC,win,5,left,13,ITC_collect,304,k,0,0,444,119859,1029940
1,24,female,Belg,2,79,ITC,win,5,left,13,ITC_outcome,0,undefined,0,0,457,118854,1030945
1,24,female,Belg,2,80,guess,win,30,right,5,guess_start,182,space,0,0,457,118668,1031131
1,24,female,Belg,2,80,guess,win,30,right,5,guess_choice,563,j,0,0,457,118103,1031696
1,24,female,Belg,2,80,guess,win,30,right,5,guess_outcome,0,undefined,0,0,477,116547,1033252
1,24,female,Belg,2,80,ITC,win,30,right,5,ITC_start,283,space,0,0,477,116263,1033536
1,24,female,Belg,2,80,ITC,win,30,right,5,ITC_choice,305,j,0,0,477,115956,1033843
1,24,female,Belg,2,80,ITC,win,30,right,5,ITC_wait,0,undefined,0,0,477,85948,1063851
1,24,female,Belg,2,80,ITC,win,30,right,5,ITC_collect,2501,k,0,0,477,83445,1066354
1,24,female,Belg,2,80,ITC,win,30,right,5,ITC_outcome,0,undefined,0,0,497,82441,1067358
1,24,female,Belg,2,81,guess,win,15,right,8,guess_start,671,space,0,0,497,81768,1068031
1,24,female,Belg,2,81,guess,win,15,right,8,guess_choice,618,j,0,0,497,81147,1068652
1,24,female,Belg,2,81,guess,win,15,right,8,guess_outcome,0,undefined,0,0,517,79589,1070210
1,24,female,Belg,2,81,ITC,win,15,right,8,ITC_start,399,space,0,0,517,79187,1070612
1,24,female,Belg,2,81,ITC,win,15,right,8,ITC_choice,719,f,0,0,517,78466,1071333
1,24,female,Belg,2,81,ITC,win,15,right,8,ITC_wait,0,undefined,0,0,517,78462,1071337
1,24,female,Belg,2,81,ITC,win,15,right,8,ITC_collect,432,k,0,0,517,78028,1071771
1,24,female,Belg,2,81,ITC,win,15,right,8,ITC_outcome,0,undefined,0,0,525,77020,1072779
1,24,female,Belg,2,82,guess,win,5,left,14,guess_start,292,space,0,0,525,76725,1073074
1,24,female,Belg,2,82,guess,win,5,left,14,guess_choice,495,j,0,0,525,76226,1073573
1,24,female,Belg,2,82,guess,win,5,left,14,guess_outcome,0,undefined,0,0,545,74669,1075130
1,24,female,Belg,2,82,ITC,win,5,left,14,ITC_start,346,space,0,0,545,74321,1075478
1,24,female,Belg,2,82,ITC,win,5,left,14,ITC_choice,959,j,0,0,545,73360,1076439
1,24,female,Belg,2,82,ITC,win,5,left,14,ITC_wait,0,undefined,0,0,545,73355,1076444
1,24,female,Belg,2,82,ITC,win,5,left,14,ITC_collect,288,k,0,0,545,73066,1076733
1,24,female,Belg,2,82,ITC,win,5,left,14,ITC_outcome,0,undefined,0,0,559,72062,1077737
1,24,female,Belg,2,83,guess,loss,15,left,12,guess_start,319,space,0,0,559,71740,1078059
1,24,female,Belg,2,83,guess,loss,15,left,12,guess_choice,519,j,0,0,559,71217,1078582
1,24,female,Belg,2,83,guess,loss,15,left,12,guess_outcome,0,undefined,0,0,544,69659,1080140
1,24,female,Belg,2,83,ITC,loss,15,left,12,ITC_start,76,space,0,0,544,69581,1080218
1,24,female,Belg,2,83,ITC,loss,15,left,12,ITC_choice,589,j,0,0,544,68991,1080808
1,24,female,Belg,2,83,ITC,loss,15,left,12,ITC_wait,0,undefined,0,0,544,68988,1080811
1,24,female,Belg,2,83,ITC,loss,15,left,12,ITC_collect,228,k,0,0,544,68758,1081041
1,24,female,Belg,2,83,ITC,loss,15,left,12,ITC_outcome,0,undefined,0,0,556,67751,1082048
1,24,female,Belg,2,84,guess,neutral,15,right,11,guess_start,250,space,0,0,556,67499,1082300
1,24,female,Belg,2,84,guess,neutral,15,right,11,guess_choice,785,f,0,0,556,66710,1083089
1,24,female,Belg,2,84,guess,neutral,15,right,11,guess_outcome,0,undefined,0,0,556,65155,1084644
1,24,female,Belg,2,84,ITC,neutral,15,right,11,ITC_start,372,space,0,0,556,64781,1085018
1,24,female,Belg,2,84,ITC,neutral,15,right,11,ITC_choice,628,f,0,0,556,64151,1085648
1,24,female,Belg,2,84,ITC,neutral,15,right,11,ITC_wait,0,undefined,0,0,556,64147,1085652
1,24,female,Belg,2,84,ITC,neutral,15,right,11,ITC_collect,409,k,0,0,556,63737,1086062
1,24,female,Belg,2,84,ITC,neutral,15,right,11,ITC_outcome,0,undefined,0,0,567,62733,1087066
1,24,female,Belg,2,85,guess,loss,5,left,15,guess_start,327,space,0,0,567,62404,1087395
1,24,female,Belg,2,85,guess,loss,5,left,15,guess_choice,463,j,0,0,567,61937,1087862
1,24,female,Belg,2,85,guess,loss,5,left,15,guess_outcome,0,undefined,0,0,552,60382,1089417
1,24,female,Belg,2,85,ITC,loss,5,left,15,ITC_start,294,space,0,0,552,60086,1089713
1,24,female,Belg,2,85,ITC,loss,5,left,15,ITC_choice,406,j,0,0,552,59679,1090120
1,24,female,Belg,2,85,ITC,loss,5,left,15,ITC_wait,0,undefined,0,0,552,59674,1090125
1,24,female,Belg,2,85,ITC,loss,5,left,15,ITC_collect,507,k,0,0,552,59165,1090634
1,24,female,Belg,2,85,ITC,loss,5,left,15,ITC_outcome,0,undefined,0,0,567,58159,1091640
1,24,female,Belg,2,86,guess,win,30,right,4,guess_start,887,space,0,0,567,57270,1092529
1,24,female,Belg,2,86,guess,win,30,right,4,guess_choice,490,j,0,0,567,56776,1093023
1,24,female,Belg,2,86,guess,win,30,right,4,guess_outcome,0,undefined,0,0,587,55222,1094577
1,24,female,Belg,2,86,ITC,win,30,right,4,ITC_start,207,space,0,0,587,55013,1094786
1,24,female,Belg,2,86,ITC,win,30,right,4,ITC_choice,599,f,0,0,587,54411,1095388
1,24,female,Belg,2,86,ITC,win,30,right,4,ITC_wait,0,undefined,0,0,587,54406,1095393
1,24,female,Belg,2,86,ITC,win,30,right,4,ITC_collect,694,k,0,0,587,53711,1096088
1,24,female,Belg,2,86,ITC,win,30,right,4,ITC_outcome,0,undefined,0,0,591,52707,1097092
1,24,female,Belg,2,87,guess,win,5,right,15,guess_start,231,space,0,0,591,52473,1097326
1,24,female,Belg,2,87,guess,win,5,right,15,guess_choice,474,j,0,0,591,51995,1097804
1,24,female,Belg,2,87,guess,win,5,right,15,guess_outcome,0,undefined,0,0,611,50438,1099361
1,24,female,Belg,2,87,ITC,win,5,right,15,ITC_start,324,space,0,0,611,50112,1099687
1,24,female,Belg,2,87,ITC,win,5,right,15,ITC_choice,544,f,0,0,611,49566,1100233
1,24,female,Belg,2,87,ITC,win,5,right,15,ITC_wait,0,undefined,0,0,611,49563,1100236
1,24,female,Belg,2,87,ITC,win,5,right,15,ITC_collect,498,k,0,0,611,49062,1100737
1,24,female,Belg,2,87,ITC,win,5,right,15,ITC_outcome,0,undefined,0,0,626,48058,1101741
1,24,female,Belg,2,88,guess,neutral,30,left,3,guess_start,396,space,0,0,626,47660,1102139
1,24,female,Belg,2,88,guess,neutral,30,left,3,guess_choice,556,j,0,0,626,47098,1102701
1,24,female,Belg,2,88,guess,neutral,30,left,3,guess_outcome,0,undefined,0,0,626,45540,1104259
1,24,female,Belg,2,88,ITC,neutral,30,left,3,ITC_start,303,space,0,0,626,45234,1104565
1,24,female,Belg,2,88,ITC,neutral,30,left,3,ITC_choice,495,j,0,0,626,44738,1105061
1,24,female,Belg,2,88,ITC,neutral,30,left,3,ITC_wait,0,undefined,0,0,626,44734,1105065
1,24,female,Belg,2,88,ITC,neutral,30,left,3,ITC_collect,302,k,0,0,626,44431,1105368
1,24,female,Belg,2,88,ITC,neutral,30,left,3,ITC_outcome,0,undefined,0,0,629,43425,1106374
1,24,female,Belg,2,89,guess,loss,30,left,5,guess_start,345,space,0,0,629,43079,1106720
1,24,female,Belg,2,89,guess,loss,30,left,5,guess_choice,528,j,0,0,629,42547,1107252
1,24,female,Belg,2,89,guess,loss,30,left,5,guess_outcome,0,undefined,0,0,614,40993,1108806
1,24,female,Belg,2,89,ITC,loss,30,left,5,ITC_start,318,space,0,0,614,40673,1109126
1,24,female,Belg,2,89,ITC,loss,30,left,5,ITC_choice,349,j,0,0,614,40322,1109477
1,24,female,Belg,2,89,ITC,loss,30,left,5,ITC_wait,0,undefined,0,0,614,40318,1109481
1,24,female,Belg,2,89,ITC,loss,30,left,5,ITC_collect,440,k,0,0,614,39877,1109922
1,24,female,Belg,2,89,ITC,loss,30,left,5,ITC_outcome,0,undefined,0,0,619,38873,1110926
1,24,female,Belg,2,90,guess,neutral,30,left,7,guess_start,287,space,0,0,619,38584,1111215
1,24,female,Belg,2,90,guess,neutral,30,left,7,guess_choice,550,f,0,0,619,38031,1111768
1,24,female,Belg,2,90,guess,neutral,30,left,7,guess_outcome,0,undefined,0,0,619,36476,1113323
1,24,female,Belg,2,90,ITC,neutral,30,left,7,ITC_start,278,space,0,0,619,36196,1113603
1,24,female,Belg,2,90,ITC,neutral,30,left,7,ITC_choice,651,j,0,0,619,35543,1114256
1,24,female,Belg,2,90,ITC,neutral,30,left,7,ITC_wait,0,undefined,0,0,619,35540,1114259
1,24,female,Belg,2,90,ITC,neutral,30,left,7,ITC_collect,342,k,0,0,619,35196,1114603
1,24,female,Belg,2,90,ITC,neutral,30,left,7,ITC_outcome,0,undefined,0,0,626,34191,1115608
1,24,female,Belg,2,91,guess,loss,30,left,4,guess_start,358,space,0,0,626,33830,1115969
1,24,female,Belg,2,91,guess,loss,30,left,4,guess_choice,525,j,0,0,626,33302,1116497
1,24,female,Belg,2,91,guess,loss,30,left,4,guess_outcome,0,undefined,0,0,611,31743,1118056
1,24,female,Belg,2,91,ITC,loss,30,left,4,ITC_start,291,space,0,0,611,31450,1118349
1,24,female,Belg,2,91,ITC,loss,30,left,4,ITC_choice,469,j,0,0,611,30979,1118820
1,24,female,Belg,2,91,ITC,loss,30,left,4,ITC_wait,0,undefined,0,0,611,30975,1118824
1,24,female,Belg,2,91,ITC,loss,30,left,4,ITC_collect,276,k,0,0,611,30698,1119101
1,24,female,Belg,2,91,ITC,loss,30,left,4,ITC_outcome,0,undefined,0,0,615,29691,1120108
1,24,female,Belg,2,92,guess,loss,30,right,3,guess_start,272,space,0,0,615,29417,1120382
1,24,female,Belg,2,92,guess,loss,30,right,3,guess_choice,577,j,0,0,615,28837,1120962
1,24,female,Belg,2,92,guess,loss,30,right,3,guess_outcome,0,undefined,0,0,600,27281,1122518
1,24,female,Belg,2,92,ITC,loss,30,right,3,ITC_start,282,space,0,0,600,26997,1122802
1,24,female,Belg,2,92,ITC,loss,30,right,3,ITC_choice,339,j,0,0,600,26656,1123143
1,24,female,Belg,2,92,ITC,loss,30,right,3,ITC_wait,0,undefined,0,0,600,-8,1149807
1,24,female,Belg,3,93,guess,win,15,left,10,guess_start,734,space,0,0,0,479266,1167098
1,24,female,Belg,3,93,guess,win,15,left,10,guess_choice,1091,j,0,0,0,478171,1168193
1,24,female,Belg,3,93,guess,win,15,left,10,guess_outcome,0,undefined,0,0,20,476616,1169748
1,24,female,Belg,3,93,ITC,win,15,left,10,ITC_start,783,space,0,0,20,475831,1170533
1,24,female,Belg,3,93,ITC,win,15,left,10,ITC_choice,720,j,0,0,20,475109,1171255
1,24,female,Belg,3,93,ITC,win,15,left,10,ITC_wait,0,undefined,0,0,20,475106,1171258
1,24,female,Belg,3,93,ITC,win,15,left,10,ITC_collect,321,k,0,0,20,474783,1171581
1,24,female,Belg,3,93,ITC,win,15,left,10,ITC_outcome,0,undefined,0,0,30,473777,1172587
1,24,female,Belg,3,94,guess,neutral,15,left,7,guess_start,682,space,0,0,30,473093,1173271
1,24,female,Belg,3,94,guess,neutral,15,left,7,guess_choice,555,f,0,0,30,472534,1173830
1,24,female,Belg,3,94,guess,neutral,15,left,7,guess_outcome,0,undefined,0,0,30,470979,1175385
1,24,female,Belg,3,94,ITC,neutral,15,left,7,ITC_start,521,space,0,0,30,470456,1175908
1,24,female,Belg,3,94,ITC,neutral,15,left,7,ITC_choice,606,j,0,0,30,469848,1176516
1,24,female,Belg,3,94,ITC,neutral,15,left,7,ITC_wait,0,undefined,0,0,30,469844,1176520
1,24,female,Belg,3,94,ITC,neutral,15,left,7,ITC_collect,457,k,0,0,30,469385,1176979
1,24,female,Belg,3,94,ITC,neutral,15,left,7,ITC_outcome,0,undefined,0,0,37,468378,1177986
1,24,female,Belg,3,95,guess,loss,5,left,10,guess_start,332,space,0,0,37,468043,1178321
1,24,female,Belg,3,95,guess,loss,5,left,10,guess_choice,492,j,0,0,37,467547,1178817
1,24,female,Belg,3,95,guess,loss,5,left,10,guess_outcome,0,undefined,0,0,22,465991,1180373
1,24,female,Belg,3,95,ITC,loss,5,left,10,ITC_start,260,space,0,0,22,465729,1180635
1,24,female,Belg,3,95,ITC,loss,5,left,10,ITC_choice,457,j,0,0,22,465270,1181094
1,24,female,Belg,3,95,ITC,loss,5,left,10,ITC_wait,0,undefined,0,0,22,465266,1181098
1,24,female,Belg,3,95,ITC,loss,5,left,10,ITC_collect,1307,k,0,0,22,463958,1182406
1,24,female,Belg,3,95,ITC,loss,5,left,10,ITC_outcome,0,undefined,0,0,32,462954,1183410
1,24,female,Belg,3,96,guess,win,30,left,8,guess_start,348,space,0,0,32,462604,1183760
1,24,female,Belg,3,96,guess,win,30,left,8,guess_choice,525,j,0,0,32,462075,1184289
1,24,female,Belg,3,96,guess,win,30,left,8,guess_outcome,0,undefined,0,0,52,460518,1185846
1,24,female,Belg,3,96,ITC,win,30,left,8,ITC_start,703,space,0,0,52,459813,1186551
1,24,female,Belg,3,96,ITC,win,30,left,8,ITC_choice,524,j,0,0,52,459287,1187077
1,24,female,Belg,3,96,ITC,win,30,left,8,ITC_wait,0,undefined,0,0,52,459283,1187081
1,24,female,Belg,3,96,ITC,win,30,left,8,ITC_collect,251,k,0,0,52,459030,1187334
1,24,female,Belg,3,96,ITC,win,30,left,8,ITC_outcome,0,undefined,0,0,60,458022,1188342
1,24,female,Belg,3,97,guess,loss,15,left,9,guess_start,381,space,0,0,60,457638,1188726
1,24,female,Belg,3,97,guess,loss,15,left,9,guess_choice,393,f,0,0,60,457241,1189123
1,24,female,Belg,3,97,guess,loss,15,left,9,guess_outcome,0,undefined,0,0,45,455684,1190680
1,24,female,Belg,3,97,ITC,loss,15,left,9,ITC_start,346,space,0,0,45,455337,1191027
1,24,female,Belg,3,97,ITC,loss,15,left,9,ITC_choice,312,j,0,0,45,455023,1191341
1,24,female,Belg,3,97,ITC,loss,15,left,9,ITC_wait,0,undefined,0,0,45,455020,1191344
1,24,female,Belg,3,97,ITC,loss,15,left,9,ITC_collect,1130,k,0,0,45,453889,1192475
1,24,female,Belg,3,97,ITC,loss,15,left,9,ITC_outcome,0,undefined,0,0,54,452885,1193479
1,24,female,Belg,3,98,guess,loss,15,right,6,guess_start,296,space,0,0,54,452587,1193777
1,24,female,Belg,3,98,guess,loss,15,right,6,guess_choice,408,j,0,0,54,452173,1194191
1,24,female,Belg,3,98,guess,loss,15,right,6,guess_outcome,0,undefined,0,0,39,450615,1195749
1,24,female,Belg,3,98,ITC,loss,15,right,6,ITC_start,183,space,0,0,39,450430,1195934
1,24,female,Belg,3,98,ITC,loss,15,right,6,ITC_choice,547,f,0,0,39,449881,1196483
1,24,female,Belg,3,98,ITC,loss,15,right,6,ITC_wait,0,undefined,0,0,39,449877,1196487
1,24,female,Belg,3,98,ITC,loss,15,right,6,ITC_collect,843,k,0,0,39,449032,1197332
1,24,female,Belg,3,98,ITC,loss,15,right,6,ITC_outcome,0,undefined,0,0,45,448026,1198338
1,24,female,Belg,3,99,guess,win,5,right,10,guess_start,276,space,0,0,45,447747,1198617
1,24,female,Belg,3,99,guess,win,5,right,10,guess_choice,815,j,0,0,45,446928,1199436
1,24,female,Belg,3,99,guess,win,5,right,10,guess_outcome,0,undefined,0,0,65,445373,1200991
1,24,female,Belg,3,99,ITC,win,5,right,10,ITC_start,398,space,0,0,65,444972,1201392
1,24,female,Belg,3,99,ITC,win,5,right,10,ITC_choice,491,f,0,0,65,444479,1201885
1,24,female,Belg,3,99,ITC,win,5,right,10,ITC_wait,0,undefined,0,0,65,444476,1201888
1,24,female,Belg,3,99,ITC,win,5,right,10,ITC_collect,408,k,0,0,65,444066,1202298
1,24,female,Belg,3,99,ITC,win,5,right,10,ITC_outcome,0,undefined,0,0,75,443062,1203302
1,24,female,Belg,3,100,guess,loss,5,left,11,guess_start,322,space,0,0,75,442737,1203627
1,24,female,Belg,3,100,guess,loss,5,left,11,guess_choice,638,j,0,0,75,442096,1204268
1,24,female,Belg,3,100,guess,loss,5,left,11,guess_outcome,0,undefined,0,0,60,440537,1205827
1,24,female,Belg,3,100,ITC,loss,5,left,11,ITC_start,329,space,0,0,60,440206,1206158
1,24,female,Belg,3,100,ITC,loss,5,left,11,ITC_choice,744,f,0,0,60,439460,1206904
1,24,female,Belg,3,100,ITC,loss,5,left,11,ITC_wait,0,undefined,0,0,60,434454,1211910
1,24,female,Belg,3,100,ITC,loss,5,left,11,ITC_collect,11157,k,0,0,60,423294,1223070
1,24,female,Belg,3,100,ITC,loss,5,left,11,ITC_outcome,0,undefined,0,0,80,422290,1224074
1,24,female,Belg,3,101,guess,loss,15,right,7,guess_start,398,space,0,0,80,421890,1224474
1,24,female,Belg,3,101,guess,loss,15,right,7,guess_choice,578,j,0,0,80,421307,1225057
1,24,female,Belg,3,101,guess,loss,15,right,7,guess_outcome,0,undefined,0,0,65,419749,1226615
1,24,female,Belg,3,101,ITC,loss,15,right,7,ITC_start,416,space,0,0,65,419331,1227033
1,24,female,Belg,3,101,ITC,loss,15,right,7,ITC_choice,643,j,0,0,65,418686,1227678
1,24,female,Belg,3,101,ITC,loss,15,right,7,ITC_wait,0,undefined,0,0,65,403680,1242684
1,24,female,Belg,3,101,ITC,loss,15,right,7,ITC_collect,4900,k,0,0,65,398779,1247585
1,24,female,Belg,3,101,ITC,loss,15,right,7,ITC_outcome,0,undefined,0,0,85,397775,1248589
1,24,female,Belg,3,102,guess,neutral,5,right,15,guess_start,670,space,0,0,85,397103,1249261
1,24,female,Belg,3,102,guess,neutral,5,right,15,guess_choice,656,f,0,0,85,396442,1249922
1,24,female,Belg,3,102,guess,neutral,5,right,15,guess_outcome,0,undefined,0,0,85,394886,1251478
1,24,female,Belg,3,102,ITC,neutral,5,right,15,ITC_start,602,space,0,0,85,394282,1252082
1,24,female,Belg,3,102,ITC,neutral,5,right,15,ITC_choice,820,j,0,0,85,393459,1252905
1,24,female,Belg,3,102,ITC,neutral,5,right,15,ITC_wait,0,undefined,0,0,85,388454,1257910
1,24,female,Belg,3,102,ITC,neutral,5,right,15,ITC_collect,12223,k,0,0,85,376229,1270135
1,24,female,Belg,3,102,ITC,neutral,5,right,15,ITC_outcome,0,undefined,0,0,105,375224,1271140
1,24,female,Belg,3,103,guess,neutral,5,left,13,guess_start,557,space,0,0,105,374664,1271700
1,24,female,Belg,3,103,guess,neutral,5,left,13,guess_choice,597,f,0,0,105,374063,1272301
1,24,female,Belg,3,103,guess,neutral,5,left,13,guess_outcome,0,undefined,0,0,105,372507,1273857
1,24,female,Belg,3,103,ITC,neutral,5,left,13,ITC_start,451,space,0,0,105,372054,1274310
1,24,female,Belg,3,103,ITC,neutral,5,left,13,ITC_choice,712,f,0,0,105,371340,1275024
1,24,female,Belg,3,103,ITC,neutral,5,left,13,ITC_wait,0,undefined,0,0,105,366336,1280028
1,24,female,Belg,3,103,ITC,neutral,5,left,13,ITC_collect,1777,k,0,0,105,364557,1281807
1,24,female,Belg,3,103,ITC,neutral,5,left,13,ITC_outcome,0,undefined,0,0,125,363551,1282813
1,24,female,Belg,3,104,guess,neutral,5,left,16,guess_start,328,space,0,0,125,363220,1283144
1,24,female,Belg,3,104,guess,neutral,5,left,16,guess_choice,565,f,0,0,125,362651,1283713
1,24,female,Belg,3,104,guess,neutral,5,left,16,guess_outcome,0,undefined,0,0,125,361094,1285270
1,24,female,Belg,3,104,ITC,neutral,5,left,16,ITC_start,515,space,0,0,125,360577,1285787
1,24,female,Belg,3,104,ITC,neutral,5,left,16,ITC_choice,770,f,0,0,125,359805,1286559
1,24,female,Belg,3,104,ITC,neutral,5,left,16,ITC_wait,0,undefined,0,0,125,354802,1291562
1,24,female,Belg,3,104,ITC,neutral,5,left,16,ITC_collect,4919,k,0,0,125,349880,1296484
1,24,female,Belg,3,104,ITC,neutral,5,left,16,ITC_outcome,0,undefined,0,0,145,348874,1297490
1,24,female,Belg,3,105,guess,loss,15,left,11,guess_start,1467,space,0,0,145,347405,1298959
1,24,female,Belg,3,105,guess,loss,15,left,11,guess_choice,1251,j,0,0,145,346149,1300215
1,24,female,Belg,3,105,guess,loss,15,left,11,guess_outcome,0,undefined,0,0,130,344596,1301768
1,24,female,Belg,3,105,ITC,loss,15,left,11,ITC_start,434,space,0,0,130,344160,1302204
1,24,female,Belg,3,105,ITC,loss,15,left,11,ITC_choice,484,f,0,0,130,343673,1302691
1,24,female,Belg,3,105,ITC,loss,15,left,11,ITC_wait,0,undefined,0,0,130,328667,1317697
1,24,female,Belg,3,105,ITC,loss,15,left,11,ITC_collect,706,k,0,0,130,327959,1318405
1,24,female,Belg,3,105,ITC,loss,15,left,11,ITC_outcome,0,undefined,0,0,150,326954,1319410
1,24,female,Belg,3,106,guess,win,30,left,2,guess_start,335,space,0,0,150,326616,1319748
1,24,female,Belg,3,106,guess,win,30,left,2,guess_choice,717,j,0,0,150,325895,1320469
1,24,female,Belg,3,106,guess,win,30,left,2,guess_outcome,0,undefined,0,0,170,324340,1322024
1,24,female,Belg,3,106,ITC,win,30,left,2,ITC_start,395,space,0,0,170,323944,1322420
1,24,female,Belg,3,106,ITC,win,30,left,2,ITC_choice,1367,f,0,0,170,322576,1323788
1,24,female,Belg,3,106,ITC,win,30,left,2,ITC_wait,0,undefined,0,0,170,292571,1353793
1,24,female,Belg,3,106,ITC,win,30,left,2,ITC_collect,1398,k,0,0,170,291170,1355194
1,24,female,Belg,3,106,ITC,win,30,left,2,ITC_outcome,0,undefined,0,0,190,290166,1356198
1,24,female,Belg,3,107,guess,neutral,5,left,10,guess_start,370,space,0,0,190,289793,1356571
1,24,female,Belg,3,107,guess,neutral,5,left,10,guess_choice,654,f,0,0,190,289135,1357229
1,24,female,Belg,3,107,guess,neutral,5,left,10,guess_outcome,0,undefined,0,0,190,287578,1358786
1,24,female,Belg,3,107,ITC,neutral,5,left,10,ITC_start,333,space,0,0,190,287243,1359121
1,24,female,Belg,3,107,ITC,neutral,5,left,10,ITC_choice,662,f,0,0,190,286579,1359785
1,24,female,Belg,3,107,ITC,neutral,5,left,10,ITC_wait,0,undefined,0,0,190,281573,1364791
1,24,female,Belg,3,107,ITC,neutral,5,left,10,ITC_collect,2209,k,0,0,190,279362,1367002
1,24,female,Belg,3,107,ITC,neutral,5,left,10,ITC_outcome,0,undefined,0,0,210,278357,1368007
1,24,female,Belg,3,108,guess,neutral,5,left,12,guess_start,677,space,0,0,210,277676,1368688
1,24,female,Belg,3,108,guess,neutral,5,left,12,guess_choice,1016,j,0,0,210,276655,1369709
1,24,female,Belg,3,108,guess,neutral,5,left,12,guess_outcome,0,undefined,0,0,210,275097,1371267
1,24,female,Belg,3,108,ITC,neutral,5,left,12,ITC_start,359,space,0,0,210,274736,1371628
1,24,female,Belg,3,108,ITC,neutral,5,left,12,ITC_choice,808,j,0,0,210,273926,1372438
1,24,female,Belg,3,108,ITC,neutral,5,left,12,ITC_wait,0,undefined,0,0,210,273922,1372442
1,24,female,Belg,3,108,ITC,neutral,5,left,12,ITC_collect,861,k,0,0,210,273060,1373304
1,24,female,Belg,3,108,ITC,neutral,5,left,12,ITC_outcome,0,undefined,0,0,222,272055,1374309
1,24,female,Belg,3,109,guess,neutral,15,left,6,guess_start,295,space,0,0,222,271757,1374607
1,24,female,Belg,3,109,guess,neutral,15,left,6,guess_choice,457,f,0,0,222,271296,1375068
1,24,female,Belg,3,109,guess,neutral,15,left,6,guess_outcome,0,undefined,0,0,222,269739,1376625
1,24,female,Belg,3,109,ITC,neutral,15,left,6,ITC_start,313,space,0,0,222,269424,1376940
1,24,female,Belg,3,109,ITC,neutral,15,left,6,ITC_choice,601,j,0,0,222,268821,1377543
1,24,female,Belg,3,109,ITC,neutral,15,left,6,ITC_wait,0,undefined,0,0,222,268817,1377547
1,24,female,Belg,3,109,ITC,neutral,15,left,6,ITC_collect,724,k,0,0,222,268092,1378272
1,24,female,Belg,3,109,ITC,neutral,15,left,6,ITC_outcome,0,undefined,0,0,228,267086,1379278
1,24,female,Belg,3,110,guess,loss,5,right,9,guess_start,283,space,0,0,228,266800,1379564
1,24,female,Belg,3,110,guess,loss,5,right,9,guess_choice,706,j,0,0,228,266089,1380275
1,24,female,Belg,3,110,guess,loss,5,right,9,guess_outcome,0,undefined,0,0,213,264533,1381831
1,24,female,Belg,3,110,ITC,loss,5,right,9,ITC_start,291,space,0,0,213,264240,1382124
1,24,female,Belg,3,110,ITC,loss,5,right,9,ITC_choice,701,j,0,0,213,263537,1382827
1,24,female,Belg,3,110,ITC,loss,5,right,9,ITC_wait,0,undefined,0,0,213,258529,1387835
1,24,female,Belg,3,110,ITC,loss,5,right,9,ITC_collect,1741,k,0,0,213,256786,1389578
1,24,female,Belg,3,110,ITC,loss,5,right,9,ITC_outcome,0,undefined,0,0,233,255781,1390583
1,24,female,Belg,3,111,guess,win,15,right,11,guess_start,2517,space,0,0,233,253261,1393103
1,24,female,Belg,3,111,guess,win,15,right,11,guess_choice,928,j,0,0,233,252329,1394035
1,24,female,Belg,3,111,guess,win,15,right,11,guess_outcome,0,undefined,0,0,253,250774,1395590
1,24,female,Belg,3,111,ITC,win,15,right,11,ITC_start,1275,space,0,0,253,249496,1396868
1,24,female,Belg,3,111,ITC,win,15,right,11,ITC_choice,680,j,0,0,253,248813,1397551
1,24,female,Belg,3,111,ITC,win,15,right,11,ITC_wait,0,undefined,0,0,253,233808,1412556
1,24,female,Belg,3,111,ITC,win,15,right,11,ITC_collect,7893,k,0,0,253,225913,1420451
1,24,female,Belg,3,111,ITC,win,15,right,11,ITC_outcome,0,undefined,0,0,273,224906,1421458
1,24,female,Belg,3,112,guess,neutral,15,right,9,guess_start,334,space,0,0,273,224570,1421794
1,24,female,Belg,3,112,guess,neutral,15,right,9,guess_choice,653,f,0,0,273,223913,1422451
1,24,female,Belg,3,112,guess,neutral,15,right,9,guess_outcome,0,undefined,0,0,273,222358,1424006
1,24,female,Belg,3,112,ITC,neutral,15,right,9,ITC_start,411,space,0,0,273,221945,1424419
1,24,female,Belg,3,112,ITC,neutral,15,right,9,ITC_choice,584,j,0,0,273,221359,1425005
1,24,female,Belg,3,112,ITC,neutral,15,right,9,ITC_wait,0,undefined,0,0,273,206354,1440010
1,24,female,Belg,3,112,ITC,neutral,15,right,9,ITC_collect,1703,k,0,0,273,204648,1441716
1,24,female,Belg,3,112,ITC,neutral,15,right,9,ITC_outcome,0,undefined,0,0,293,203642,1442722
1,24,female,Belg,3,113,guess,loss,30,right,1,guess_start,390,space,0,0,293,203249,1443115
1,24,female,Belg,3,113,guess,loss,30,right,1,guess_choice,567,j,0,0,293,202677,1443687
1,24,female,Belg,3,113,guess,loss,30,right,1,guess_outcome,0,undefined,0,0,278,201123,1445241
1,24,female,Belg,3,113,ITC,loss,30,right,1,ITC_start,468,space,0,0,278,200654,1445710
1,24,female,Belg,3,113,ITC,loss,30,right,1,ITC_choice,704,j,0,0,278,199948,1446416
1,24,female,Belg,3,113,ITC,loss,30,right,1,ITC_wait,0,undefined,0,0,278,169943,1476421
1,24,female,Belg,3,113,ITC,loss,30,right,1,ITC_collect,1218,k,0,0,278,168723,1477641
1,24,female,Belg,3,113,ITC,loss,30,right,1,ITC_outcome,0,undefined,0,0,298,167719,1478645
1,24,female,Belg,3,114,guess,win,15,right,6,guess_start,576,space,0,0,298,167140,1479224
1,24,female,Belg,3,114,guess,win,15,right,6,guess_choice,489,j,0,0,298,166646,1479718
1,24,female,Belg,3,114,guess,win,15,right,6,guess_outcome,0,undefined,0,0,318,165090,1481274
1,24,female,Belg,3,114,ITC,win,15,right,6,ITC_start,1550,space,0,0,318,163538,1482826
1,24,female,Belg,3,114,ITC,win,15,right,6,ITC_choice,792,j,0,0,318,162744,1483620
1,24,female,Belg,3,114,ITC,win,15,right,6,ITC_wait,0,undefined,0,0,318,147739,1498625
1,24,female,Belg,3,114,ITC,win,15,right,6,ITC_collect,5763,k,0,0,318,141973,1504391
1,24,female,Belg,3,114,ITC,win,15,right,6,ITC_outcome,0,undefined,0,0,338,140970,1505394
1,24,female,Belg,3,115,guess,win,5,left,16,guess_start,525,space,0,0,338,140442,1505922
1,24,female,Belg,3,115,guess,win,5,left,16,guess_choice,805,j,0,0,338,139633,1506731
1,24,female,Belg,3,115,guess,win,5,left,16,guess_outcome,0,undefined,0,0,358,138076,1508288
1,24,female,Belg,3,115,ITC,win,5,left,16,ITC_start,504,space,0,0,358,137570,1508794
1,24,female,Belg,3,115,ITC,win,5,left,16,ITC_choice,1104,j,0,0,358,136464,1509900
1,24,female,Belg,3,115,ITC,win,5,left,16,ITC_wait,0,undefined,0,0,358,136460,1509904
1,24,female,Belg,3,115,ITC,win,5,left,16,ITC_collect,814,k,0,0,358,135645,1510719
1,24,female,Belg,3,115,ITC,win,5,left,16,ITC_outcome,0,undefined,0,0,374,134641,1511723
1,24,female,Belg,3,116,guess,neutral,5,left,14,guess_start,388,space,0,0,374,134250,1512114
1,24,female,Belg,3,116,guess,neutral,5,left,14,guess_choice,528,f,0,0,374,133718,1512646
1,24,female,Belg,3,116,guess,neutral,5,left,14,guess_outcome,0,undefined,0,0,374,132158,1514206
1,24,female,Belg,3,116,ITC,neutral,5,left,14,ITC_start,456,space,0,0,374,131699,1514665
1,24,female,Belg,3,116,ITC,neutral,5,left,14,ITC_choice,957,j,0,0,374,130740,1515624
1,24,female,Belg,3,116,ITC,neutral,5,left,14,ITC_wait,0,undefined,0,0,374,130736,1515628
1,24,female,Belg,3,116,ITC,neutral,5,left,14,ITC_collect,2307,k,0,0,374,128428,1517936
1,24,female,Belg,3,116,ITC,neutral,5,left,14,ITC_outcome,0,undefined,0,0,388,127421,1518943
1,24,female,Belg,3,117,guess,neutral,5,right,11,guess_start,2444,space,0,0,388,124974,1521390
1,24,female,Belg,3,117,guess,neutral,5,right,11,guess_choice,587,f,0,0,388,124383,1521981
1,24,female,Belg,3,117,guess,neutral,5,right,11,guess_outcome,0,undefined,0,0,388,122829,1523535
1,24,female,Belg,3,117,ITC,neutral,5,right,11,ITC_start,504,space,0,0,388,122323,1524041
1,24,female,Belg,3,117,ITC,neutral,5,right,11,ITC_choice,764,f,0,0,388,121557,1524807
1,24,female,Belg,3,117,ITC,neutral,5,right,11,ITC_wait,0,undefined,0,0,388,121554,1524810
1,24,female,Belg,3,117,ITC,neutral,5,right,11,ITC_collect,1188,k,0,0,388,120365,1525999
1,24,female,Belg,3,117,ITC,neutral,5,right,11,ITC_outcome,0,undefined,0,0,399,119362,1527002
1,24,female,Belg,3,118,guess,loss,5,right,13,guess_start,1221,space,0,0,399,118139,1528225
1,24,female,Belg,3,118,guess,loss,5,right,13,guess_choice,600,j,0,0,399,117535,1528829
1,24,female,Belg,3,118,guess,loss,5,right,13,guess_outcome,0,undefined,0,0,384,115979,1530385
1,24,female,Belg,3,118,ITC,loss,5,right,13,ITC_start,1215,space,0,0,384,114762,1531602
1,24,female,Belg,3,118,ITC,loss,5,right,13,ITC_choice,679,f,0,0,384,114082,1532282
1,24,female,Belg,3,118,ITC,loss,5,right,13,ITC_wait,0,undefined,0,0,384,114078,1532286
1,24,female,Belg,3,118,ITC,loss,5,right,13,ITC_collect,637,k,0,0,384,113439,1532925
1,24,female,Belg,3,118,ITC,loss,5,right,13,ITC_outcome,0,undefined,0,0,397,112432,1533932
1,24,female,Belg,3,119,guess,neutral,30,left,6,guess_start,481,space,0,0,397,111948,1534416
1,24,female,Belg,3,119,guess,neutral,30,left,6,guess_choice,978,j,0,0,397,110966,1535398
1,24,female,Belg,3,119,guess,neutral,30,left,6,guess_outcome,0,undefined,0,0,397,109407,1536957
1,24,female,Belg,3,119,ITC,neutral,30,left,6,ITC_start,566,space,0,0,397,108840,1537524
1,24,female,Belg,3,119,ITC,neutral,30,left,6,ITC_choice,888,j,0,0,397,107949,1538415
1,24,female,Belg,3,119,ITC,neutral,30,left,6,ITC_wait,0,undefined,0,0,397,107946,1538418
1,24,female,Belg,3,119,ITC,neutral,30,left,6,ITC_collect,292,k,0,0,397,107652,1538712
1,24,female,Belg,3,119,ITC,neutral,30,left,6,ITC_outcome,0,undefined,0,0,403,106644,1539720
1,24,female,Belg,3,120,guess,win,5,right,9,guess_start,4973,space,0,0,403,101669,1544695
1,24,female,Belg,3,120,guess,win,5,right,9,guess_choice,762,j,0,0,403,100902,1545462
1,24,female,Belg,3,120,guess,win,5,right,9,guess_outcome,0,undefined,0,0,423,99347,1547017
1,24,female,Belg,3,120,ITC,win,5,right,9,ITC_start,164,space,0,0,423,99182,1547182
1,24,female,Belg,3,120,ITC,win,5,right,9,ITC_choice,1521,j,0,0,423,97659,1548705
1,24,female,Belg,3,120,ITC,win,5,right,9,ITC_wait,0,undefined,0,0,423,92653,1553711
1,24,female,Belg,3,120,ITC,win,5,right,9,ITC_collect,3410,k,0,0,423,89240,1557124
1,24,female,Belg,3,120,ITC,win,5,right,9,ITC_outcome,0,undefined,0,0,443,88236,1558128
1,24,female,Belg,3,121,guess,win,15,left,5,guess_start,1613,space,0,0,443,86620,1559744
1,24,female,Belg,3,121,guess,win,15,left,5,guess_choice,709,j,0,0,443,85909,1560455
1,24,female,Belg,3,121,guess,win,15,left,5,guess_outcome,0,undefined,0,0,463,84353,1562011
1,24,female,Belg,3,121,ITC,win,15,left,5,ITC_start,531,space,0,0,463,83820,1562544
1,24,female,Belg,3,121,ITC,win,15,left,5,ITC_choice,878,f,0,0,463,82939,1563425
1,24,female,Belg,3,121,ITC,win,15,left,5,ITC_wait,0,undefined,0,0,463,67936,1578428
1,24,female,Belg,3,121,ITC,win,15,left,5,ITC_collect,1653,k,0,0,463,66281,1580083
1,24,female,Belg,3,121,ITC,win,15,left,5,ITC_outcome,0,undefined,0,0,483,65277,1581087
1,24,female,Belg,3,122,guess,neutral,5,left,9,guess_start,337,space,0,0,483,64937,1581427
1,24,female,Belg,3,122,guess,neutral,5,left,9,guess_choice,654,f,0,0,483,64278,1582086
1,24,female,Belg,3,122,guess,neutral,5,left,9,guess_outcome,0,undefined,0,0,483,62723,1583641
1,24,female,Belg,3,122,ITC,neutral,5,left,9,ITC_start,807,space,0,0,483,61914,1584450
1,24,female,Belg,3,122,ITC,neutral,5,left,9,ITC_choice,688,j,0,0,483,61223,1585141
1,24,female,Belg,3,122,ITC,neutral,5,left,9,ITC_wait,0,undefined,0,0,483,61219,1585145
1,24,female,Belg,3,122,ITC,neutral,5,left,9,ITC_collect,1376,k,0,0,483,59842,1586522
1,24,female,Belg,3,122,ITC,neutral,5,left,9,ITC_outcome,0,undefined,0,0,492,58837,1587527
1,24,female,Belg,3,123,guess,win,15,right,9,guess_start,354,space,0,0,492,58481,1587883
1,24,female,Belg,3,123,guess,win,15,right,9,guess_choice,516,j,0,0,492,57960,1588404
1,24,female,Belg,3,123,guess,win,15,right,9,guess_outcome,0,undefined,0,0,512,56401,1589963
1,24,female,Belg,3,123,ITC,win,15,right,9,ITC_start,454,space,0,0,512,55945,1590419
1,24,female,Belg,3,123,ITC,win,15,right,9,ITC_wait,0,undefined,0,0,512,55082,1591282
1,24,female,Belg,3,123,ITC,win,15,right,9,ITC_choice,857,f,0,0,512,55086,1591278
1,24,female,Belg,3,123,ITC,win,15,right,9,ITC_collect,579,k,0,0,512,54501,1591863
1,24,female,Belg,3,123,ITC,win,15,right,9,ITC_outcome,0,undefined,0,0,521,53493,1592871
1,24,female,Belg,3,124,guess,neutral,15,right,12,guess_start,455,space,0,0,521,53036,1593328
1,24,female,Belg,3,124,guess,neutral,15,right,12,guess_choice,520,f,0,0,521,52511,1593853
1,24,female,Belg,3,124,guess,neutral,15,right,12,guess_outcome,0,undefined,0,0,521,50956,1595408
1,24,female,Belg,3,124,ITC,neutral,15,right,12,ITC_start,271,space,0,0,521,50683,1595681
1,24,female,Belg,3,124,ITC,neutral,15,right,12,ITC_choice,809,f,0,0,521,49872,1596492
1,24,female,Belg,3,124,ITC,neutral,15,right,12,ITC_wait,0,undefined,0,0,521,49869,1596495
1,24,female,Belg,3,124,ITC,neutral,15,right,12,ITC_collect,579,k,0,0,521,49288,1597076
1,24,female,Belg,3,124,ITC,neutral,15,right,12,ITC_outcome,0,undefined,0,0,533,48285,1598079
1,24,female,Belg,3,125,guess,win,30,right,7,guess_start,340,space,0,0,533,47943,1598421
1,24,female,Belg,3,125,guess,win,30,right,7,guess_choice,364,j,0,0,533,47575,1598789
1,24,female,Belg,3,125,guess,win,30,right,7,guess_outcome,0,undefined,0,0,553,46018,1600346
1,24,female,Belg,3,125,ITC,win,30,right,7,ITC_start,396,space,0,0,553,45620,1600744
1,24,female,Belg,3,125,ITC,win,30,right,7,ITC_choice,769,f,0,0,553,44849,1601515
1,24,female,Belg,3,125,ITC,win,30,right,7,ITC_wait,0,undefined,0,0,553,44845,1601519
1,24,female,Belg,3,125,ITC,win,30,right,7,ITC_collect,519,k,0,0,553,44324,1602040
1,24,female,Belg,3,125,ITC,win,30,right,7,ITC_outcome,0,undefined,0,0,560,43320,1603044
1,24,female,Belg,3,126,guess,loss,5,right,14,guess_start,358,space,0,0,560,42959,1603405
1,24,female,Belg,3,126,guess,loss,5,right,14,guess_choice,584,j,0,0,560,42370,1603994
1,24,female,Belg,3,126,guess,loss,5,right,14,guess_outcome,0,undefined,0,0,545,40814,1605550
1,24,female,Belg,3,126,ITC,loss,5,right,14,ITC_start,116,space,0,0,545,40696,1605668
1,24,female,Belg,3,126,ITC,loss,5,right,14,ITC_choice,900,j,0,0,545,39793,1606571
1,24,female,Belg,3,126,ITC,loss,5,right,14,ITC_wait,0,undefined,0,0,545,34789,1611575
1,24,female,Belg,3,126,ITC,loss,5,right,14,ITC_collect,917,k,0,0,545,33870,1612494
1,24,female,Belg,3,126,ITC,loss,5,right,14,ITC_outcome,0,undefined,0,0,565,32867,1613497
1,24,female,Belg,3,127,guess,win,30,left,6,guess_start,310,space,0,0,565,32554,1613810
1,24,female,Belg,3,127,guess,win,30,left,6,guess_choice,807,j,0,0,565,31743,1614621
1,24,female,Belg,3,127,guess,win,30,left,6,guess_outcome,0,undefined,0,0,585,30185,1616179
1,24,female,Belg,3,127,ITC,win,30,left,6,ITC_start,297,space,0,0,585,29887,1616477
1,24,female,Belg,3,127,ITC,win,30,left,6,ITC_choice,707,j,0,0,585,29178,1617186
1,24,female,Belg,3,127,ITC,win,30,left,6,ITC_wait,0,undefined,0,0,585,29173,1617191
1,24,female,Belg,3,127,ITC,win,30,left,6,ITC_collect,540,k,0,0,585,28632,1617732
1,24,female,Belg,3,127,ITC,win,30,left,6,ITC_outcome,0,undefined,0,0,591,27625,1618739
1,24,female,Belg,3,128,guess,neutral,15,right,8,guess_start,373,space,0,0,591,27249,1619115
1,24,female,Belg,3,128,guess,neutral,15,right,8,guess_choice,621,f,0,0,591,26624,1619740
1,24,female,Belg,3,128,guess,neutral,15,right,8,guess_outcome,0,undefined,0,0,591,25065,1621299
1,24,female,Belg,3,128,ITC,neutral,15,right,8,ITC_start,934,space,0,0,591,24129,1622235
1,24,female,Belg,3,128,ITC,neutral,15,right,8,ITC_choice,693,f,0,0,591,23434,1622930
1,24,female,Belg,3,128,ITC,neutral,15,right,8,ITC_wait,0,undefined,0,0,591,23430,1622934
1,24,female,Belg,3,128,ITC,neutral,15,right,8,ITC_collect,1187,k,0,0,591,22241,1624123
1,24,female,Belg,3,128,ITC,neutral,15,right,8,ITC_outcome,0,undefined,0,0,599,21233,1625131
1,24,female,Belg,3,129,guess,loss,30,right,8,guess_start,305,space,0,0,599,20926,1625438
1,24,female,Belg,3,129,guess,loss,30,right,8,guess_choice,484,j,0,0,599,20440,1625924
1,24,female,Belg,3,129,guess,loss,30,right,8,guess_outcome,0,undefined,0,0,584,18882,1627482
1,24,female,Belg,3,129,ITC,loss,30,right,8,ITC_start,305,space,0,0,584,18575,1627789
1,24,female,Belg,3,129,ITC,loss,30,right,8,ITC_choice,828,j,0,0,584,17745,1628619
1,24,female,Belg,3,129,ITC,loss,30,right,8,ITC_wait,0,undefined,0,0,584,-7,1646371
1,24,female,Belg,4,130,guess,loss,30,right,7,guess_start,1003,space,0,0,0,478995,1672309
1,24,female,Belg,4,130,guess,loss,30,right,7,guess_choice,550,j,0,0,0,478440,1672864
1,24,female,Belg,4,130,guess,loss,30,right,7,guess_outcome,0,undefined,0,0,-15,476883,1674421
1,24,female,Belg,4,130,ITC,loss,30,right,7,ITC_start,429,space,0,0,-15,476452,1674852
1,24,female,Belg,4,130,ITC,loss,30,right,7,ITC_choice,965,j,0,0,-15,475486,1675818
1,24,female,Belg,4,130,ITC,loss,30,right,7,ITC_wait,0,undefined,0,0,-15,445482,1705822
1,24,female,Belg,4,130,ITC,loss,30,right,7,ITC_collect,1552,k,0,0,-15,443928,1707376
1,24,female,Belg,4,130,ITC,loss,30,right,7,ITC_outcome,0,undefined,0,0,5,442922,1708382
1,24,female,Belg,4,131,guess,loss,30,right,6,guess_start,487,space,0,0,5,442433,1708871
1,24,female,Belg,4,131,guess,loss,30,right,6,guess_choice,411,j,0,0,5,442017,1709287
1,24,female,Belg,4,131,guess,loss,30,right,6,guess_outcome,0,undefined,0,0,-10,440463,1710841
1,24,female,Belg,4,131,ITC,loss,30,right,6,ITC_start,295,space,0,0,-10,440166,1711138
1,24,female,Belg,4,131,ITC,loss,30,right,6,ITC_choice,478,j,0,0,-10,439686,1711618
1,24,female,Belg,4,131,ITC,loss,30,right,6,ITC_wait,0,undefined,0,0,-10,409682,1741622
1,24,female,Belg,4,131,ITC,loss,30,right,6,ITC_collect,5723,k,0,0,-10,403957,1747347
1,24,female,Belg,4,131,ITC,loss,30,right,6,ITC_outcome,0,undefined,0,0,10,402950,1748354
1,24,female,Belg,4,132,guess,neutral,30,right,4,guess_start,315,space,0,0,10,402631,1748673
1,24,female,Belg,4,132,guess,neutral,30,right,4,guess_choice,597,f,0,0,10,402030,1749274
1,24,female,Belg,4,132,guess,neutral,30,right,4,guess_outcome,0,undefined,0,0,10,400475,1750829
1,24,female,Belg,4,132,ITC,neutral,30,right,4,ITC_start,356,space,0,0,10,400117,1751187
1,24,female,Belg,4,132,ITC,neutral,30,right,4,ITC_choice,1307,j,0,0,10,398808,1752496
1,24,female,Belg,4,132,ITC,neutral,30,right,4,ITC_wait,0,undefined,0,0,10,368803,1782501
1,24,female,Belg,4,132,ITC,neutral,30,right,4,ITC_collect,3773,k,0,0,10,365027,1786277
1,24,female,Belg,4,132,ITC,neutral,30,right,4,ITC_outcome,0,undefined,0,0,30,364022,1787282
1,24,female,Belg,4,133,guess,neutral,30,left,8,guess_start,908,space,0,0,30,363112,1788192
1,24,female,Belg,4,133,guess,neutral,30,left,8,guess_choice,627,f,0,0,30,362480,1788824
1,24,female,Belg,4,133,guess,neutral,30,left,8,guess_outcome,0,undefined,0,0,30,360925,1790379
1,24,female,Belg,4,133,ITC,neutral,30,left,8,ITC_start,320,space,0,0,30,360603,1790701
1,24,female,Belg,4,133,ITC,neutral,30,left,8,ITC_choice,667,j,0,0,30,359935,1791369
1,24,female,Belg,4,133,ITC,neutral,30,left,8,ITC_wait,0,undefined,0,0,30,359930,1791374
1,24,female,Belg,4,133,ITC,neutral,30,left,8,ITC_collect,495,k,0,0,30,359434,1791870
1,24,female,Belg,4,133,ITC,neutral,30,left,8,ITC_outcome,0,undefined,0,0,38,358429,1792875
1,24,female,Belg,4,134,guess,neutral,15,left,5,guess_start,355,space,0,0,38,358072,1793232
1,24,female,Belg,4,134,guess,neutral,15,left,5,guess_choice,546,j,0,0,38,357521,1793783
1,24,female,Belg,4,134,guess,neutral,15,left,5,guess_outcome,0,undefined,0,0,38,355962,1795342
1,24,female,Belg,4,134,ITC,neutral,15,left,5,ITC_start,332,space,0,0,38,355628,1795676
1,24,female,Belg,4,134,ITC,neutral,15,left,5,ITC_choice,720,j,0,0,38,354906,1796398
1,24,female,Belg,4,134,ITC,neutral,15,left,5,ITC_wait,0,undefined,0,0,38,354903,1796401
1,24,female,Belg,4,134,ITC,neutral,15,left,5,ITC_collect,525,k,0,0,38,354376,1796928
1,24,female,Belg,4,134,ITC,neutral,15,left,5,ITC_outcome,0,undefined,0,0,43,353373,1797931
1,24,female,Belg,4,135,guess,win,15,left,12,guess_start,380,space,0,0,43,352991,1798313
1,24,female,Belg,4,135,guess,win,15,left,12,guess_choice,550,j,0,0,43,352436,1798868
1,24,female,Belg,4,135,guess,win,15,left,12,guess_outcome,0,undefined,0,0,63,350876,1800428
1,24,female,Belg,4,135,ITC,win,15,left,12,ITC_start,330,space,0,0,63,350545,1800759
1,24,female,Belg,4,135,ITC,win,15,left,12,ITC_choice,653,j,0,0,63,349889,1801415
1,24,female,Belg,4,135,ITC,win,15,left,12,ITC_wait,0,undefined,0,0,63,349886,1801418
1,24,female,Belg,4,135,ITC,win,15,left,12,ITC_collect,385,k,0,0,63,349499,1801805
1,24,female,Belg,4,135,ITC,win,15,left,12,ITC_outcome,0,undefined,0,0,75,348494,1802810
1,24,female,Belg,4,136,guess,win,30,left,3,guess_start,289,space,0,0,75,348203,1803101
1,24,female,Belg,4,136,guess,win,30,left,3,guess_choice,401,j,0,0,75,347798,1803506
1,24,female,Belg,4,136,guess,win,30,left,3,guess_outcome,0,undefined,0,0,95,346240,1805064
1,24,female,Belg,4,136,ITC,win,30,left,3,ITC_start,268,space,0,0,95,345970,1805334
1,24,female,Belg,4,136,ITC,win,30,left,3,ITC_choice,447,j,0,0,95,345521,1805783
1,24,female,Belg,4,136,ITC,win,30,left,3,ITC_wait,0,undefined,0,0,95,345517,1805787
1,24,female,Belg,4,136,ITC,win,30,left,3,ITC_collect,662,k,0,0,95,344853,1806451
1,24,female,Belg,4,136,ITC,win,30,left,3,ITC_outcome,0,undefined,0,0,98,343846,1807458
1,24,female,Belg,4,137,guess,loss,30,left,2,guess_start,270,space,0,0,98,343574,1807730
1,24,female,Belg,4,137,guess,loss,30,left,2,guess_choice,422,f,0,0,98,343147,1808157
1,24,female,Belg,4,137,guess,loss,30,left,2,guess_outcome,0,undefined,0,0,83,341588,1809716
1,24,female,Belg,4,137,ITC,loss,30,left,2,ITC_start,396,space,0,0,83,341190,1810114
1,24,female,Belg,4,137,ITC,loss,30,left,2,ITC_choice,789,j,0,0,83,340399,1810905
1,24,female,Belg,4,137,ITC,loss,30,left,2,ITC_wait,0,undefined,0,0,83,340395,1810909
1,24,female,Belg,4,137,ITC,loss,30,left,2,ITC_collect,346,k,0,0,83,340048,1811256
1,24,female,Belg,4,137,ITC,loss,30,left,2,ITC_outcome,0,undefined,0,0,85,339044,1812260
1,24,female,Belg,4,138,guess,neutral,30,right,1,guess_start,356,space,0,0,85,338686,1812618
1,24,female,Belg,4,138,guess,neutral,30,right,1,guess_choice,636,f,0,0,85,338047,1813257
1,24,female,Belg,4,138,guess,neutral,30,right,1,guess_outcome,0,undefined,0,0,85,336491,1814813
1,24,female,Belg,4,138,ITC,neutral,30,right,1,ITC_start,624,space,0,0,85,335865,1815439
1,24,female,Belg,4,138,ITC,neutral,30,right,1,ITC_choice,1352,j,0,0,85,334510,1816794
1,24,female,Belg,4,138,ITC,neutral,30,right,1,ITC_wait,0,undefined,0,0,85,304505,1846799
1,24,female,Belg,4,138,ITC,neutral,30,right,1,ITC_collect,5934,k,0,0,85,298569,1852735
1,24,female,Belg,4,138,ITC,neutral,30,right,1,ITC_outcome,0,undefined,0,0,105,297563,1853741
1,24,female,Belg,4,139,guess,loss,5,right,12,guess_start,728,space,0,0,105,296831,1854473
1,24,female,Belg,4,139,guess,loss,5,right,12,guess_choice,580,j,0,0,105,296246,1855058
1,24,female,Belg,4,139,guess,loss,5,right,12,guess_outcome,0,undefined,0,0,90,294688,1856616
1,24,female,Belg,4,139,ITC,loss,5,right,12,ITC_start,314,space,0,0,90,294373,1856931
1,24,female,Belg,4,139,ITC,loss,5,right,12,ITC_choice,783,f,0,0,90,293588,1857716
1,24,female,Belg,4,139,ITC,loss,5,right,12,ITC_wait,0,undefined,0,0,90,293584,1857720
1,24,female,Belg,4,139,ITC,loss,5,right,12,ITC_collect,392,k,0,0,90,293191,1858113
1,24,female,Belg,4,139,ITC,loss,5,right,12,ITC_outcome,0,undefined,0,0,102,292184,1859120
1,24,female,Belg,4,140,guess,neutral,30,left,5,guess_start,284,space,0,0,102,291897,1859407
1,24,female,Belg,4,140,guess,neutral,30,left,5,guess_choice,436,j,0,0,102,291458,1859846
1,24,female,Belg,4,140,guess,neutral,30,left,5,guess_outcome,0,undefined,0,0,102,289899,1861405
1,24,female,Belg,4,140,ITC,neutral,30,left,5,ITC_start,304,space,0,0,102,289594,1861710
1,24,female,Belg,4,140,ITC,neutral,30,left,5,ITC_choice,534,j,0,0,102,289058,1862246
1,24,female,Belg,4,140,ITC,neutral,30,left,5,ITC_wait,0,undefined,0,0,102,289056,1862248
1,24,female,Belg,4,140,ITC,neutral,30,left,5,ITC_collect,328,k,0,0,102,288726,1862578
1,24,female,Belg,4,140,ITC,neutral,30,left,5,ITC_outcome,0,undefined,0,0,107,287720,1863584
1,24,female,Belg,4,141,guess,win,30,left,1,guess_start,305,space,0,0,107,287414,1863890
1,24,female,Belg,4,141,guess,win,30,left,1,guess_choice,592,j,0,0,107,286817,1864487
1,24,female,Belg,4,141,guess,win,30,left,1,guess_outcome,0,undefined,0,0,127,285261,1866043
1,24,female,Belg,4,141,ITC,win,30,left,1,ITC_start,71,space,0,0,127,285188,1866116
1,24,female,Belg,4,141,ITC,win,30,left,1,ITC_choice,855,j,0,0,127,284331,1866973
1,24,female,Belg,4,141,ITC,win,30,left,1,ITC_wait,0,undefined,0,0,127,284328,1866976
1,24,female,Belg,4,141,ITC,win,30,left,1,ITC_collect,336,k,0,0,127,283989,1867315
1,24,female,Belg,4,141,ITC,win,30,left,1,ITC_outcome,0,undefined,0,0,128,282985,1868319
1,24,female,Belg,4,142,guess,loss,15,right,5,guess_start,549,space,0,0,128,282434,1868870
1,24,female,Belg,4,142,guess,loss,15,right,5,guess_choice,604,f,0,0,128,281826,1869478
1,24,female,Belg,4,142,guess,loss,15,right,5,guess_outcome,0,undefined,0,0,113,280269,1871035
1,24,female,Belg,4,142,ITC,loss,15,right,5,ITC_start,1781,space,0,0,113,278486,1872818
1,24,female,Belg,4,142,ITC,loss,15,right,5,ITC_choice,923,f,0,0,113,277562,1873742
1,24,female,Belg,4,142,ITC,loss,15,right,5,ITC_wait,0,undefined,0,0,113,277556,1873748
1,24,female,Belg,4,142,ITC,loss,15,right,5,ITC_collect,530,k,0,0,113,277025,1874279
1,24,female,Belg,4,142,ITC,loss,15,right,5,ITC_outcome,0,undefined,0,0,118,276020,1875284
1,24,female,Belg,4,143,guess,loss,15,right,8,guess_start,433,space,0,0,118,275584,1875720
1,24,female,Belg,4,143,guess,loss,15,right,8,guess_choice,483,j,0,0,118,275097,1876207
1,24,female,Belg,4,143,guess,loss,15,right,8,guess_outcome,0,undefined,0,0,103,273538,1877766
1,24,female,Belg,4,143,ITC,loss,15,right,8,ITC_start,884,space,0,0,103,272653,1878651
1,24,female,Belg,4,143,ITC,loss,15,right,8,ITC_choice,613,f,0,0,103,272038,1879266
1,24,female,Belg,4,143,ITC,loss,15,right,8,ITC_wait,0,undefined,0,0,103,272034,1879270
1,24,female,Belg,4,143,ITC,loss,15,right,8,ITC_collect,338,k,0,0,103,271695,1879609
1,24,female,Belg,4,143,ITC,loss,15,right,8,ITC_outcome,0,undefined,0,0,111,270690,1880614
1,24,female,Belg,4,144,guess,win,15,right,7,guess_start,2227,space,0,0,111,268460,1882844
1,24,female,Belg,4,144,guess,win,15,right,7,guess_choice,508,j,0,0,111,267948,1883356
1,24,female,Belg,4,144,guess,win,15,right,7,guess_outcome,0,undefined,0,0,131,266389,1884915
1,24,female,Belg,4,144,ITC,win,15,right,7,ITC_start,327,space,0,0,131,266060,1885244
1,24,female,Belg,4,144,ITC,win,15,right,7,ITC_choice,1050,f,0,0,131,265007,1886297
1,24,female,Belg,4,144,ITC,win,15,right,7,ITC_wait,0,undefined,0,0,131,265004,1886300
1,24,female,Belg,4,144,ITC,win,15,right,7,ITC_collect,1932,k,0,0,131,263071,1888233
1,24,female,Belg,4,144,ITC,win,15,right,7,ITC_outcome,0,undefined,0,0,138,262064,1889240
1,24,female,Belg,4,145,guess,loss,5,left,16,guess_start,455,space,0,0,138,261606,1889698
1,24,female,Belg,4,145,guess,loss,5,left,16,guess_choice,550,j,0,0,138,261052,1890252
1,24,female,Belg,4,145,guess,loss,5,left,16,guess_outcome,0,undefined,0,0,123,259498,1891806
1,24,female,Belg,4,145,ITC,loss,5,left,16,ITC_start,446,space,0,0,123,259049,1892255
1,24,female,Belg,4,145,ITC,loss,5,left,16,ITC_choice,566,j,0,0,123,258482,1892822
1,24,female,Belg,4,145,ITC,loss,5,left,16,ITC_wait,0,undefined,0,0,123,258478,1892826
1,24,female,Belg,4,145,ITC,loss,5,left,16,ITC_collect,333,k,0,0,123,258144,1893160
1,24,female,Belg,4,145,ITC,loss,5,left,16,ITC_outcome,0,undefined,0,0,139,257139,1894165
1,24,female,Belg,4,146,guess,neutral,5,left,16,guess_start,701,space,0,0,139,256436,1894868
1,24,female,Belg,4,146,guess,neutral,5,left,16,guess_choice,565,f,0,0,139,255868,1895436
1,24,female,Belg,4,146,guess,neutral,5,left,16,guess_outcome,0,undefined,0,0,139,254314,1896990
1,24,female,Belg,4,146,ITC,neutral,5,left,16,ITC_start,340,space,0,0,139,253972,1897332
1,24,female,Belg,4,146,ITC,neutral,5,left,16,ITC_choice,597,j,0,0,139,253372,1897932
1,24,female,Belg,4,146,ITC,neutral,5,left,16,ITC_wait,0,undefined,0,0,139,253368,1897936
1,24,female,Belg,4,146,ITC,neutral,5,left,16,ITC_collect,326,k,0,0,139,253040,1898264
