subjectID,age,gender,nationality,block_number,trial_number,trial_type,guess_outcome,delay_time,delay_pos,immediate_amount,stage,respRT,respKey,blur_count,focus_count,total_points,remaining_duration,time_elapsed
2,20,female,Belgian,1,1,guess,loss,15,left,9,guess_start,2235,space,0,0,0,477759,271655
2,20,female,Belgian,1,1,guess,loss,15,left,9,guess_choice,1177,f,0,0,0,476573,272841
2,20,female,Belgian,1,1,guess,loss,15,left,9,guess_outcome,0,undefined,0,0,-15,475010,274404
2,20,female,Belgian,1,1,ITC,loss,15,left,9,ITC_start,1664,space,0,0,-15,473344,276070
2,20,female,Belgian,1,1,ITC,loss,15,left,9,ITC_choice,1089,f,0,0,-15,472250,277164
2,20,female,Belgian,1,1,ITC,loss,15,left,9,ITC_wait,0,undefined,0,0,-15,457243,292171
2,20,female,Belgian,1,1,ITC,loss,15,left,9,ITC_collect,635,k,0,0,-15,456605,292809
2,20,female,Belgian,1,1,ITC,loss,15,left,9,ITC_outcome,0,undefined,0,0,5,455595,293819
2,20,female,Belgian,1,2,guess,neutral,5,left,15,guess_start,1297,space,0,0,5,454296,295118
2,20,female,Belgian,1,2,guess,neutral,5,left,15,guess_choice,1316,j,0,0,5,452974,296440
2,20,female,Belgian,1,2,guess,neutral,5,left,15,guess_outcome,0,undefined,0,0,5,451414,298000
2,20,female,Belgian,1,2,ITC,neutral,5,left,15,ITC_start,1507,space,0,0,5,449906,299508
2,20,female,Belgian,1,2,ITC,neutral,5,left,15,ITC_choice,1263,j,0,0,5,448640,300774
2,20,female,Belgian,1,2,ITC,neutral,5,left,15,ITC_wait,0,undefined,0,0,5,448637,300777
2,20,female,Belgian,1,2,ITC,neutral,5,left,15,ITC_collect,1209,k,0,0,5,447426,301988
2,20,female,Belgian,1,2,ITC,neutral,5,left,15,ITC_outcome,0,undefined,0,0,20,446417,302997
2,20,female,Belgian,1,3,guess,neutral,15,right,10,guess_start,1066,space,0,0,20,445350,304064
2,20,female,Belgian,1,3,guess,neutral,15,right,10,guess_choice,1067,j,0,0,20,444276,305138
2,20,female,Belgian,1,3,guess,neutral,15,right,10,guess_outcome,0,undefined,0,0,20,442714,306700
2,20,female,Belgian,1,3,ITC,neutral,15,right,10,ITC_start,1040,space,0,0,20,441671,307743
2,20,female,Belgian,1,3,ITC,neutral,15,right,10,ITC_choice,1255,j,0,0,20,440414,309000
2,20,female,Belgian,1,3,ITC,neutral,15,right,10,ITC_wait,0,undefined,0,0,20,425406,324008
2,20,female,Belgian,1,3,ITC,neutral,15,right,10,ITC_collect,635,k,0,0,20,424770,324644
2,20,female,Belgian,1,3,ITC,neutral,15,right,10,ITC_outcome,0,undefined,0,0,40,423764,325650
2,20,female,Belgian,1,4,guess,neutral,30,left,2,guess_start,879,space,0,0,40,422883,326531
2,20,female,Belgian,1,4,guess,neutral,30,left,2,guess_choice,709,f,0,0,40,422164,327250
2,20,female,Belgian,1,4,guess,neutral,30,left,2,guess_outcome,0,undefined,0,0,40,420605,328809
2,20,female,Belgian,1,4,ITC,neutral,30,left,2,ITC_start,745,space,0,0,40,419857,329557
2,20,female,Belgian,1,4,ITC,neutral,30,left,2,ITC_choice,2027,j,0,0,40,417829,331585
2,20,female,Belgian,1,4,ITC,neutral,30,left,2,ITC_wait,0,undefined,0,0,40,417826,331588
2,20,female,Belgian,1,4,ITC,neutral,30,left,2,ITC_collect,1298,k,0,0,40,416526,332888
2,20,female,Belgian,1,4,ITC,neutral,30,left,2,ITC_outcome,0,undefined,0,0,42,415521,333893
2,20,female,Belgian,1,5,guess,loss,15,left,6,guess_start,1710,space,0,0,42,413809,335605
2,20,female,Belgian,1,5,guess,loss,15,left,6,guess_choice,1953,j,0,0,42,411851,337563
2,20,female,Belgian,1,5,guess,loss,15,left,6,guess_outcome,0,undefined,0,0,27,410292,339122
2,20,female,Belgian,1,5,ITC,loss,15,left,6,ITC_start,1119,space,0,0,27,409170,340244
2,20,female,Belgian,1,5,ITC,loss,15,left,6,ITC_choice,1358,f,0,0,27,407809,341605
2,20,female,Belgian,1,5,ITC,loss,15,left,6,ITC_wait,0,undefined,0,0,27,392807,356607
2,20,female,Belgian,1,5,ITC,loss,15,left,6,ITC_collect,910,k,0,0,27,391895,357519
2,20,female,Belgian,1,5,ITC,loss,15,left,6,ITC_outcome,0,undefined,0,0,47,390889,358525
2,20,female,Belgian,1,6,guess,win,15,right,11,guess_start,656,space,0,0,47,390232,359182
2,20,female,Belgian,1,6,guess,win,15,right,11,guess_choice,1614,j,0,0,47,388613,360801
2,20,female,Belgian,1,6,guess,win,15,right,11,guess_outcome,0,undefined,0,0,67,387054,362360
2,20,female,Belgian,1,6,ITC,win,15,right,11,ITC_start,963,space,0,0,67,386090,363324
2,20,female,Belgian,1,6,ITC,win,15,right,11,ITC_choice,1726,f,0,0,67,384361,365053
2,20,female,Belgian,1,6,ITC,win,15,right,11,ITC_wait,0,undefined,0,0,67,384359,365055
2,20,female,Belgian,1,6,ITC,win,15,right,11,ITC_collect,1233,k,0,0,67,383123,366291
2,20,female,Belgian,1,6,ITC,win,15,right,11,ITC_outcome,0,undefined,0,0,78,382118,367296
2,20,female,Belgian,1,7,guess,win,15,right,5,guess_start,2250,space,0,0,78,379866,369548
2,20,female,Belgian,1,7,guess,win,15,right,5,guess_choice,2025,j,0,0,78,377838,371576
2,20,female,Belgian,1,7,guess,win,15,right,5,guess_outcome,0,undefined,0,0,98,376280,373134
2,20,female,Belgian,1,7,ITC,win,15,right,5,ITC_start,2017,space,0,0,98,374262,375152
2,20,female,Belgian,1,7,ITC,win,15,right,5,ITC_choice,1840,j,0,0,98,372420,376994
2,20,female,Belgian,1,7,ITC,win,15,right,5,ITC_wait,0,undefined,0,0,98,357413,392001
2,20,female,Belgian,1,7,ITC,win,15,right,5,ITC_collect,642,k,0,0,98,356770,392644
2,20,female,Belgian,1,7,ITC,win,15,right,5,ITC_outcome,0,undefined,0,0,118,355765,393649
2,20,female,Belgian,1,8,guess,neutral,30,left,4,guess_start,946,space,0,0,118,354817,394597
2,20,female,Belgian,1,8,guess,neutral,30,left,4,guess_choice,1161,j,0,0,118,353650,395764
2,20,female,Belgian,1,8,guess,neutral,30,left,4,guess_outcome,0,undefined,0,0,118,352096,397318
2,20,female,Belgian,1,8,ITC,neutral,30,left,4,ITC_start,878,space,0,0,118,351216,398198
2,20,female,Belgian,1,8,ITC,neutral,30,left,4,ITC_choice,1717,j,0,0,118,349497,399917
2,20,female,Belgian,1,8,ITC,neutral,30,left,4,ITC_wait,0,undefined,0,0,118,349494,399920
2,20,female,Belgian,1,8,ITC,neutral,30,left,4,ITC_collect,1086,k,0,0,118,348406,401008
2,20,female,Belgian,1,8,ITC,neutral,30,left,4,ITC_outcome,0,undefined,0,0,122,347399,402015
2,20,female,Belgian,1,9,guess,win,5,right,13,guess_start,667,space,0,0,122,346730,402684
2,20,female,Belgian,1,9,guess,win,5,right,13,guess_choice,1075,f,0,0,122,345651,403763
2,20,female,Belgian,1,9,guess,win,5,right,13,guess_outcome,0,undefined,0,0,142,344094,405320
2,20,female,Belgian,1,9,ITC,win,5,right,13,ITC_start,1097,space,0,0,142,342995,406419
2,20,female,Belgian,1,9,ITC,win,5,right,13,ITC_choice,2265,f,0,0,142,340728,408686
2,20,female,Belgian,1,9,ITC,win,5,right,13,ITC_wait,0,undefined,0,0,142,340725,408689
2,20,female,Belgian,1,9,ITC,win,5,right,13,ITC_collect,1097,k,0,0,142,339626,409788
2,20,female,Belgian,1,9,ITC,win,5,right,13,ITC_outcome,0,undefined,0,0,155,338621,410793
2,20,female,Belgian,1,10,guess,loss,5,left,11,guess_start,787,space,0,0,155,337832,411582
2,20,female,Belgian,1,10,guess,loss,5,left,11,guess_choice,1361,f,0,0,155,336465,412949
2,20,female,Belgian,1,10,guess,loss,5,left,11,guess_outcome,0,undefined,0,0,140,334904,414510
2,20,female,Belgian,1,10,ITC,loss,5,left,11,ITC_start,610,space,0,0,140,334293,415121
2,20,female,Belgian,1,10,ITC,loss,5,left,11,ITC_choice,2217,f,0,0,140,332074,417340
2,20,female,Belgian,1,10,ITC,loss,5,left,11,ITC_wait,0,undefined,0,0,140,327067,422347
2,20,female,Belgian,1,10,ITC,loss,5,left,11,ITC_collect,385,k,0,0,140,326681,422733
2,20,female,Belgian,1,10,ITC,loss,5,left,11,ITC_outcome,0,undefined,0,0,160,325672,423742
2,20,female,Belgian,1,11,guess,neutral,30,left,8,guess_start,602,space,0,0,160,325068,424346
2,20,female,Belgian,1,11,guess,neutral,30,left,8,guess_choice,865,j,0,0,160,324199,425215
2,20,female,Belgian,1,11,guess,neutral,30,left,8,guess_outcome,0,undefined,0,0,160,322641,426773
2,20,female,Belgian,1,11,ITC,neutral,30,left,8,ITC_start,662,space,0,0,160,321977,427437
2,20,female,Belgian,1,11,ITC,neutral,30,left,8,ITC_choice,1820,j,0,0,160,320154,429260
2,20,female,Belgian,1,11,ITC,neutral,30,left,8,ITC_wait,0,undefined,0,0,160,320151,429263
2,20,female,Belgian,1,11,ITC,neutral,30,left,8,ITC_collect,1258,k,0,0,160,318892,430522
2,20,female,Belgian,1,11,ITC,neutral,30,left,8,ITC_outcome,0,undefined,0,0,168,317883,431531
2,20,female,Belgian,1,12,guess,neutral,15,right,6,guess_start,947,space,0,0,168,316934,432480
2,20,female,Belgian,1,12,guess,neutral,15,right,6,guess_choice,1129,f,0,0,168,315800,433614
2,20,female,Belgian,1,12,guess,neutral,15,right,6,guess_outcome,0,undefined,0,0,168,314239,435175
2,20,female,Belgian,1,12,ITC,neutral,15,right,6,ITC_start,1196,space,0,0,168,313041,436373
2,20,female,Belgian,1,12,ITC,neutral,15,right,6,ITC_choice,2274,j,0,0,168,310765,438649
2,20,female,Belgian,1,12,ITC,neutral,15,right,6,ITC_wait,0,undefined,0,0,168,295763,453651
2,20,female,Belgian,1,12,ITC,neutral,15,right,6,ITC_collect,1568,k,0,0,168,294194,455220
2,20,female,Belgian,1,12,ITC,neutral,15,right,6,ITC_outcome,0,undefined,0,0,188,293185,456229
2,20,female,Belgian,1,13,guess,win,30,left,7,guess_start,627,space,0,0,188,292557,456857
2,20,female,Belgian,1,13,guess,win,30,left,7,guess_choice,1150,j,0,0,188,291401,458013
2,20,female,Belgian,1,13,guess,win,30,left,7,guess_outcome,0,undefined,0,0,208,289842,459572
2,20,female,Belgian,1,13,ITC,win,30,left,7,ITC_start,1165,space,0,0,208,288675,460739
2,20,female,Belgian,1,13,ITC,win,30,left,7,ITC_choice,2262,j,0,0,208,286411,463003
2,20,female,Belgian,1,13,ITC,win,30,left,7,ITC_wait,0,undefined,0,0,208,286409,463005
2,20,female,Belgian,1,13,ITC,win,30,left,7,ITC_collect,1094,k,0,0,208,285312,464102
2,20,female,Belgian,1,13,ITC,win,30,left,7,ITC_outcome,0,undefined,0,0,215,284309,465105
2,20,female,Belgian,1,14,guess,loss,15,left,10,guess_start,978,space,0,0,215,283330,466084
2,20,female,Belgian,1,14,guess,loss,15,left,10,guess_choice,1254,j,0,0,215,282071,467343
2,20,female,Belgian,1,14,guess,loss,15,left,10,guess_outcome,0,undefined,0,0,200,280516,468898
2,20,female,Belgian,1,14,ITC,loss,15,left,10,ITC_start,737,space,0,0,200,279778,469636
2,20,female,Belgian,1,14,ITC,loss,15,left,10,ITC_choice,1421,f,0,0,200,278354,471060
2,20,female,Belgian,1,14,ITC,loss,15,left,10,ITC_wait,0,undefined,0,0,200,263347,486067
2,20,female,Belgian,1,14,ITC,loss,15,left,10,ITC_collect,1303,k,0,0,200,262042,487372
2,20,female,Belgian,1,14,ITC,loss,15,left,10,ITC_outcome,0,undefined,0,0,220,261035,488379
2,20,female,Belgian,1,15,guess,loss,30,left,7,guess_start,585,space,0,0,220,260447,488967
2,20,female,Belgian,1,15,guess,loss,30,left,7,guess_choice,1188,f,0,0,220,259255,490159
2,20,female,Belgian,1,15,guess,loss,30,left,7,guess_outcome,0,undefined,0,0,205,257696,491718
2,20,female,Belgian,1,15,ITC,loss,30,left,7,ITC_start,1335,space,0,0,205,256359,493055
2,20,female,Belgian,1,15,ITC,loss,30,left,7,ITC_choice,1751,j,0,0,205,254606,494808
2,20,female,Belgian,1,15,ITC,loss,30,left,7,ITC_wait,0,undefined,0,0,205,254603,494811
2,20,female,Belgian,1,15,ITC,loss,30,left,7,ITC_collect,1017,k,0,0,205,253585,495829
2,20,female,Belgian,1,15,ITC,loss,30,left,7,ITC_outcome,0,undefined,0,0,212,252574,496840
2,20,female,Belgian,1,16,guess,neutral,5,left,13,guess_start,980,space,0,0,212,251592,497822
2,20,female,Belgian,1,16,guess,neutral,5,left,13,guess_choice,1395,j,0,0,212,250192,499222
2,20,female,Belgian,1,16,guess,neutral,5,left,13,guess_outcome,0,undefined,0,0,212,248637,500777
2,20,female,Belgian,1,16,ITC,neutral,5,left,13,ITC_start,1308,space,0,0,212,247327,502087
2,20,female,Belgian,1,16,ITC,neutral,5,left,13,ITC_choice,1598,f,0,0,212,245726,503688
2,20,female,Belgian,1,16,ITC,neutral,5,left,13,ITC_wait,0,undefined,0,0,212,240720,508694
2,20,female,Belgian,1,16,ITC,neutral,5,left,13,ITC_collect,814,k,0,0,212,239903,509511
2,20,female,Belgian,1,16,ITC,neutral,5,left,13,ITC_outcome,0,undefined,0,0,232,238896,510518
2,20,female,Belgian,1,17,guess,loss,5,left,15,guess_start,1073,space,0,0,232,237821,511593
2,20,female,Belgian,1,17,guess,loss,5,left,15,guess_choice,1202,f,0,0,232,236613,512801
2,20,female,Belgian,1,17,guess,loss,5,left,15,guess_outcome,0,undefined,0,0,217,235054,514360
2,20,female,Belgian,1,17,ITC,loss,5,left,15,ITC_start,1177,space,0,0,217,233876,515538
2,20,female,Belgian,1,17,ITC,loss,5,left,15,ITC_choice,1534,f,0,0,217,232341,517073
2,20,female,Belgian,1,17,ITC,loss,5,left,15,ITC_wait,0,undefined,0,0,217,227334,522080
2,20,female,Belgian,1,17,ITC,loss,5,left,15,ITC_collect,1132,k,0,0,217,226200,523214
2,20,female,Belgian,1,17,ITC,loss,5,left,15,ITC_outcome,0,undefined,0,0,237,225196,524218
2,20,female,Belgian,1,18,guess,win,30,right,6,guess_start,920,space,0,0,237,224274,525140
2,20,female,Belgian,1,18,guess,win,30,right,6,guess_choice,1165,f,0,0,237,223104,526310
2,20,female,Belgian,1,18,guess,win,30,right,6,guess_outcome,0,undefined,0,0,257,221549,527865
2,20,female,Belgian,1,18,ITC,win,30,right,6,ITC_start,912,space,0,0,257,220636,528778
2,20,female,Belgian,1,18,ITC,win,30,right,6,ITC_choice,2111,f,0,0,257,218524,530890
2,20,female,Belgian,1,18,ITC,win,30,right,6,ITC_collect,1366,k,0,0,257,217154,532260
2,20,female,Belgian,1,18,ITC,win,30,right,6,ITC_outcome,0,undefined,0,0,263,216146,533268
2,20,female,Belgian,1,19,guess,loss,5,left,10,guess_start,739,space,0,0,263,215404,534010
2,20,female,Belgian,1,19,guess,loss,5,left,10,guess_choice,1487,f,0,0,263,213913,535501
2,20,female,Belgian,1,19,guess,loss,5,left,10,guess_outcome,0,undefined,0,0,248,212355,537059
2,20,female,Belgian,1,19,ITC,loss,5,left,10,ITC_start,133,space,0,0,248,212219,537195
2,20,female,Belgian,1,18,ITC,win,30,right,6,ITC_wait,0,undefined,0,0,257,218521,530893
2,20,female,Belgian,1,19,ITC,loss,5,left,10,ITC_choice,3405,f,0,0,248,208813,540601
2,20,female,Belgian,1,19,ITC,loss,5,left,10,ITC_wait,0,undefined,0,0,248,203810,545604
2,20,female,Belgian,1,19,ITC,loss,5,left,10,ITC_collect,1197,k,0,0,248,202612,546802
2,20,female,Belgian,1,19,ITC,loss,5,left,10,ITC_outcome,0,undefined,0,0,268,201606,547808
2,20,female,Belgian,1,20,guess,loss,30,right,8,guess_start,966,space,0,0,268,200637,548777
2,20,female,Belgian,1,20,guess,loss,30,right,8,guess_choice,1429,j,0,0,268,199205,550209
2,20,female,Belgian,1,20,guess,loss,30,right,8,guess_outcome,0,undefined,0,0,253,197644,551770
2,20,female,Belgian,1,20,ITC,loss,30,right,8,ITC_start,1191,space,0,0,253,196452,552962
2,20,female,Belgian,1,20,ITC,loss,30,right,8,ITC_choice,1958,f,0,0,253,194493,554921
2,20,female,Belgian,1,20,ITC,loss,30,right,8,ITC_wait,0,undefined,0,0,253,194490,554924
2,20,female,Belgian,1,20,ITC,loss,30,right,8,ITC_collect,1406,k,0,0,253,193083,556331
2,20,female,Belgian,1,20,ITC,loss,30,right,8,ITC_outcome,0,undefined,0,0,261,192074,557340
2,20,female,Belgian,1,21,guess,loss,30,left,2,guess_start,729,space,0,0,261,191343,558071
2,20,female,Belgian,1,21,guess,loss,30,left,2,guess_choice,1295,f,0,0,261,190044,559370
2,20,female,Belgian,1,21,guess,loss,30,left,2,guess_outcome,0,undefined,0,0,246,188484,560930
2,20,female,Belgian,1,21,ITC,loss,30,left,2,ITC_start,1325,space,0,0,246,187157,562257
2,20,female,Belgian,1,21,ITC,loss,30,left,2,ITC_choice,2884,j,0,0,246,184272,565142
2,20,female,Belgian,1,21,ITC,loss,30,left,2,ITC_wait,0,undefined,0,0,246,184269,565145
2,20,female,Belgian,1,21,ITC,loss,30,left,2,ITC_collect,841,k,0,0,246,183425,565989
2,20,female,Belgian,1,21,ITC,loss,30,left,2,ITC_outcome,0,undefined,0,0,248,182416,566998
2,20,female,Belgian,1,22,guess,win,15,right,6,guess_start,1619,space,0,0,248,180796,568618
2,20,female,Belgian,1,22,guess,win,15,right,6,guess_choice,799,f,0,0,248,179993,569421
2,20,female,Belgian,1,22,guess,win,15,right,6,guess_outcome,0,undefined,0,0,268,178433,570981
2,20,female,Belgian,1,22,ITC,win,15,right,6,ITC_start,1533,space,0,0,268,176899,572515
2,20,female,Belgian,1,22,ITC,win,15,right,6,ITC_choice,2035,j,0,0,268,174862,574552
2,20,female,Belgian,1,22,ITC,win,15,right,6,ITC_wait,0,undefined,0,0,268,159855,589559
2,20,female,Belgian,1,22,ITC,win,15,right,6,ITC_collect,454,k,0,0,268,159399,590015
2,20,female,Belgian,1,22,ITC,win,15,right,6,ITC_outcome,0,undefined,0,0,288,158391,591023
2,20,female,Belgian,1,23,guess,neutral,30,left,7,guess_start,586,space,0,0,288,157803,591611
2,20,female,Belgian,1,23,guess,neutral,30,left,7,guess_choice,957,f,0,0,288,156843,592571
2,20,female,Belgian,1,23,guess,neutral,30,left,7,guess_outcome,0,undefined,0,0,288,155283,594131
2,20,female,Belgian,1,23,ITC,neutral,30,left,7,ITC_start,882,space,0,0,288,154399,595015
2,20,female,Belgian,1,23,ITC,neutral,30,left,7,ITC_choice,1625,j,0,0,288,152772,596642
2,20,female,Belgian,1,23,ITC,neutral,30,left,7,ITC_wait,0,undefined,0,0,288,152770,596644
2,20,female,Belgian,1,23,ITC,neutral,30,left,7,ITC_collect,798,k,0,0,288,151969,597445
2,20,female,Belgian,1,23,ITC,neutral,30,left,7,ITC_outcome,0,undefined,0,0,295,150964,598450
2,20,female,Belgian,1,24,guess,neutral,30,left,5,guess_start,611,space,0,0,295,150351,599063
2,20,female,Belgian,1,24,guess,neutral,30,left,5,guess_choice,662,f,0,0,295,149683,599731
2,20,female,Belgian,1,24,guess,neutral,30,left,5,guess_outcome,0,undefined,0,0,295,148125,601289
2,20,female,Belgian,1,24,ITC,neutral,30,left,5,ITC_start,1117,space,0,0,295,147006,602408
2,20,female,Belgian,1,24,ITC,neutral,30,left,5,ITC_choice,1990,j,0,0,295,145013,604401
2,20,female,Belgian,1,24,ITC,neutral,30,left,5,ITC_wait,0,undefined,0,0,295,145010,604404
2,20,female,Belgian,1,24,ITC,neutral,30,left,5,ITC_collect,905,k,0,0,295,144103,605311
2,20,female,Belgian,1,24,ITC,neutral,30,left,5,ITC_outcome,0,undefined,0,0,300,143094,606320
2,20,female,Belgian,1,25,guess,win,30,left,1,guess_start,799,space,0,0,300,142295,607119
2,20,female,Belgian,1,25,guess,win,30,left,1,guess_choice,1198,j,0,0,300,141091,608323
2,20,female,Belgian,1,25,guess,win,30,left,1,guess_outcome,0,undefined,0,0,320,139535,609879
2,20,female,Belgian,1,25,ITC,win,30,left,1,ITC_start,857,space,0,0,320,138677,610737
2,20,female,Belgian,1,25,ITC,win,30,left,1,ITC_wait,0,undefined,0,0,320,136283,613131
2,20,female,Belgian,1,25,ITC,win,30,left,1,ITC_choice,2388,j,0,0,320,136286,613128
2,20,female,Belgian,1,25,ITC,win,30,left,1,ITC_collect,778,k,0,0,320,135504,613910
2,20,female,Belgian,1,25,ITC,win,30,left,1,ITC_outcome,0,undefined,0,0,321,134496,614918
2,20,female,Belgian,1,26,guess,loss,30,left,4,guess_start,581,space,0,0,321,133914,615500
2,20,female,Belgian,1,26,guess,loss,30,left,4,guess_choice,1175,j,0,0,321,132735,616679
2,20,female,Belgian,1,26,guess,loss,30,left,4,guess_outcome,0,undefined,0,0,306,131178,618236
2,20,female,Belgian,1,26,ITC,loss,30,left,4,ITC_start,1761,space,0,0,306,129415,619999
2,20,female,Belgian,1,26,ITC,loss,30,left,4,ITC_choice,1435,j,0,0,306,127978,621436
2,20,female,Belgian,1,26,ITC,loss,30,left,4,ITC_wait,0,undefined,0,0,306,127976,621438
2,20,female,Belgian,1,26,ITC,loss,30,left,4,ITC_collect,1046,k,0,0,306,126929,622485
2,20,female,Belgian,1,26,ITC,loss,30,left,4,ITC_outcome,0,undefined,0,0,310,125920,623494
2,20,female,Belgian,1,27,guess,loss,15,right,8,guess_start,654,space,0,0,310,125264,624150
2,20,female,Belgian,1,27,guess,loss,15,right,8,guess_choice,790,f,0,0,310,124468,624946
2,20,female,Belgian,1,27,guess,loss,15,right,8,guess_outcome,0,undefined,0,0,295,122911,626503
2,20,female,Belgian,1,27,ITC,loss,15,right,8,ITC_start,794,space,0,0,295,122114,627300
2,20,female,Belgian,1,27,ITC,loss,15,right,8,ITC_choice,1633,j,0,0,295,120480,628934
2,20,female,Belgian,1,27,ITC,loss,15,right,8,ITC_wait,0,undefined,0,0,295,105473,643941
2,20,female,Belgian,1,27,ITC,loss,15,right,8,ITC_collect,1695,k,0,0,295,103776,645638
2,20,female,Belgian,1,27,ITC,loss,15,right,8,ITC_outcome,0,undefined,0,0,315,102768,646646
2,20,female,Belgian,1,28,guess,win,30,left,3,guess_start,1955,space,0,0,315,100812,648602
2,20,female,Belgian,1,28,guess,win,30,left,3,guess_choice,1545,j,0,0,315,99260,650154
2,20,female,Belgian,1,28,guess,win,30,left,3,guess_outcome,0,undefined,0,0,335,97704,651710
2,20,female,Belgian,1,28,ITC,win,30,left,3,ITC_start,798,space,0,0,335,96904,652510
2,20,female,Belgian,1,28,ITC,win,30,left,3,ITC_choice,1230,j,0,0,335,95672,653742
2,20,female,Belgian,1,28,ITC,win,30,left,3,ITC_wait,0,undefined,0,0,335,95669,653745
2,20,female,Belgian,1,28,ITC,win,30,left,3,ITC_collect,732,k,0,0,335,94936,654478
2,20,female,Belgian,1,28,ITC,win,30,left,3,ITC_outcome,0,undefined,0,0,338,93930,655484
2,20,female,Belgian,1,29,guess,neutral,5,right,14,guess_start,821,space,0,0,338,93108,656306
2,20,female,Belgian,1,29,guess,neutral,5,right,14,guess_choice,742,j,0,0,338,92362,657052
2,20,female,Belgian,1,29,guess,neutral,5,right,14,guess_outcome,0,undefined,0,0,338,90807,658607
2,20,female,Belgian,1,29,ITC,neutral,5,right,14,ITC_start,757,space,0,0,338,90048,659366
2,20,female,Belgian,1,29,ITC,neutral,5,right,14,ITC_choice,2136,j,0,0,338,87911,661503
2,20,female,Belgian,1,29,ITC,neutral,5,right,14,ITC_wait,0,undefined,0,0,338,82904,666510
2,20,female,Belgian,1,29,ITC,neutral,5,right,14,ITC_collect,733,k,0,0,338,82168,667246
2,20,female,Belgian,1,29,ITC,neutral,5,right,14,ITC_outcome,0,undefined,0,0,358,81159,668255
2,20,female,Belgian,1,30,guess,win,5,left,15,guess_start,766,space,0,0,358,80392,669022
2,20,female,Belgian,1,30,guess,win,5,left,15,guess_choice,1019,f,0,0,358,79368,670046
2,20,female,Belgian,1,30,guess,win,5,left,15,guess_outcome,0,undefined,0,0,378,77808,671606
2,20,female,Belgian,1,30,ITC,win,5,left,15,ITC_start,876,space,0,0,378,76930,672484
2,20,female,Belgian,1,30,ITC,win,5,left,15,ITC_choice,1833,f,0,0,378,75096,674318
2,20,female,Belgian,1,30,ITC,win,5,left,15,ITC_wait,0,undefined,0,0,378,70088,679326
2,20,female,Belgian,1,30,ITC,win,5,left,15,ITC_collect,718,k,0,0,378,69370,680044
2,20,female,Belgian,1,30,ITC,win,5,left,15,ITC_outcome,0,undefined,0,0,398,68364,681050
2,20,female,Belgian,1,31,guess,win,15,right,10,guess_start,641,space,0,0,398,67722,681692
2,20,female,Belgian,1,31,guess,win,15,right,10,guess_choice,1575,f,0,0,398,66143,683271
2,20,female,Belgian,1,31,guess,win,15,right,10,guess_outcome,0,undefined,0,0,418,64588,684826
2,20,female,Belgian,1,31,ITC,win,15,right,10,ITC_start,792,space,0,0,418,63795,685619
2,20,female,Belgian,1,31,ITC,win,15,right,10,ITC_choice,2032,f,0,0,418,61762,687652
2,20,female,Belgian,1,31,ITC,win,15,right,10,ITC_wait,0,undefined,0,0,418,61761,687653
2,20,female,Belgian,1,31,ITC,win,15,right,10,ITC_collect,768,k,0,0,418,60993,688421
2,20,female,Belgian,1,31,ITC,win,15,right,10,ITC_outcome,0,undefined,0,0,428,59989,689425
2,20,female,Belgian,1,32,guess,win,15,left,12,guess_start,628,space,0,0,428,59359,690055
2,20,female,Belgian,1,32,guess,win,15,left,12,guess_choice,954,j,0,0,428,58401,691013
2,20,female,Belgian,1,32,guess,win,15,left,12,guess_outcome,0,undefined,0,0,448,56843,692571
2,20,female,Belgian,1,32,ITC,win,15,left,12,ITC_start,1196,space,0,0,448,55645,693769
2,20,female,Belgian,1,32,ITC,win,15,left,12,ITC_wait,0,undefined,0,0,448,53867,695547
2,20,female,Belgian,1,32,ITC,win,15,left,12,ITC_choice,1774,j,0,0,448,53870,695544
2,20,female,Belgian,1,32,ITC,win,15,left,12,ITC_collect,697,k,0,0,448,53168,696246
2,20,female,Belgian,1,32,ITC,win,15,left,12,ITC_outcome,0,undefined,0,0,460,52159,697255
2,20,female,Belgian,1,33,guess,neutral,5,right,12,guess_start,670,space,0,0,460,51486,697928
2,20,female,Belgian,1,33,guess,neutral,5,right,12,guess_choice,971,j,0,0,460,50511,698903
2,20,female,Belgian,1,33,guess,neutral,5,right,12,guess_outcome,0,undefined,0,0,460,48952,700462
2,20,female,Belgian,1,33,ITC,neutral,5,right,12,ITC_start,1430,space,0,0,460,47521,701893
2,20,female,Belgian,1,33,ITC,neutral,5,right,12,ITC_choice,1614,j,0,0,460,45906,703508
2,20,female,Belgian,1,33,ITC,neutral,5,right,12,ITC_wait,0,undefined,0,0,460,40898,708516
2,20,female,Belgian,1,33,ITC,neutral,5,right,12,ITC_collect,783,k,0,0,460,40114,709300
2,20,female,Belgian,1,33,ITC,neutral,5,right,12,ITC_outcome,0,undefined,0,0,480,39106,710308
2,20,female,Belgian,1,34,guess,neutral,15,right,9,guess_start,698,space,0,0,480,38407,711007
2,20,female,Belgian,1,34,guess,neutral,15,right,9,guess_choice,872,j,0,0,480,37529,711885
2,20,female,Belgian,1,34,guess,neutral,15,right,9,guess_outcome,0,undefined,0,0,480,35969,713445
2,20,female,Belgian,1,34,ITC,neutral,15,right,9,ITC_start,357,space,0,0,480,35610,713804
2,20,female,Belgian,1,34,ITC,neutral,15,right,9,ITC_choice,1910,f,0,0,480,33699,715715
2,20,female,Belgian,1,34,ITC,neutral,15,right,9,ITC_wait,0,undefined,0,0,480,33696,715718
2,20,female,Belgian,1,34,ITC,neutral,15,right,9,ITC_collect,775,k,0,0,480,32918,716496
2,20,female,Belgian,1,34,ITC,neutral,15,right,9,ITC_outcome,0,undefined,0,0,489,31910,717504
2,20,female,Belgian,1,35,guess,loss,15,left,7,guess_start,1132,space,0,0,489,30773,718641
2,20,female,Belgian,1,35,guess,loss,15,left,7,guess_choice,1941,f,0,0,489,28828,720586
2,20,female,Belgian,1,35,guess,loss,15,left,7,guess_outcome,0,undefined,0,0,474,27268,722146
2,20,female,Belgian,1,35,ITC,loss,15,left,7,ITC_start,935,space,0,0,474,26332,723082
2,20,female,Belgian,1,35,ITC,loss,15,left,7,ITC_choice,2324,j,0,0,474,24006,725408
2,20,female,Belgian,1,35,ITC,loss,15,left,7,ITC_wait,0,undefined,0,0,474,24004,725410
2,20,female,Belgian,1,35,ITC,loss,15,left,7,ITC_collect,777,k,0,0,474,23226,726188
2,20,female,Belgian,1,35,ITC,loss,15,left,7,ITC_outcome,0,undefined,0,0,481,22218,727196
2,20,female,Belgian,1,36,guess,neutral,15,left,8,guess_start,620,space,0,0,481,21597,727817
2,20,female,Belgian,1,36,guess,neutral,15,left,8,guess_choice,837,f,0,0,481,20753,728661
2,20,female,Belgian,1,36,guess,neutral,15,left,8,guess_outcome,0,undefined,0,0,481,19194,730220
2,20,female,Belgian,1,36,ITC,neutral,15,left,8,ITC_start,869,space,0,0,481,18324,731090
2,20,female,Belgian,1,36,ITC,neutral,15,left,8,ITC_choice,1679,j,0,0,481,16644,732770
2,20,female,Belgian,1,36,ITC,neutral,15,left,8,ITC_wait,0,undefined,0,0,481,16641,732773
2,20,female,Belgian,1,36,ITC,neutral,15,left,8,ITC_collect,574,k,0,0,481,16066,733348
2,20,female,Belgian,1,36,ITC,neutral,15,left,8,ITC_outcome,0,undefined,0,0,489,15061,734353
2,20,female,Belgian,1,37,guess,loss,5,right,16,guess_start,632,space,0,0,489,14428,734986
2,20,female,Belgian,1,37,guess,loss,5,right,16,guess_choice,830,f,0,0,489,13592,735822
2,20,female,Belgian,1,37,guess,loss,5,right,16,guess_outcome,0,undefined,0,0,474,12034,737380
2,20,female,Belgian,1,37,ITC,loss,5,right,16,ITC_start,180,space,0,0,474,11851,737563
2,20,female,Belgian,1,37,ITC,loss,5,right,16,ITC_choice,2566,j,0,0,474,9282,740132
2,20,female,Belgian,1,37,ITC,loss,5,right,16,ITC_wait,0,undefined,0,0,474,4275,745139
2,20,female,Belgian,1,37,ITC,loss,5,right,16,ITC_collect,394,k,0,0,474,3880,745534
2,20,female,Belgian,1,37,ITC,loss,5,right,16,ITC_outcome,0,undefined,0,0,494,2871,746543
2,20,female,Belgian,1,38,guess,win,5,left,9,guess_start,635,space,0,0,494,2235,747179
2,20,female,Belgian,1,38,guess,win,5,left,9,guess_choice,946,f,0,0,494,1283,748131
2,20,female,Belgian,1,38,guess,win,5,left,9,guess_outcome,0,undefined,0,0,514,-9,749423
2,20,female,Belgian,2,39,guess,neutral,15,left,7,guess_start,2489,space,0,0,0,477510,762152
2,20,female,Belgian,2,39,guess,neutral,15,left,7,guess_choice,1118,f,0,0,0,476386,763276
2,20,female,Belgian,2,39,guess,neutral,15,left,7,guess_outcome,0,undefined,0,0,0,474829,764833
2,20,female,Belgian,2,39,ITC,neutral,15,left,7,ITC_start,1431,space,0,0,0,473395,766267
2,20,female,Belgian,2,39,ITC,neutral,15,left,7,ITC_choice,1893,j,0,0,0,471500,768162
2,20,female,Belgian,2,39,ITC,neutral,15,left,7,ITC_wait,0,undefined,0,0,0,471498,768164
2,20,female,Belgian,2,39,ITC,neutral,15,left,7,ITC_collect,1359,k,0,0,0,470138,769524
2,20,female,Belgian,2,39,ITC,neutral,15,left,7,ITC_outcome,0,undefined,0,0,7,469133,770529
2,20,female,Belgian,2,40,guess,neutral,5,left,10,guess_start,677,space,0,0,7,468454,771208
2,20,female,Belgian,2,40,guess,neutral,5,left,10,guess_choice,730,f,0,0,7,467721,771941
2,20,female,Belgian,2,40,guess,neutral,5,left,10,guess_outcome,0,undefined,0,0,7,466161,773501
2,20,female,Belgian,2,40,ITC,neutral,5,left,10,ITC_start,1373,space,0,0,7,464786,774876
2,20,female,Belgian,2,40,ITC,neutral,5,left,10,ITC_choice,2005,f,0,0,7,462779,776883
2,20,female,Belgian,2,40,ITC,neutral,5,left,10,ITC_wait,0,undefined,0,0,7,457777,781885
2,20,female,Belgian,2,40,ITC,neutral,5,left,10,ITC_collect,399,k,0,0,7,457377,782285
2,20,female,Belgian,2,40,ITC,neutral,5,left,10,ITC_outcome,0,undefined,0,0,27,456372,783290
2,20,female,Belgian,2,41,guess,neutral,5,left,11,guess_start,807,space,0,0,27,455563,784099
2,20,female,Belgian,2,41,guess,neutral,5,left,11,guess_choice,1336,j,0,0,27,454222,785440
2,20,female,Belgian,2,41,guess,neutral,5,left,11,guess_outcome,0,undefined,0,0,27,452661,787001
2,20,female,Belgian,2,41,ITC,neutral,5,left,11,ITC_start,1149,space,0,0,27,451509,788153
2,20,female,Belgian,2,41,ITC,neutral,5,left,11,ITC_choice,1853,f,0,0,27,449654,790008
2,20,female,Belgian,2,41,ITC,neutral,5,left,11,ITC_wait,0,undefined,0,0,27,444647,795015
2,20,female,Belgian,2,41,ITC,neutral,5,left,11,ITC_collect,996,k,0,0,27,443649,796013
2,20,female,Belgian,2,41,ITC,neutral,5,left,11,ITC_outcome,0,undefined,0,0,47,442643,797019
2,20,female,Belgian,2,42,guess,loss,30,right,5,guess_start,707,space,0,0,47,441934,797728
2,20,female,Belgian,2,42,guess,loss,30,right,5,guess_choice,936,j,0,0,47,440993,798669
2,20,female,Belgian,2,42,guess,loss,30,right,5,guess_outcome,0,undefined,0,0,32,439433,800229
2,20,female,Belgian,2,42,ITC,loss,30,right,5,ITC_start,782,space,0,0,32,438650,801012
2,20,female,Belgian,2,42,ITC,loss,30,right,5,ITC_choice,1812,f,0,0,32,436836,802826
2,20,female,Belgian,2,42,ITC,loss,30,right,5,ITC_wait,0,undefined,0,0,32,436831,802831
2,20,female,Belgian,2,42,ITC,loss,30,right,5,ITC_collect,692,k,0,0,32,436139,803523
2,20,female,Belgian,2,42,ITC,loss,30,right,5,ITC_outcome,0,undefined,0,0,37,435130,804532
2,20,female,Belgian,2,43,guess,neutral,5,left,16,guess_start,568,space,0,0,37,434560,805102
2,20,female,Belgian,2,43,guess,neutral,5,left,16,guess_choice,956,f,0,0,37,433599,806063
2,20,female,Belgian,2,43,guess,neutral,5,left,16,guess_outcome,0,undefined,0,0,37,432040,807622
2,20,female,Belgian,2,43,ITC,neutral,5,left,16,ITC_start,1540,space,0,0,37,430499,809163
2,20,female,Belgian,2,43,ITC,neutral,5,left,16,ITC_choice,1402,f,0,0,37,429093,810569
2,20,female,Belgian,2,43,ITC,neutral,5,left,16,ITC_wait,0,undefined,0,0,37,424085,815577
2,20,female,Belgian,2,43,ITC,neutral,5,left,16,ITC_collect,886,k,0,0,37,423198,816464
2,20,female,Belgian,2,43,ITC,neutral,5,left,16,ITC_outcome,0,undefined,0,0,57,422188,817474
2,20,female,Belgian,2,44,guess,win,5,right,16,guess_start,663,space,0,0,57,421524,818138
2,20,female,Belgian,2,44,guess,win,5,right,16,guess_choice,767,j,0,0,57,420752,818910
2,20,female,Belgian,2,44,guess,win,5,right,16,guess_outcome,0,undefined,0,0,77,419192,820470
2,20,female,Belgian,2,44,ITC,win,5,right,16,ITC_start,1440,space,0,0,77,417752,821910
2,20,female,Belgian,2,44,ITC,win,5,right,16,ITC_choice,1947,j,0,0,77,415804,823858
2,20,female,Belgian,2,44,ITC,win,5,right,16,ITC_wait,0,undefined,0,0,77,410798,828864
2,20,female,Belgian,2,44,ITC,win,5,right,16,ITC_collect,665,k,0,0,77,410131,829531
2,20,female,Belgian,2,44,ITC,win,5,right,16,ITC_outcome,0,undefined,0,0,97,409119,830543
2,20,female,Belgian,2,45,guess,neutral,5,left,9,guess_start,597,space,0,0,97,408521,831141
2,20,female,Belgian,2,45,guess,neutral,5,left,9,guess_choice,876,j,0,0,97,407640,832022
2,20,female,Belgian,2,45,guess,neutral,5,left,9,guess_outcome,0,undefined,0,0,97,406085,833577
2,20,female,Belgian,2,45,ITC,neutral,5,left,9,ITC_start,921,space,0,0,97,405162,834500
2,20,female,Belgian,2,45,ITC,neutral,5,left,9,ITC_choice,1428,f,0,0,97,403732,835930
2,20,female,Belgian,2,45,ITC,neutral,5,left,9,ITC_wait,0,undefined,0,0,97,398725,840937
2,20,female,Belgian,2,45,ITC,neutral,5,left,9,ITC_collect,469,k,0,0,97,398255,841407
2,20,female,Belgian,2,45,ITC,neutral,5,left,9,ITC_outcome,0,undefined,0,0,117,397248,842414
2,20,female,Belgian,2,46,guess,neutral,15,right,12,guess_start,682,space,0,0,117,396564,843098
2,20,female,Belgian,2,46,guess,neutral,15,right,12,guess_choice,828,j,0,0,117,395729,843933
2,20,female,Belgian,2,46,guess,neutral,15,right,12,guess_outcome,0,undefined,0,0,117,394171,845491
2,20,female,Belgian,2,46,ITC,neutral,15,right,12,ITC_start,1273,space,0,0,117,392895,846767
2,20,female,Belgian,2,46,ITC,neutral,15,right,12,ITC_choice,2550,f,0,0,117,390344,849318
2,20,female,Belgian,2,46,ITC,neutral,15,right,12,ITC_wait,0,undefined,0,0,117,390339,849323
2,20,female,Belgian,2,46,ITC,neutral,15,right,12,ITC_collect,956,k,0,0,117,389381,850281
2,20,female,Belgian,2,46,ITC,neutral,15,right,12,ITC_outcome,0,undefined,0,0,129,388373,851289
2,20,female,Belgian,2,47,guess,loss,15,left,11,guess_start,530,space,0,0,129,387841,851821
2,20,female,Belgian,2,47,guess,loss,15,left,11,guess_choice,856,f,0,0,129,386981,852681
2,20,female,Belgian,2,47,guess,loss,15,left,11,guess_outcome,0,undefined,0,0,114,385422,854240
2,20,female,Belgian,2,47,ITC,loss,15,left,11,ITC_start,598,space,0,0,114,384822,854840
2,20,female,Belgian,2,47,ITC,loss,15,left,11,ITC_wait,0,undefined,0,0,114,382639,857023
2,20,female,Belgian,2,47,ITC,loss,15,left,11,ITC_choice,2177,j,0,0,114,382643,857019
2,20,female,Belgian,2,47,ITC,loss,15,left,11,ITC_collect,535,k,0,0,114,382103,857559
2,20,female,Belgian,2,47,ITC,loss,15,left,11,ITC_outcome,0,undefined,0,0,125,381098,858564
2,20,female,Belgian,2,48,guess,loss,5,right,13,guess_start,514,space,0,0,125,380583,859079
2,20,female,Belgian,2,48,guess,loss,5,right,13,guess_choice,1002,f,0,0,125,379576,860086
2,20,female,Belgian,2,48,guess,loss,5,right,13,guess_outcome,0,undefined,0,0,110,378021,861641
2,20,female,Belgian,2,48,ITC,loss,5,right,13,ITC_start,1793,space,0,0,110,376228,863434
2,20,female,Belgian,2,48,ITC,loss,5,right,13,ITC_choice,1790,j,0,0,110,374435,865227
2,20,female,Belgian,2,48,ITC,loss,5,right,13,ITC_wait,0,undefined,0,0,110,369430,870232
2,20,female,Belgian,2,48,ITC,loss,5,right,13,ITC_collect,332,k,0,0,110,369096,870566
2,20,female,Belgian,2,48,ITC,loss,5,right,13,ITC_outcome,0,undefined,0,0,130,368086,871576
2,20,female,Belgian,2,49,guess,win,30,left,5,guess_start,709,space,0,0,130,367376,872286
2,20,female,Belgian,2,49,guess,win,30,left,5,guess_choice,881,f,0,0,130,366489,873173
2,20,female,Belgian,2,49,guess,win,30,left,5,guess_outcome,0,undefined,0,0,150,364934,874728
2,20,female,Belgian,2,49,ITC,win,30,left,5,ITC_start,588,space,0,0,150,364345,875317
2,20,female,Belgian,2,49,ITC,win,30,left,5,ITC_choice,2477,j,0,0,150,361865,877797
2,20,female,Belgian,2,49,ITC,win,30,left,5,ITC_wait,0,undefined,0,0,150,361863,877799
2,20,female,Belgian,2,49,ITC,win,30,left,5,ITC_collect,623,k,0,0,150,361239,878423
2,20,female,Belgian,2,49,ITC,win,30,left,5,ITC_outcome,0,undefined,0,0,155,360231,879431
2,20,female,Belgian,2,50,guess,win,30,right,4,guess_start,830,space,0,0,155,359400,880262
2,20,female,Belgian,2,50,guess,win,30,right,4,guess_choice,1044,j,0,0,155,358351,881311
2,20,female,Belgian,2,50,guess,win,30,right,4,guess_outcome,0,undefined,0,0,175,356795,882867
2,20,female,Belgian,2,50,ITC,win,30,right,4,ITC_start,1353,space,0,0,175,355442,884220
2,20,female,Belgian,2,50,ITC,win,30,right,4,ITC_choice,2014,f,0,0,175,353427,886235
2,20,female,Belgian,2,50,ITC,win,30,right,4,ITC_wait,0,undefined,0,0,175,353424,886238
2,20,female,Belgian,2,50,ITC,win,30,right,4,ITC_collect,478,k,0,0,175,352946,886716
2,20,female,Belgian,2,50,ITC,win,30,right,4,ITC_outcome,0,undefined,0,0,179,351936,887726
2,20,female,Belgian,2,51,guess,loss,5,left,12,guess_start,1551,space,0,0,179,350384,889278
2,20,female,Belgian,2,51,guess,loss,5,left,12,guess_choice,2156,f,0,0,179,348224,891438
2,20,female,Belgian,2,51,guess,loss,5,left,12,guess_outcome,0,undefined,0,0,164,346664,892998
2,20,female,Belgian,2,51,ITC,loss,5,left,12,ITC_start,1495,space,0,0,164,345167,894495
2,20,female,Belgian,2,51,ITC,loss,5,left,12,ITC_choice,1765,f,0,0,164,343402,896260
2,20,female,Belgian,2,51,ITC,loss,5,left,12,ITC_wait,0,undefined,0,0,164,338395,901267
2,20,female,Belgian,2,51,ITC,loss,5,left,12,ITC_collect,521,k,0,0,164,337872,901790
2,20,female,Belgian,2,51,ITC,loss,5,left,12,ITC_outcome,0,undefined,0,0,184,336863,902799
2,20,female,Belgian,2,52,guess,neutral,30,right,6,guess_start,536,space,0,0,184,336325,903337
2,20,female,Belgian,2,52,guess,neutral,30,right,6,guess_choice,918,j,0,0,184,335402,904260
2,20,female,Belgian,2,52,guess,neutral,30,right,6,guess_outcome,0,undefined,0,0,184,333844,905818
2,20,female,Belgian,2,52,ITC,neutral,30,right,6,ITC_start,1537,space,0,0,184,332305,907357
2,20,female,Belgian,2,52,ITC,neutral,30,right,6,ITC_choice,1885,f,0,0,184,330418,909244
2,20,female,Belgian,2,52,ITC,neutral,30,right,6,ITC_wait,0,undefined,0,0,184,330415,909247
2,20,female,Belgian,2,52,ITC,neutral,30,right,6,ITC_collect,592,k,0,0,184,329822,909840
2,20,female,Belgian,2,52,ITC,neutral,30,right,6,ITC_outcome,0,undefined,0,0,190,328816,910846
2,20,female,Belgian,2,53,guess,loss,5,right,14,guess_start,715,space,0,0,190,328100,911562
2,20,female,Belgian,2,53,guess,loss,5,right,14,guess_choice,1033,j,0,0,190,327060,912602
2,20,female,Belgian,2,53,guess,loss,5,right,14,guess_outcome,0,undefined,0,0,175,325500,914162
2,20,female,Belgian,2,53,ITC,loss,5,right,14,ITC_start,538,space,0,0,175,324960,914702
2,20,female,Belgian,2,53,ITC,loss,5,right,14,ITC_choice,1337,j,0,0,175,323622,916040
2,20,female,Belgian,2,53,ITC,loss,5,right,14,ITC_wait,0,undefined,0,0,175,318614,921048
2,20,female,Belgian,2,53,ITC,loss,5,right,14,ITC_collect,308,k,0,0,175,318306,921356
2,20,female,Belgian,2,53,ITC,loss,5,right,14,ITC_outcome,0,undefined,0,0,195,317299,922363
2,20,female,Belgian,2,54,guess,win,5,right,12,guess_start,681,space,0,0,195,316616,923046
2,20,female,Belgian,2,54,guess,win,5,right,12,guess_choice,897,j,0,0,195,315715,923947
2,20,female,Belgian,2,54,guess,win,5,right,12,guess_outcome,0,undefined,0,0,215,314159,925503
2,20,female,Belgian,2,54,ITC,win,5,right,12,ITC_start,585,space,0,0,215,313572,926090
2,20,female,Belgian,2,54,ITC,win,5,right,12,ITC_choice,1523,j,0,0,215,312047,927615
2,20,female,Belgian,2,54,ITC,win,5,right,12,ITC_wait,0,undefined,0,0,215,307041,932621
2,20,female,Belgian,2,54,ITC,win,5,right,12,ITC_collect,365,k,0,0,215,306674,932988
2,20,female,Belgian,2,54,ITC,win,5,right,12,ITC_outcome,0,undefined,0,0,235,305666,933996
2,20,female,Belgian,2,55,guess,loss,15,left,12,guess_start,712,space,0,0,235,304952,934710
2,20,female,Belgian,2,55,guess,loss,15,left,12,guess_choice,895,f,0,0,235,304052,935610
2,20,female,Belgian,2,55,guess,loss,15,left,12,guess_outcome,0,undefined,0,0,220,302496,937166
2,20,female,Belgian,2,55,ITC,loss,15,left,12,ITC_start,1279,space,0,0,220,301215,938447
2,20,female,Belgian,2,55,ITC,loss,15,left,12,ITC_choice,2450,j,0,0,220,298764,940898
2,20,female,Belgian,2,55,ITC,loss,15,left,12,ITC_wait,0,undefined,0,0,220,298761,940901
2,20,female,Belgian,2,55,ITC,loss,15,left,12,ITC_collect,611,k,0,0,220,298149,941513
2,20,female,Belgian,2,55,ITC,loss,15,left,12,ITC_outcome,0,undefined,0,0,232,297143,942519
2,20,female,Belgian,2,56,guess,neutral,30,right,3,guess_start,599,space,0,0,232,296543,943119
2,20,female,Belgian,2,56,guess,neutral,30,right,3,guess_choice,1201,f,0,0,232,295338,944324
2,20,female,Belgian,2,56,guess,neutral,30,right,3,guess_outcome,0,undefined,0,0,232,293782,945880
2,20,female,Belgian,2,56,ITC,neutral,30,right,3,ITC_start,1366,space,0,0,232,292414,947248
2,20,female,Belgian,2,56,ITC,neutral,30,right,3,ITC_choice,2967,f,0,0,232,289445,950217
2,20,female,Belgian,2,56,ITC,neutral,30,right,3,ITC_wait,0,undefined,0,0,232,289443,950219
2,20,female,Belgian,2,56,ITC,neutral,30,right,3,ITC_collect,775,k,0,0,232,288666,950996
2,20,female,Belgian,2,56,ITC,neutral,30,right,3,ITC_outcome,0,undefined,0,0,235,287662,952000
2,20,female,Belgian,2,57,guess,win,15,left,7,guess_start,571,space,0,0,235,287089,952573
2,20,female,Belgian,2,57,guess,win,15,left,7,guess_choice,818,j,0,0,235,286265,953397
2,20,female,Belgian,2,57,guess,win,15,left,7,guess_outcome,0,undefined,0,0,255,284710,954952
2,20,female,Belgian,2,57,ITC,win,15,left,7,ITC_start,900,space,0,0,255,283807,955855
2,20,female,Belgian,2,57,ITC,win,15,left,7,ITC_choice,2439,f,0,0,255,281367,958295
2,20,female,Belgian,2,57,ITC,win,15,left,7,ITC_wait,0,undefined,0,0,255,266365,973297
2,20,female,Belgian,2,57,ITC,win,15,left,7,ITC_collect,424,k,0,0,255,265940,973722
2,20,female,Belgian,2,57,ITC,win,15,left,7,ITC_outcome,0,undefined,0,0,275,264932,974730
2,20,female,Belgian,2,58,guess,loss,15,left,5,guess_start,760,space,0,0,275,264170,975492
2,20,female,Belgian,2,58,guess,loss,15,left,5,guess_choice,1031,j,0,0,275,263136,976526
2,20,female,Belgian,2,58,guess,loss,15,left,5,guess_outcome,0,undefined,0,0,260,261581,978081
2,20,female,Belgian,2,58,ITC,loss,15,left,5,ITC_start,1321,space,0,0,260,260258,979404
2,20,female,Belgian,2,58,ITC,loss,15,left,5,ITC_choice,1805,j,0,0,260,258452,981210
2,20,female,Belgian,2,58,ITC,loss,15,left,5,ITC_wait,0,undefined,0,0,260,258449,981213
2,20,female,Belgian,2,58,ITC,loss,15,left,5,ITC_collect,403,k,0,0,260,258045,981617
2,20,female,Belgian,2,58,ITC,loss,15,left,5,ITC_outcome,0,undefined,0,0,265,257036,982626
2,20,female,Belgian,2,59,guess,neutral,15,right,5,guess_start,465,space,0,0,265,256570,983092
2,20,female,Belgian,2,59,guess,neutral,15,right,5,guess_choice,934,f,0,0,265,255630,984032
2,20,female,Belgian,2,59,guess,neutral,15,right,5,guess_outcome,0,undefined,0,0,265,254073,985589
2,20,female,Belgian,2,59,ITC,neutral,15,right,5,ITC_start,647,space,0,0,265,253425,986237
2,20,female,Belgian,2,59,ITC,neutral,15,right,5,ITC_choice,1824,f,0,0,265,251600,988062
2,20,female,Belgian,2,59,ITC,neutral,15,right,5,ITC_wait,0,undefined,0,0,265,251598,988064
2,20,female,Belgian,2,59,ITC,neutral,15,right,5,ITC_collect,701,k,0,0,265,250896,988766
2,20,female,Belgian,2,59,ITC,neutral,15,right,5,ITC_outcome,0,undefined,0,0,270,249890,989772
2,20,female,Belgian,2,60,guess,win,15,left,9,guess_start,464,space,0,0,270,249424,990238
2,20,female,Belgian,2,60,guess,win,15,left,9,guess_choice,1004,j,0,0,270,248415,991247
2,20,female,Belgian,2,60,guess,win,15,left,9,guess_outcome,0,undefined,0,0,290,246860,992802
2,20,female,Belgian,2,60,ITC,win,15,left,9,ITC_start,584,space,0,0,290,246274,993388
2,20,female,Belgian,2,60,ITC,win,15,left,9,ITC_choice,1769,j,0,0,290,244502,995160
2,20,female,Belgian,2,60,ITC,win,15,left,9,ITC_wait,0,undefined,0,0,290,244500,995162
2,20,female,Belgian,2,60,ITC,win,15,left,9,ITC_collect,508,k,0,0,290,243989,995673
2,20,female,Belgian,2,60,ITC,win,15,left,9,ITC_outcome,0,undefined,0,0,299,242982,996680
2,20,female,Belgian,2,61,guess,win,5,right,10,guess_start,594,space,0,0,299,242385,997277
2,20,female,Belgian,2,61,guess,win,5,right,10,guess_choice,1154,j,0,0,299,241227,998435
2,20,female,Belgian,2,61,guess,win,5,right,10,guess_outcome,0,undefined,0,0,319,239668,999994
2,20,female,Belgian,2,61,ITC,win,5,right,10,ITC_start,697,space,0,0,319,238969,1000693
2,20,female,Belgian,2,61,ITC,win,5,right,10,ITC_choice,1454,j,0,0,319,237513,1002149
2,20,female,Belgian,2,61,ITC,win,5,right,10,ITC_wait,0,undefined,0,0,319,232509,1007153
2,20,female,Belgian,2,61,ITC,win,5,right,10,ITC_collect,631,k,0,0,319,231875,1007787
2,20,female,Belgian,2,61,ITC,win,5,right,10,ITC_outcome,0,undefined,0,0,339,230867,1008795
2,20,female,Belgian,2,62,guess,loss,30,right,1,guess_start,563,space,0,0,339,230302,1009360
2,20,female,Belgian,2,62,guess,loss,30,right,1,guess_choice,1152,f,0,0,339,229146,1010516
2,20,female,Belgian,2,62,guess,loss,30,right,1,guess_outcome,0,undefined,0,0,324,227586,1012076
2,20,female,Belgian,2,62,ITC,loss,30,right,1,ITC_start,581,space,0,0,324,227004,1012658
2,20,female,Belgian,2,62,ITC,loss,30,right,1,ITC_choice,1563,f,0,0,324,225439,1014223
2,20,female,Belgian,2,62,ITC,loss,30,right,1,ITC_wait,0,undefined,0,0,324,225435,1014227
2,20,female,Belgian,2,62,ITC,loss,30,right,1,ITC_collect,849,k,0,0,324,224586,1015076
2,20,female,Belgian,2,62,ITC,loss,30,right,1,ITC_outcome,0,undefined,0,0,325,223581,1016081
2,20,female,Belgian,2,63,guess,neutral,30,left,1,guess_start,631,space,0,0,325,222949,1016713
2,20,female,Belgian,2,63,guess,neutral,30,left,1,guess_choice,877,j,0,0,325,222066,1017596
2,20,female,Belgian,2,63,guess,neutral,30,left,1,guess_outcome,0,undefined,0,0,325,220506,1019156
2,20,female,Belgian,2,63,ITC,neutral,30,left,1,ITC_start,581,space,0,0,325,219924,1019738
2,20,female,Belgian,2,63,ITC,neutral,30,left,1,ITC_wait,0,undefined,0,0,325,218470,1021192
2,20,female,Belgian,2,63,ITC,neutral,30,left,1,ITC_choice,1448,j,0,0,325,218472,1021190
2,20,female,Belgian,2,63,ITC,neutral,30,left,1,ITC_collect,440,k,0,0,325,218028,1021634
2,20,female,Belgian,2,63,ITC,neutral,30,left,1,ITC_outcome,0,undefined,0,0,326,217021,1022641
2,20,female,Belgian,2,64,guess,win,5,right,11,guess_start,648,space,0,0,326,216371,1023291
2,20,female,Belgian,2,64,guess,win,5,right,11,guess_choice,1321,j,0,0,326,215045,1024617
2,20,female,Belgian,2,64,guess,win,5,right,11,guess_outcome,0,undefined,0,0,346,213486,1026176
2,20,female,Belgian,2,64,ITC,win,5,right,11,ITC_start,601,space,0,0,346,212883,1026779
2,20,female,Belgian,2,64,ITC,win,5,right,11,ITC_choice,1273,f,0,0,346,211607,1028055
2,20,female,Belgian,2,64,ITC,win,5,right,11,ITC_wait,0,undefined,0,0,346,211605,1028057
2,20,female,Belgian,2,64,ITC,win,5,right,11,ITC_collect,864,k,0,0,346,210740,1028922
2,20,female,Belgian,2,64,ITC,win,5,right,11,ITC_outcome,0,undefined,0,0,357,209733,1029929
2,20,female,Belgian,2,65,guess,loss,30,left,3,guess_start,469,space,0,0,357,209263,1030399
2,20,female,Belgian,2,65,guess,loss,30,left,3,guess_choice,878,f,0,0,357,208380,1031282
2,20,female,Belgian,2,65,guess,loss,30,left,3,guess_outcome,0,undefined,0,0,342,206819,1032843
2,20,female,Belgian,2,65,ITC,loss,30,left,3,ITC_start,749,space,0,0,342,206069,1033593
2,20,female,Belgian,2,65,ITC,loss,30,left,3,ITC_choice,1537,j,0,0,342,204530,1035132
2,20,female,Belgian,2,65,ITC,loss,30,left,3,ITC_wait,0,undefined,0,0,342,204528,1035134
2,20,female,Belgian,2,65,ITC,loss,30,left,3,ITC_collect,485,k,0,0,342,204040,1035622
2,20,female,Belgian,2,65,ITC,loss,30,left,3,ITC_outcome,0,undefined,0,0,345,203031,1036631
2,20,female,Belgian,2,66,guess,win,15,right,8,guess_start,562,space,0,0,345,202468,1037194
2,20,female,Belgian,2,66,guess,win,15,right,8,guess_choice,1169,f,0,0,345,201293,1038369
2,20,female,Belgian,2,66,guess,win,15,right,8,guess_outcome,0,undefined,0,0,365,199733,1039929
2,20,female,Belgian,2,66,ITC,win,15,right,8,ITC_start,562,space,0,0,365,199171,1040491
2,20,female,Belgian,2,66,ITC,win,15,right,8,ITC_choice,3124,j,0,0,365,196044,1043618
2,20,female,Belgian,2,66,ITC,win,15,right,8,ITC_wait,0,undefined,0,0,365,181042,1058620
2,20,female,Belgian,2,66,ITC,win,15,right,8,ITC_collect,520,k,0,0,365,180520,1059142
2,20,female,Belgian,2,66,ITC,win,15,right,8,ITC_outcome,0,undefined,0,0,385,179512,1060150
2,20,female,Belgian,2,67,guess,win,30,left,8,guess_start,839,space,0,0,385,178671,1060991
2,20,female,Belgian,2,67,guess,win,30,left,8,guess_choice,1138,f,0,0,385,177529,1062133
2,20,female,Belgian,2,67,guess,win,30,left,8,guess_outcome,0,undefined,0,0,405,175970,1063692
2,20,female,Belgian,2,67,ITC,win,30,left,8,ITC_start,752,space,0,0,405,175217,1064445
2,20,female,Belgian,2,67,ITC,win,30,left,8,ITC_choice,1895,j,0,0,405,173320,1066342
2,20,female,Belgian,2,67,ITC,win,30,left,8,ITC_wait,0,undefined,0,0,405,173318,1066344
2,20,female,Belgian,2,67,ITC,win,30,left,8,ITC_collect,706,k,0,0,405,172610,1067052
2,20,female,Belgian,2,67,ITC,win,30,left,8,ITC_outcome,0,undefined,0,0,413,171602,1068060
2,20,female,Belgian,2,68,guess,win,30,left,2,guess_start,497,space,0,0,413,171104,1068558
2,20,female,Belgian,2,68,guess,win,30,left,2,guess_choice,915,j,0,0,413,170184,1069478
2,20,female,Belgian,2,68,guess,win,30,left,2,guess_outcome,0,undefined,0,0,433,168628,1071034
2,20,female,Belgian,2,68,ITC,win,30,left,2,ITC_start,1329,space,0,0,433,167298,1072364
2,20,female,Belgian,2,68,ITC,win,30,left,2,ITC_choice,1838,j,0,0,433,165459,1074203
2,20,female,Belgian,2,68,ITC,win,30,left,2,ITC_wait,0,undefined,0,0,433,165456,1074206
2,20,female,Belgian,2,68,ITC,win,30,left,2,ITC_collect,460,k,0,0,433,164995,1074667
2,20,female,Belgian,2,68,ITC,win,30,left,2,ITC_outcome,0,undefined,0,0,435,163986,1075676
2,20,female,Belgian,2,69,guess,loss,5,right,9,guess_start,540,space,0,0,435,163443,1076219
2,20,female,Belgian,2,69,guess,loss,5,right,9,guess_choice,1181,j,0,0,435,162257,1077405
2,20,female,Belgian,2,69,guess,loss,5,right,9,guess_outcome,0,undefined,0,0,420,160700,1078962
2,20,female,Belgian,2,69,ITC,loss,5,right,9,ITC_start,499,space,0,0,420,160199,1079463
2,20,female,Belgian,2,69,ITC,loss,5,right,9,ITC_choice,1271,j,0,0,420,158926,1080736
2,20,female,Belgian,2,69,ITC,loss,5,right,9,ITC_wait,0,undefined,0,0,420,153920,1085742
2,20,female,Belgian,2,69,ITC,loss,5,right,9,ITC_collect,825,k,0,0,420,153094,1086568
2,20,female,Belgian,2,69,ITC,loss,5,right,9,ITC_outcome,0,undefined,0,0,440,152088,1087574
2,20,female,Belgian,2,70,guess,win,5,left,14,guess_start,623,space,0,0,440,151463,1088199
2,20,female,Belgian,2,70,guess,win,5,left,14,guess_choice,901,f,0,0,440,150556,1089106
2,20,female,Belgian,2,70,guess,win,5,left,14,guess_outcome,0,undefined,0,0,460,148996,1090666
2,20,female,Belgian,2,70,ITC,win,5,left,14,ITC_start,514,space,0,0,460,148480,1091182
2,20,female,Belgian,2,70,ITC,win,5,left,14,ITC_choice,1252,f,0,0,460,147226,1092436
2,20,female,Belgian,2,70,ITC,win,5,left,14,ITC_wait,0,undefined,0,0,460,142220,1097442
2,20,female,Belgian,2,70,ITC,win,5,left,14,ITC_collect,553,k,0,0,460,141665,1097997
2,20,female,Belgian,2,70,ITC,win,5,left,14,ITC_outcome,0,undefined,0,0,480,140659,1099003
2,20,female,Belgian,2,71,guess,loss,30,left,6,guess_start,497,space,0,0,480,140160,1099502
2,20,female,Belgian,2,71,guess,loss,30,left,6,guess_choice,702,j,0,0,480,139452,1100210
2,20,female,Belgian,2,71,guess,loss,30,left,6,guess_outcome,0,undefined,0,0,465,137897,1101765
2,20,female,Belgian,2,71,ITC,loss,30,left,6,ITC_start,620,space,0,0,465,137275,1102387
2,20,female,Belgian,2,71,ITC,loss,30,left,6,ITC_choice,1340,j,0,0,465,135933,1103729
2,20,female,Belgian,2,71,ITC,loss,30,left,6,ITC_wait,0,undefined,0,0,465,135930,1103732
2,20,female,Belgian,2,71,ITC,loss,30,left,6,ITC_collect,426,k,0,0,465,135503,1104159
2,20,female,Belgian,2,71,ITC,loss,30,left,6,ITC_outcome,0,undefined,0,0,471,134495,1105167
2,20,female,Belgian,2,72,guess,neutral,15,left,11,guess_start,499,space,0,0,471,133995,1105667
2,20,female,Belgian,2,72,guess,neutral,15,left,11,guess_choice,834,j,0,0,471,133156,1106506
2,20,female,Belgian,2,72,guess,neutral,15,left,11,guess_outcome,0,undefined,0,0,471,131596,1108066
2,20,female,Belgian,2,72,ITC,neutral,15,left,11,ITC_start,712,space,0,0,471,130883,1108779
2,20,female,Belgian,2,72,ITC,neutral,15,left,11,ITC_wait,0,undefined,0,0,471,129375,1110287
2,20,female,Belgian,2,72,ITC,neutral,15,left,11,ITC_choice,1502,j,0,0,471,129378,1110284
2,20,female,Belgian,2,72,ITC,neutral,15,left,11,ITC_collect,587,k,0,0,471,128786,1110876
2,20,female,Belgian,2,72,ITC,neutral,15,left,11,ITC_outcome,0,undefined,0,0,482,127778,1111884
2,20,female,Belgian,2,73,guess,neutral,5,right,12,guess_start,614,space,0,0,482,127162,1112500
2,20,female,Belgian,2,73,guess,neutral,5,right,12,guess_choice,755,f,0,0,482,126402,1113260
2,20,female,Belgian,2,73,guess,neutral,5,right,12,guess_outcome,0,undefined,0,0,482,124846,1114816
2,20,female,Belgian,2,73,ITC,neutral,5,right,12,ITC_start,920,space,0,0,482,123925,1115737
2,20,female,Belgian,2,73,ITC,neutral,5,right,12,ITC_choice,1141,j,0,0,482,122783,1116879
2,20,female,Belgian,2,73,ITC,neutral,5,right,12,ITC_wait,0,undefined,0,0,482,117777,1121885
2,20,female,Belgian,2,73,ITC,neutral,5,right,12,ITC_collect,512,k,0,0,482,117264,1122398
2,20,female,Belgian,2,73,ITC,neutral,5,right,12,ITC_outcome,0,undefined,0,0,502,116255,1123407
2,20,female,Belgian,2,74,guess,win,30,left,6,guess_start,508,space,0,0,502,115744,1123918
2,20,female,Belgian,2,74,guess,win,30,left,6,guess_choice,1225,j,0,0,502,114516,1125146
2,20,female,Belgian,2,74,guess,win,30,left,6,guess_outcome,0,undefined,0,0,522,112958,1126704
2,20,female,Belgian,2,74,ITC,win,30,left,6,ITC_start,680,space,0,0,522,112276,1127386
2,20,female,Belgian,2,74,ITC,win,30,left,6,ITC_choice,1395,j,0,0,522,110880,1128782
2,20,female,Belgian,2,74,ITC,win,30,left,6,ITC_wait,0,undefined,0,0,522,110876,1128786
2,20,female,Belgian,2,74,ITC,win,30,left,6,ITC_collect,397,k,0,0,522,110477,1129185
2,20,female,Belgian,2,74,ITC,win,30,left,6,ITC_outcome,0,undefined,0,0,528,109467,1130195
2,20,female,Belgian,2,75,guess,loss,30,left,3,guess_start,537,space,0,0,528,108928,1130734
2,20,female,Belgian,2,75,guess,loss,30,left,3,guess_choice,1107,j,0,0,528,107815,1131847
2,20,female,Belgian,2,75,guess,loss,30,left,3,guess_outcome,0,undefined,0,0,513,106259,1133403
2,20,female,Belgian,2,75,ITC,loss,30,left,3,ITC_start,703,space,0,0,513,105555,1134107
2,20,female,Belgian,2,75,ITC,loss,30,left,3,ITC_wait,0,undefined,0,0,513,104044,1135618
2,20,female,Belgian,2,75,ITC,loss,30,left,3,ITC_choice,1506,j,0,0,513,104046,1135616
2,20,female,Belgian,2,75,ITC,loss,30,left,3,ITC_collect,375,k,0,0,513,103667,1135995
2,20,female,Belgian,2,75,ITC,loss,30,left,3,ITC_outcome,0,undefined,0,0,516,102659,1137003
2,20,female,Belgian,2,76,guess,win,15,left,8,guess_start,616,space,0,0,516,102042,1137620
2,20,female,Belgian,2,76,guess,win,15,left,8,guess_choice,791,f,0,0,516,101247,1138415
2,20,female,Belgian,2,76,guess,win,15,left,8,guess_outcome,0,undefined,0,0,536,99688,1139974
2,20,female,Belgian,2,76,ITC,win,15,left,8,ITC_start,627,space,0,0,536,99060,1140602
2,20,female,Belgian,2,76,ITC,win,15,left,8,ITC_choice,1388,j,0,0,536,97668,1141994
2,20,female,Belgian,2,76,ITC,win,15,left,8,ITC_wait,0,undefined,0,0,536,97666,1141996
2,20,female,Belgian,2,76,ITC,win,15,left,8,ITC_collect,477,k,0,0,536,97188,1142474
2,20,female,Belgian,2,76,ITC,win,15,left,8,ITC_outcome,0,undefined,0,0,544,96183,1143479
2,20,female,Belgian,2,77,guess,loss,5,left,16,guess_start,596,space,0,0,544,95584,1144078
2,20,female,Belgian,2,77,guess,loss,5,left,16,guess_choice,773,j,0,0,544,94805,1144857
2,20,female,Belgian,2,77,guess,loss,5,left,16,guess_outcome,0,undefined,0,0,529,93247,1146415
2,20,female,Belgian,2,77,ITC,loss,5,left,16,ITC_start,505,space,0,0,529,92740,1146922
2,20,female,Belgian,2,77,ITC,loss,5,left,16,ITC_choice,1604,f,0,0,529,91135,1148527
2,20,female,Belgian,2,77,ITC,loss,5,left,16,ITC_wait,0,undefined,0,0,529,86127,1153535
2,20,female,Belgian,2,77,ITC,loss,5,left,16,ITC_collect,975,k,0,0,529,85150,1154512
2,20,female,Belgian,2,77,ITC,loss,5,left,16,ITC_outcome,0,undefined,0,0,549,84141,1155521
2,20,female,Belgian,2,78,guess,loss,30,left,4,guess_start,555,space,0,0,549,83585,1156077
2,20,female,Belgian,2,78,guess,loss,30,left,4,guess_choice,809,j,0,0,549,82770,1156892
2,20,female,Belgian,2,78,guess,loss,30,left,4,guess_outcome,0,undefined,0,0,534,81216,1158446
2,20,female,Belgian,2,78,ITC,loss,30,left,4,ITC_start,483,space,0,0,534,80731,1158931
2,20,female,Belgian,2,78,ITC,loss,30,left,4,ITC_choice,1673,j,0,0,534,79057,1160605
2,20,female,Belgian,2,78,ITC,loss,30,left,4,ITC_wait,0,undefined,0,0,534,79055,1160607
2,20,female,Belgian,2,78,ITC,loss,30,left,4,ITC_collect,478,k,0,0,534,78574,1161088
2,20,female,Belgian,2,78,ITC,loss,30,left,4,ITC_outcome,0,undefined,0,0,538,77565,1162097
2,20,female,Belgian,2,79,guess,loss,15,left,7,guess_start,532,space,0,0,538,77030,1162632
2,20,female,Belgian,2,79,guess,loss,15,left,7,guess_choice,795,f,0,0,538,76230,1163432
2,20,female,Belgian,2,79,guess,loss,15,left,7,guess_outcome,0,undefined,0,0,523,74672,1164990
2,20,female,Belgian,2,79,ITC,loss,15,left,7,ITC_start,168,space,0,0,523,74502,1165160
2,20,female,Belgian,2,79,ITC,loss,15,left,7,ITC_choice,2094,j,0,0,523,72405,1167257
2,20,female,Belgian,2,79,ITC,loss,15,left,7,ITC_wait,0,undefined,0,0,523,72402,1167260
2,20,female,Belgian,2,79,ITC,loss,15,left,7,ITC_collect,332,k,0,0,523,72070,1167592
2,20,female,Belgian,2,79,ITC,loss,15,left,7,ITC_outcome,0,undefined,0,0,530,71060,1168602
2,20,female,Belgian,2,80,guess,win,5,left,9,guess_start,657,space,0,0,530,70402,1169260
2,20,female,Belgian,2,80,guess,win,5,left,9,guess_choice,1034,j,0,0,530,69365,1170297
2,20,female,Belgian,2,80,guess,win,5,left,9,guess_outcome,0,undefined,0,0,550,67806,1171856
2,20,female,Belgian,2,80,ITC,win,5,left,9,ITC_start,582,space,0,0,550,67222,1172440
2,20,female,Belgian,2,80,ITC,win,5,left,9,ITC_choice,971,f,0,0,550,66248,1173414
2,20,female,Belgian,2,80,ITC,win,5,left,9,ITC_wait,0,undefined,0,0,550,61242,1178420
2,20,female,Belgian,2,80,ITC,win,5,left,9,ITC_collect,585,k,0,0,550,60655,1179007
2,20,female,Belgian,2,80,ITC,win,5,left,9,ITC_outcome,0,undefined,0,0,570,59646,1180016
2,20,female,Belgian,2,81,guess,win,30,right,3,guess_start,584,space,0,0,570,59060,1180602
2,20,female,Belgian,2,81,guess,win,30,right,3,guess_choice,1088,j,0,0,570,57967,1181695
2,20,female,Belgian,2,81,guess,win,30,right,3,guess_outcome,0,undefined,0,0,590,56407,1183255
2,20,female,Belgian,2,81,ITC,win,30,right,3,ITC_start,780,space,0,0,590,55625,1184037
2,20,female,Belgian,2,81,ITC,win,30,right,3,ITC_choice,1774,f,0,0,590,53850,1185812
2,20,female,Belgian,2,81,ITC,win,30,right,3,ITC_wait,0,undefined,0,0,590,53847,1185815
2,20,female,Belgian,2,81,ITC,win,30,right,3,ITC_collect,562,k,0,0,590,53283,1186379
2,20,female,Belgian,2,81,ITC,win,30,right,3,ITC_outcome,0,undefined,0,0,593,52274,1187388
2,20,female,Belgian,2,82,guess,loss,15,right,11,guess_start,671,space,0,0,593,51601,1188061
2,20,female,Belgian,2,82,guess,loss,15,right,11,guess_choice,875,f,0,0,593,50721,1188941
2,20,female,Belgian,2,82,guess,loss,15,right,11,guess_outcome,0,undefined,0,0,578,49162,1190500
2,20,female,Belgian,2,82,ITC,loss,15,right,11,ITC_start,539,space,0,0,578,48622,1191040
2,20,female,Belgian,2,82,ITC,loss,15,right,11,ITC_wait,0,undefined,0,0,578,46905,1192757
2,20,female,Belgian,2,82,ITC,loss,15,right,11,ITC_choice,1712,f,0,0,578,46907,1192755
2,20,female,Belgian,2,82,ITC,loss,15,right,11,ITC_collect,438,k,0,0,578,46465,1193197
2,20,female,Belgian,2,82,ITC,loss,15,right,11,ITC_outcome,0,undefined,0,0,589,45460,1194202
2,20,female,Belgian,2,83,guess,win,30,left,1,guess_start,522,space,0,0,589,44936,1194726
2,20,female,Belgian,2,83,guess,win,30,left,1,guess_choice,649,j,0,0,589,44283,1195379
2,20,female,Belgian,2,83,guess,win,30,left,1,guess_outcome,0,undefined,0,0,609,42728,1196934
2,20,female,Belgian,2,83,ITC,win,30,left,1,ITC_start,593,space,0,0,609,42132,1197530
2,20,female,Belgian,2,83,ITC,win,30,left,1,ITC_choice,1441,j,0,0,609,40690,1198972
2,20,female,Belgian,2,83,ITC,win,30,left,1,ITC_wait,0,undefined,0,0,609,40688,1198974
2,20,female,Belgian,2,83,ITC,win,30,left,1,ITC_collect,415,k,0,0,609,40269,1199393
2,20,female,Belgian,2,83,ITC,win,30,left,1,ITC_outcome,0,undefined,0,0,610,39260,1200402
2,20,female,Belgian,2,84,guess,loss,15,right,5,guess_start,560,space,0,0,610,38697,1200965
2,20,female,Belgian,2,84,guess,loss,15,right,5,guess_choice,896,j,0,0,610,37797,1201865
2,20,female,Belgian,2,84,guess,loss,15,right,5,guess_outcome,0,undefined,0,0,595,36237,1203425
2,20,female,Belgian,2,84,ITC,loss,15,right,5,ITC_start,1658,space,0,0,595,34577,1205085
2,20,female,Belgian,2,84,ITC,loss,15,right,5,ITC_wait,0,undefined,0,0,595,32853,1206809
2,20,female,Belgian,2,84,ITC,loss,15,right,5,ITC_choice,1720,f,0,0,595,32856,1206806
2,20,female,Belgian,2,84,ITC,loss,15,right,5,ITC_collect,1207,k,0,0,595,31645,1208017
2,20,female,Belgian,2,84,ITC,loss,15,right,5,ITC_outcome,0,undefined,0,0,600,30642,1209020
2,20,female,Belgian,2,85,guess,neutral,15,left,11,guess_start,543,space,0,0,600,30096,1209566
2,20,female,Belgian,2,85,guess,neutral,15,left,11,guess_choice,738,j,0,0,600,29355,1210307
2,20,female,Belgian,2,85,guess,neutral,15,left,11,guess_outcome,0,undefined,0,0,600,27797,1211865
2,20,female,Belgian,2,85,ITC,neutral,15,left,11,ITC_start,559,space,0,0,600,27235,1212427
2,20,female,Belgian,2,85,ITC,neutral,15,left,11,ITC_wait,0,undefined,0,0,600,25706,1213956
2,20,female,Belgian,2,85,ITC,neutral,15,left,11,ITC_choice,1525,j,0,0,600,25709,1213953
2,20,female,Belgian,2,85,ITC,neutral,15,left,11,ITC_collect,412,k,0,0,600,25291,1214371
2,20,female,Belgian,2,85,ITC,neutral,15,left,11,ITC_outcome,0,undefined,0,0,611,24285,1215377
2,20,female,Belgian,2,86,guess,neutral,30,left,8,guess_start,584,space,0,0,611,23700,1215962
2,20,female,Belgian,2,86,guess,neutral,30,left,8,guess_choice,783,f,0,0,611,22913,1216749
2,20,female,Belgian,2,86,guess,neutral,30,left,8,guess_outcome,0,undefined,0,0,611,21353,1218309
2,20,female,Belgian,2,86,ITC,neutral,30,left,8,ITC_start,2336,space,0,0,611,19016,1220646
2,20,female,Belgian,2,86,ITC,neutral,30,left,8,ITC_choice,1462,j,0,0,611,17552,1222110
2,20,female,Belgian,2,86,ITC,neutral,30,left,8,ITC_wait,0,undefined,0,0,611,17549,1222113
2,20,female,Belgian,2,86,ITC,neutral,30,left,8,ITC_collect,417,k,0,0,611,17131,1222531
2,20,female,Belgian,2,86,ITC,neutral,30,left,8,ITC_outcome,0,undefined,0,0,619,16122,1223540
2,20,female,Belgian,2,87,guess,neutral,15,right,6,guess_start,551,space,0,0,619,15570,1224092
2,20,female,Belgian,2,87,guess,neutral,15,right,6,guess_choice,683,f,0,0,619,14883,1224779
2,20,female,Belgian,2,87,guess,neutral,15,right,6,guess_outcome,0,undefined,0,0,619,13322,1226340
2,20,female,Belgian,2,87,ITC,neutral,15,right,6,ITC_start,550,space,0,0,619,12771,1226891
2,20,female,Belgian,2,87,ITC,neutral,15,right,6,ITC_choice,1519,f,0,0,619,11248,1228414
2,20,female,Belgian,2,87,ITC,neutral,15,right,6,ITC_wait,0,undefined,0,0,619,11246,1228416
2,20,female,Belgian,2,87,ITC,neutral,15,right,6,ITC_collect,598,k,0,0,619,10646,1229016
2,20,female,Belgian,2,87,ITC,neutral,15,right,6,ITC_outcome,0,undefined,0,0,625,9638,1230024
2,20,female,Belgian,2,88,guess,loss,30,right,7,guess_start,489,space,0,0,625,9147,1230515
2,20,female,Belgian,2,88,guess,loss,30,right,7,guess_choice,1060,j,0,0,625,8083,1231579
2,20,female,Belgian,2,88,guess,loss,30,right,7,guess_outcome,0,undefined,0,0,610,6526,1233136
2,20,female,Belgian,2,88,ITC,loss,30,right,7,ITC_start,565,space,0,0,610,5960,1233702
2,20,female,Belgian,2,88,ITC,loss,30,right,7,ITC_choice,1574,f,0,0,610,4383,1235279
2,20,female,Belgian,2,88,ITC,loss,30,right,7,ITC_wait,0,undefined,0,0,610,4380,1235282
2,20,female,Belgian,2,88,ITC,loss,30,right,7,ITC_collect,436,k,0,0,610,3942,1235720
2,20,female,Belgian,2,88,ITC,loss,30,right,7,ITC_outcome,0,undefined,0,0,617,2933,1236729
2,20,female,Belgian,2,89,guess,win,15,left,11,guess_start,463,space,0,0,617,2470,1237192
2,20,female,Belgian,2,89,guess,win,15,left,11,guess_choice,1399,f,0,0,617,1066,1238596
2,20,female,Belgian,2,89,guess,win,15,left,11,guess_outcome,0,undefined,0,0,637,-10,1239672
2,20,female,Belgian,3,90,guess,loss,5,left,15,guess_start,2308,space,0,0,0,477690,1307041
2,20,female,Belgian,3,90,guess,loss,5,left,15,guess_choice,915,j,0,0,0,476769,1307962
2,20,female,Belgian,3,90,guess,loss,5,left,15,guess_outcome,0,undefined,0,0,-15,475213,1309518
2,20,female,Belgian,3,90,ITC,loss,5,left,15,ITC_start,739,space,0,0,-15,474472,1310259
2,20,female,Belgian,3,90,ITC,loss,5,left,15,ITC_choice,1223,f,0,0,-15,473249,1311482
2,20,female,Belgian,3,90,ITC,loss,5,left,15,ITC_wait,0,undefined,0,0,-15,468247,1316484
2,20,female,Belgian,3,90,ITC,loss,5,left,15,ITC_collect,498,k,0,0,-15,467747,1316984
2,20,female,Belgian,3,90,ITC,loss,5,left,15,ITC_outcome,0,undefined,0,0,5,466740,1317991
2,20,female,Belgian,3,91,guess,loss,30,left,8,guess_start,627,space,0,0,5,466111,1318620
2,20,female,Belgian,3,91,guess,loss,30,left,8,guess_choice,733,j,0,0,5,465373,1319358
2,20,female,Belgian,3,91,guess,loss,30,left,8,guess_outcome,0,undefined,0,0,-10,463814,1320917
2,20,female,Belgian,3,91,ITC,loss,30,left,8,ITC_start,624,space,0,0,-10,463190,1321541
2,20,female,Belgian,3,91,ITC,loss,30,left,8,ITC_choice,1618,j,0,0,-10,461569,1323162
2,20,female,Belgian,3,91,ITC,loss,30,left,8,ITC_wait,0,undefined,0,0,-10,461566,1323165
2,20,female,Belgian,3,91,ITC,loss,30,left,8,ITC_collect,394,k,0,0,-10,461170,1323561
2,20,female,Belgian,3,91,ITC,loss,30,left,8,ITC_outcome,0,undefined,0,0,-2,460165,1324566
2,20,female,Belgian,3,92,guess,win,30,right,8,guess_start,489,space,0,0,-2,459673,1325058
2,20,female,Belgian,3,92,guess,win,30,right,8,guess_choice,847,j,0,0,-2,458820,1325911
2,20,female,Belgian,3,92,guess,win,30,right,8,guess_outcome,0,undefined,0,0,18,457262,1327469
2,20,female,Belgian,3,92,ITC,win,30,right,8,ITC_start,606,space,0,0,18,456654,1328077
2,20,female,Belgian,3,92,ITC,win,30,right,8,ITC_choice,1404,f,0,0,18,455249,1329482
2,20,female,Belgian,3,92,ITC,win,30,right,8,ITC_wait,0,undefined,0,0,18,455246,1329485
2,20,female,Belgian,3,92,ITC,win,30,right,8,ITC_collect,685,k,0,0,18,454560,1330171
2,20,female,Belgian,3,92,ITC,win,30,right,8,ITC_outcome,0,undefined,0,0,26,453556,1331175
2,20,female,Belgian,3,93,guess,loss,30,left,6,guess_start,496,space,0,0,26,453057,1331674
2,20,female,Belgian,3,93,guess,loss,30,left,6,guess_choice,822,j,0,0,26,452231,1332500
2,20,female,Belgian,3,93,guess,loss,30,left,6,guess_outcome,0,undefined,0,0,11,450671,1334060
2,20,female,Belgian,3,93,ITC,loss,30,left,6,ITC_start,45,space,0,0,11,450624,1334107
2,20,female,Belgian,3,93,ITC,loss,30,left,6,ITC_choice,1905,j,0,0,11,448717,1336014
2,20,female,Belgian,3,93,ITC,loss,30,left,6,ITC_wait,0,undefined,0,0,11,448714,1336017
2,20,female,Belgian,3,93,ITC,loss,30,left,6,ITC_collect,287,k,0,0,11,448422,1336309
2,20,female,Belgian,3,93,ITC,loss,30,left,6,ITC_outcome,0,undefined,0,0,17,447416,1337315
2,20,female,Belgian,3,94,guess,neutral,30,left,4,guess_start,452,space,0,0,17,446964,1337767
2,20,female,Belgian,3,94,guess,neutral,30,left,4,guess_choice,602,f,0,0,17,446357,1338374
2,20,female,Belgian,3,94,guess,neutral,30,left,4,guess_outcome,0,undefined,0,0,17,444798,1339933
2,20,female,Belgian,3,94,ITC,neutral,30,left,4,ITC_start,543,space,0,0,17,444254,1340477
2,20,female,Belgian,3,94,ITC,neutral,30,left,4,ITC_wait,0,undefined,0,0,17,443185,1341546
2,20,female,Belgian,3,94,ITC,neutral,30,left,4,ITC_choice,1065,j,0,0,17,443187,1341544
2,20,female,Belgian,3,94,ITC,neutral,30,left,4,ITC_collect,263,k,0,0,17,442918,1341813
2,20,female,Belgian,3,94,ITC,neutral,30,left,4,ITC_outcome,0,undefined,0,0,21,441913,1342818
2,20,female,Belgian,3,95,guess,win,15,right,9,guess_start,469,space,0,0,21,441442,1343289
2,20,female,Belgian,3,95,guess,win,15,right,9,guess_choice,720,j,0,0,21,440717,1344014
2,20,female,Belgian,3,95,guess,win,15,right,9,guess_outcome,0,undefined,0,0,41,439156,1345575
2,20,female,Belgian,3,95,ITC,win,15,right,9,ITC_start,427,space,0,0,41,438727,1346004
2,20,female,Belgian,3,95,ITC,win,15,right,9,ITC_choice,1393,f,0,0,41,437333,1347398
2,20,female,Belgian,3,95,ITC,win,15,right,9,ITC_wait,0,undefined,0,0,41,437330,1347401
2,20,female,Belgian,3,95,ITC,win,15,right,9,ITC_collect,522,k,0,0,41,436807,1347924
2,20,female,Belgian,3,95,ITC,win,15,right,9,ITC_outcome,0,undefined,0,0,50,435798,1348933
2,20,female,Belgian,3,96,guess,win,5,right,16,guess_start,372,space,0,0,50,435426,1349305
2,20,female,Belgian,3,96,guess,win,5,right,16,guess_choice,922,j,0,0,50,434499,1350232
2,20,female,Belgian,3,96,guess,win,5,right,16,guess_outcome,0,undefined,0,0,70,432938,1351793
2,20,female,Belgian,3,96,ITC,win,5,right,16,ITC_start,1860,space,0,0,70,431077,1353654
2,20,female,Belgian,3,96,ITC,win,5,right,16,ITC_choice,1381,j,0,0,70,429693,1355038
2,20,female,Belgian,3,96,ITC,win,5,right,16,ITC_wait,0,undefined,0,0,70,424688,1360043
2,20,female,Belgian,3,96,ITC,win,5,right,16,ITC_collect,538,k,0,0,70,424147,1360584
2,20,female,Belgian,3,96,ITC,win,5,right,16,ITC_outcome,0,undefined,0,0,90,423140,1361591
2,20,female,Belgian,3,97,guess,neutral,15,left,8,guess_start,613,space,0,0,90,422524,1362207
2,20,female,Belgian,3,97,guess,neutral,15,left,8,guess_choice,799,f,0,0,90,421721,1363010
2,20,female,Belgian,3,97,guess,neutral,15,left,8,guess_outcome,0,undefined,0,0,90,420164,1364567
2,20,female,Belgian,3,97,ITC,neutral,15,left,8,ITC_start,1238,space,0,0,90,418924,1365807
2,20,female,Belgian,3,97,ITC,neutral,15,left,8,ITC_choice,1756,j,0,0,90,417166,1367565
2,20,female,Belgian,3,97,ITC,neutral,15,left,8,ITC_wait,0,undefined,0,0,90,417163,1367568
2,20,female,Belgian,3,97,ITC,neutral,15,left,8,ITC_collect,826,k,0,0,90,416335,1368396
2,20,female,Belgian,3,97,ITC,neutral,15,left,8,ITC_outcome,0,undefined,0,0,98,415330,1369401
2,20,female,Belgian,3,98,guess,win,5,right,10,guess_start,526,space,0,0,98,414802,1369929
2,20,female,Belgian,3,98,guess,win,5,right,10,guess_choice,1098,j,0,0,98,413698,1371033
2,20,female,Belgian,3,98,guess,win,5,right,10,guess_outcome,0,undefined,0,0,118,412138,1372593
2,20,female,Belgian,3,98,ITC,win,5,right,10,ITC_start,157,space,0,0,118,411979,1372752
2,20,female,Belgian,3,98,ITC,win,5,right,10,ITC_choice,1979,j,0,0,118,409999,1374732
2,20,female,Belgian,3,98,ITC,win,5,right,10,ITC_wait,0,undefined,0,0,118,404993,1379738
2,20,female,Belgian,3,98,ITC,win,5,right,10,ITC_collect,475,k,0,0,118,404517,1380214
2,20,female,Belgian,3,98,ITC,win,5,right,10,ITC_outcome,0,undefined,0,0,138,403511,1381220
2,20,female,Belgian,3,99,guess,neutral,5,left,16,guess_start,829,space,0,0,138,402678,1382053
2,20,female,Belgian,3,99,guess,neutral,5,left,16,guess_choice,1482,f,0,0,138,401189,1383542
2,20,female,Belgian,3,99,guess,neutral,5,left,16,guess_outcome,0,undefined,0,0,138,399633,1385098
2,20,female,Belgian,3,99,ITC,neutral,5,left,16,ITC_start,1138,space,0,0,138,398495,1386236
2,20,female,Belgian,3,99,ITC,neutral,5,left,16,ITC_choice,1408,f,0,0,138,397086,1387645
2,20,female,Belgian,3,99,ITC,neutral,5,left,16,ITC_wait,0,undefined,0,0,138,392067,1392664
2,20,female,Belgian,3,99,ITC,neutral,5,left,16,ITC_collect,411,k,0,0,138,391655,1393076
2,20,female,Belgian,3,99,ITC,neutral,5,left,16,ITC_outcome,0,undefined,0,0,158,390649,1394082
2,20,female,Belgian,3,100,guess,loss,30,left,1,guess_start,423,space,0,0,158,390225,1394506
2,20,female,Belgian,3,100,guess,loss,30,left,1,guess_choice,819,j,0,0,158,389399,1395332
2,20,female,Belgian,3,100,guess,loss,30,left,1,guess_outcome,0,undefined,0,0,143,387844,1396887
2,20,female,Belgian,3,100,ITC,loss,30,left,1,ITC_start,523,space,0,0,143,387320,1397411
2,20,female,Belgian,3,100,ITC,loss,30,left,1,ITC_choice,1642,j,0,0,143,385677,1399054
2,20,female,Belgian,3,100,ITC,loss,30,left,1,ITC_wait,0,undefined,0,0,143,385674,1399057
2,20,female,Belgian,3,100,ITC,loss,30,left,1,ITC_collect,506,k,0,0,143,385166,1399565
2,20,female,Belgian,3,100,ITC,loss,30,left,1,ITC_outcome,0,undefined,0,0,144,384156,1400575
2,20,female,Belgian,3,101,guess,win,5,left,11,guess_start,536,space,0,0,144,383619,1401112
2,20,female,Belgian,3,101,guess,win,5,left,11,guess_choice,892,j,0,0,144,382722,1402009
2,20,female,Belgian,3,101,guess,win,5,left,11,guess_outcome,0,undefined,0,0,164,381165,1403566
2,20,female,Belgian,3,101,ITC,win,5,left,11,ITC_start,698,space,0,0,164,380465,1404266
2,20,female,Belgian,3,101,ITC,win,5,left,11,ITC_choice,1908,f,0,0,164,378555,1406176
2,20,female,Belgian,3,101,ITC,win,5,left,11,ITC_wait,0,undefined,0,0,164,373552,1411179
2,20,female,Belgian,3,101,ITC,win,5,left,11,ITC_collect,2385,k,0,0,164,371166,1413565
2,20,female,Belgian,3,101,ITC,win,5,left,11,ITC_outcome,0,undefined,0,0,184,370162,1414569
2,20,female,Belgian,3,102,guess,loss,5,right,10,guess_start,503,space,0,0,184,369659,1415072
2,20,female,Belgian,3,102,guess,loss,5,right,10,guess_choice,686,j,0,0,184,368970,1415761
2,20,female,Belgian,3,102,guess,loss,5,right,10,guess_outcome,0,undefined,0,0,169,367415,1417316
2,20,female,Belgian,3,102,ITC,loss,5,right,10,ITC_start,1450,space,0,0,169,365964,1418767
2,20,female,Belgian,3,102,ITC,loss,5,right,10,ITC_choice,1289,j,0,0,169,364674,1420057
2,20,female,Belgian,3,102,ITC,loss,5,right,10,ITC_wait,0,undefined,0,0,169,359670,1425061
2,20,female,Belgian,3,102,ITC,loss,5,right,10,ITC_collect,579,k,0,0,169,359089,1425642
2,20,female,Belgian,3,102,ITC,loss,5,right,10,ITC_outcome,0,undefined,0,0,189,358080,1426651
2,20,female,Belgian,3,103,guess,neutral,30,right,6,guess_start,620,space,0,0,189,357459,1427272
2,20,female,Belgian,3,103,guess,neutral,30,right,6,guess_choice,1371,j,0,0,189,356082,1428649
2,20,female,Belgian,3,103,guess,neutral,30,right,6,guess_outcome,0,undefined,0,0,189,354527,1430204
2,20,female,Belgian,3,103,ITC,neutral,30,right,6,ITC_start,732,space,0,0,189,353794,1430937
2,20,female,Belgian,3,103,ITC,neutral,30,right,6,ITC_choice,1364,f,0,0,189,352429,1432302
2,20,female,Belgian,3,103,ITC,neutral,30,right,6,ITC_wait,0,undefined,0,0,189,352426,1432305
2,20,female,Belgian,3,103,ITC,neutral,30,right,6,ITC_collect,802,k,0,0,189,351621,1433110
2,20,female,Belgian,3,103,ITC,neutral,30,right,6,ITC_outcome,0,undefined,0,0,195,350612,1434119
2,20,female,Belgian,3,104,guess,loss,30,right,2,guess_start,493,space,0,0,195,350118,1434613
2,20,female,Belgian,3,104,guess,loss,30,right,2,guess_choice,701,j,0,0,195,349410,1435321
2,20,female,Belgian,3,104,guess,loss,30,right,2,guess_outcome,0,undefined,0,0,180,347851,1436880
2,20,female,Belgian,3,104,ITC,loss,30,right,2,ITC_start,744,space,0,0,180,347105,1437626
2,20,female,Belgian,3,104,ITC,loss,30,right,2,ITC_choice,1936,f,0,0,180,345168,1439563
2,20,female,Belgian,3,104,ITC,loss,30,right,2,ITC_wait,0,undefined,0,0,180,345164,1439567
2,20,female,Belgian,3,104,ITC,loss,30,right,2,ITC_collect,492,k,0,0,180,344671,1440060
2,20,female,Belgian,3,104,ITC,loss,30,right,2,ITC_outcome,0,undefined,0,0,182,343667,1441064
2,20,female,Belgian,3,105,guess,loss,15,right,8,guess_start,475,space,0,0,182,343189,1441542
2,20,female,Belgian,3,105,guess,loss,15,right,8,guess_choice,1023,j,0,0,182,342160,1442571
2,20,female,Belgian,3,105,guess,loss,15,right,8,guess_outcome,0,undefined,0,0,167,340602,1444129
2,20,female,Belgian,3,105,ITC,loss,15,right,8,ITC_start,627,space,0,0,167,339974,1444757
2,20,female,Belgian,3,105,ITC,loss,15,right,8,ITC_wait,0,undefined,0,0,167,338287,1446444
2,20,female,Belgian,3,105,ITC,loss,15,right,8,ITC_choice,1682,f,0,0,167,338290,1446441
2,20,female,Belgian,3,105,ITC,loss,15,right,8,ITC_collect,507,k,0,0,167,337778,1446953
2,20,female,Belgian,3,105,ITC,loss,15,right,8,ITC_outcome,0,undefined,0,0,175,336771,1447960
2,20,female,Belgian,3,106,guess,win,30,right,2,guess_start,270,space,0,0,175,336498,1448233
2,20,female,Belgian,3,106,guess,win,30,right,2,guess_choice,811,j,0,0,175,335682,1449049
2,20,female,Belgian,3,106,guess,win,30,right,2,guess_outcome,0,undefined,0,0,195,334123,1450608
2,20,female,Belgian,3,106,ITC,win,30,right,2,ITC_start,659,space,0,0,195,333462,1451269
2,20,female,Belgian,3,106,ITC,win,30,right,2,ITC_wait,0,undefined,0,0,195,331262,1453469
2,20,female,Belgian,3,106,ITC,win,30,right,2,ITC_choice,2195,f,0,0,195,331265,1453466
2,20,female,Belgian,3,106,ITC,win,30,right,2,ITC_collect,527,k,0,0,195,330734,1453997
2,20,female,Belgian,3,106,ITC,win,30,right,2,ITC_outcome,0,undefined,0,0,197,329727,1455004
2,20,female,Belgian,3,107,guess,win,5,left,14,guess_start,498,space,0,0,197,329226,1455505
2,20,female,Belgian,3,107,guess,win,5,left,14,guess_choice,682,j,0,0,197,328541,1456190
2,20,female,Belgian,3,107,guess,win,5,left,14,guess_outcome,0,undefined,0,0,217,326983,1457748
2,20,female,Belgian,3,107,ITC,win,5,left,14,ITC_start,544,space,0,0,217,326437,1458294
2,20,female,Belgian,3,107,ITC,win,5,left,14,ITC_choice,1382,f,0,0,217,325053,1459678
2,20,female,Belgian,3,107,ITC,win,5,left,14,ITC_wait,0,undefined,0,0,217,320045,1464686
2,20,female,Belgian,3,107,ITC,win,5,left,14,ITC_collect,415,k,0,0,217,319629,1465102
2,20,female,Belgian,3,107,ITC,win,5,left,14,ITC_outcome,0,undefined,0,0,237,318623,1466108
2,20,female,Belgian,3,108,guess,win,15,right,10,guess_start,347,space,0,0,237,318275,1466456
2,20,female,Belgian,3,108,guess,win,15,right,10,guess_choice,1378,f,0,0,237,316893,1467838
2,20,female,Belgian,3,108,guess,win,15,right,10,guess_outcome,0,undefined,0,0,257,315338,1469393
2,20,female,Belgian,3,108,ITC,win,15,right,10,ITC_start,627,space,0,0,257,314709,1470022
2,20,female,Belgian,3,108,ITC,win,15,right,10,ITC_choice,1684,f,0,0,257,313022,1471709
2,20,female,Belgian,3,108,ITC,win,15,right,10,ITC_wait,0,undefined,0,0,257,313020,1471711
2,20,female,Belgian,3,108,ITC,win,15,right,10,ITC_collect,428,k,0,0,257,312590,1472141
2,20,female,Belgian,3,108,ITC,win,15,right,10,ITC_outcome,0,undefined,0,0,267,311581,1473150
2,20,female,Belgian,3,109,guess,neutral,15,right,7,guess_start,454,space,0,0,267,311126,1473605
2,20,female,Belgian,3,109,guess,neutral,15,right,7,guess_choice,1125,j,0,0,267,309995,1474736
2,20,female,Belgian,3,109,guess,neutral,15,right,7,guess_outcome,0,undefined,0,0,267,308436,1476295
2,20,female,Belgian,3,109,ITC,neutral,15,right,7,ITC_start,547,space,0,0,267,307887,1476844
2,20,female,Belgian,3,109,ITC,neutral,15,right,7,ITC_choice,1206,f,0,0,267,306678,1478053
2,20,female,Belgian,3,109,ITC,neutral,15,right,7,ITC_wait,0,undefined,0,0,267,306676,1478055
2,20,female,Belgian,3,109,ITC,neutral,15,right,7,ITC_collect,335,k,0,0,267,306339,1478392
2,20,female,Belgian,3,109,ITC,neutral,15,right,7,ITC_outcome,0,undefined,0,0,274,305330,1479401
2,20,female,Belgian,3,110,guess,loss,15,right,10,guess_start,405,space,0,0,274,304923,1479808
2,20,female,Belgian,3,110,guess,loss,15,right,10,guess_choice,1211,j,0,0,274,303705,1481026
2,20,female,Belgian,3,110,guess,loss,15,right,10,guess_outcome,0,undefined,0,0,259,302149,1482582
2,20,female,Belgian,3,110,ITC,loss,15,right,10,ITC_start,379,space,0,0,259,301768,1482963
2,20,female,Belgian,3,110,ITC,loss,15,right,10,ITC_choice,1666,f,0,0,259,300101,1484630
2,20,female,Belgian,3,110,ITC,loss,15,right,10,ITC_wait,0,undefined,0,0,259,300097,1484634
2,20,female,Belgian,3,110,ITC,loss,15,right,10,ITC_collect,328,k,0,0,259,299768,1484963
2,20,female,Belgian,3,110,ITC,loss,15,right,10,ITC_outcome,0,undefined,0,0,269,298763,1485968
2,20,female,Belgian,3,111,guess,loss,30,right,5,guess_start,339,space,0,0,269,298421,1486310
2,20,female,Belgian,3,111,guess,loss,30,right,5,guess_choice,843,f,0,0,269,297574,1487157
2,20,female,Belgian,3,111,guess,loss,30,right,5,guess_outcome,0,undefined,0,0,254,296018,1488713
2,20,female,Belgian,3,111,ITC,loss,30,right,5,ITC_start,193,space,0,0,254,295824,1488907
2,20,female,Belgian,3,111,ITC,loss,30,right,5,ITC_choice,1646,f,0,0,254,294176,1490555
2,20,female,Belgian,3,111,ITC,loss,30,right,5,ITC_wait,0,undefined,0,0,254,294174,1490557
2,20,female,Belgian,3,111,ITC,loss,30,right,5,ITC_collect,429,k,0,0,254,293742,1490989
2,20,female,Belgian,3,111,ITC,loss,30,right,5,ITC_outcome,0,undefined,0,0,259,292737,1491994
2,20,female,Belgian,3,112,guess,win,15,left,12,guess_start,367,space,0,0,259,292369,1492362
2,20,female,Belgian,3,112,guess,win,15,left,12,guess_choice,611,j,0,0,259,291752,1492979
2,20,female,Belgian,3,112,guess,win,15,left,12,guess_outcome,0,undefined,0,0,279,290194,1494537
2,20,female,Belgian,3,112,ITC,win,15,left,12,ITC_start,550,space,0,0,279,289642,1495089
2,20,female,Belgian,3,112,ITC,win,15,left,12,ITC_wait,0,undefined,0,0,279,287565,1497166
2,20,female,Belgian,3,112,ITC,win,15,left,12,ITC_choice,2072,j,0,0,279,287567,1497164
2,20,female,Belgian,3,112,ITC,win,15,left,12,ITC_collect,347,k,0,0,279,287216,1497515
2,20,female,Belgian,3,112,ITC,win,15,left,12,ITC_outcome,0,undefined,0,0,291,286208,1498523
2,20,female,Belgian,3,113,guess,win,5,right,12,guess_start,660,space,0,0,291,285546,1499185
2,20,female,Belgian,3,113,guess,win,5,right,12,guess_choice,992,j,0,0,291,284549,1500182
2,20,female,Belgian,3,113,guess,win,5,right,12,guess_outcome,0,undefined,0,0,311,282991,1501740
2,20,female,Belgian,3,113,ITC,win,5,right,12,ITC_start,689,space,0,0,311,282301,1502430
2,20,female,Belgian,3,113,ITC,win,5,right,12,ITC_choice,2711,j,0,0,311,279586,1505145
2,20,female,Belgian,3,113,ITC,win,5,right,12,ITC_wait,0,undefined,0,0,311,274580,1510151
2,20,female,Belgian,3,113,ITC,win,5,right,12,ITC_collect,492,k,0,0,311,274086,1510645
2,20,female,Belgian,3,113,ITC,win,5,right,12,ITC_outcome,0,undefined,0,0,331,273076,1511655
2,20,female,Belgian,3,114,guess,neutral,15,left,12,guess_start,645,space,0,0,331,272429,1512302
2,20,female,Belgian,3,114,guess,neutral,15,left,12,guess_choice,954,j,0,0,331,271470,1513261
2,20,female,Belgian,3,114,guess,neutral,15,left,12,guess_outcome,0,undefined,0,0,331,269911,1514820
2,20,female,Belgian,3,114,ITC,neutral,15,left,12,ITC_start,560,space,0,0,331,269349,1515382
2,20,female,Belgian,3,114,ITC,neutral,15,left,12,ITC_choice,2406,j,0,0,331,266940,1517791
2,20,female,Belgian,3,114,ITC,neutral,15,left,12,ITC_wait,0,undefined,0,0,331,266938,1517793
2,20,female,Belgian,3,114,ITC,neutral,15,left,12,ITC_collect,332,k,0,0,331,266604,1518127
2,20,female,Belgian,3,114,ITC,neutral,15,left,12,ITC_outcome,0,undefined,0,0,343,265599,1519132
2,20,female,Belgian,3,115,guess,loss,5,left,9,guess_start,1054,space,0,0,343,264543,1520188
2,20,female,Belgian,3,115,guess,loss,5,left,9,guess_choice,790,f,0,0,343,263748,1520983
2,20,female,Belgian,3,115,guess,loss,5,left,9,guess_outcome,0,undefined,0,0,328,262189,1522542
2,20,female,Belgian,3,115,ITC,loss,5,left,9,ITC_start,728,space,0,0,328,261460,1523271
2,20,female,Belgian,3,115,ITC,loss,5,left,9,ITC_choice,1348,f,0,0,328,260108,1524623
2,20,female,Belgian,3,115,ITC,loss,5,left,9,ITC_wait,0,undefined,0,0,328,255104,1529627
2,20,female,Belgian,3,115,ITC,loss,5,left,9,ITC_collect,963,k,0,0,328,254139,1530592
2,20,female,Belgian,3,115,ITC,loss,5,left,9,ITC_outcome,0,undefined,0,0,348,253134,1531597
2,20,female,Belgian,3,116,guess,loss,15,left,9,guess_start,704,space,0,0,348,252428,1532303
2,20,female,Belgian,3,116,guess,loss,15,left,9,guess_choice,907,j,0,0,348,251515,1533216
2,20,female,Belgian,3,116,guess,loss,15,left,9,guess_outcome,0,undefined,0,0,333,249955,1534776
2,20,female,Belgian,3,116,ITC,loss,15,left,9,ITC_start,160,space,0,0,333,249794,1534937
2,20,female,Belgian,3,116,ITC,loss,15,left,9,ITC_choice,1987,j,0,0,333,247804,1536927
2,20,female,Belgian,3,116,ITC,loss,15,left,9,ITC_wait,0,undefined,0,0,333,247802,1536929
2,20,female,Belgian,3,116,ITC,loss,15,left,9,ITC_collect,259,k,0,0,333,247541,1537190
2,20,female,Belgian,3,116,ITC,loss,15,left,9,ITC_outcome,0,undefined,0,0,342,246535,1538196
2,20,female,Belgian,3,117,guess,loss,5,left,13,guess_start,436,space,0,0,342,246098,1538633
2,20,female,Belgian,3,117,guess,loss,5,left,13,guess_choice,893,f,0,0,342,245200,1539531
2,20,female,Belgian,3,117,guess,loss,5,left,13,guess_outcome,0,undefined,0,0,327,243645,1541086
2,20,female,Belgian,3,117,ITC,loss,5,left,13,ITC_start,867,space,0,0,327,242776,1541955
2,20,female,Belgian,3,117,ITC,loss,5,left,13,ITC_choice,1389,f,0,0,327,241384,1543347
2,20,female,Belgian,3,117,ITC,loss,5,left,13,ITC_wait,0,undefined,0,0,327,236380,1548351
2,20,female,Belgian,3,117,ITC,loss,5,left,13,ITC_collect,353,k,0,0,327,236026,1548705
2,20,female,Belgian,3,117,ITC,loss,5,left,13,ITC_outcome,0,undefined,0,0,347,235022,1549709
2,20,female,Belgian,3,118,guess,loss,5,right,12,guess_start,523,space,0,0,347,234497,1550234
2,20,female,Belgian,3,118,guess,loss,5,right,12,guess_choice,717,j,0,0,347,233775,1550956
2,20,female,Belgian,3,118,guess,loss,5,right,12,guess_outcome,0,undefined,0,0,332,232217,1552514
2,20,female,Belgian,3,118,ITC,loss,5,right,12,ITC_start,579,space,0,0,332,231638,1553093
2,20,female,Belgian,3,118,ITC,loss,5,right,12,ITC_choice,2018,j,0,0,332,229618,1555113
2,20,female,Belgian,3,118,ITC,loss,5,right,12,ITC_wait,0,undefined,0,0,332,224610,1560121
2,20,female,Belgian,3,118,ITC,loss,5,right,12,ITC_collect,435,k,0,0,332,224174,1560557
2,20,female,Belgian,3,118,ITC,loss,5,right,12,ITC_outcome,0,undefined,0,0,352,223165,1561566
2,20,female,Belgian,3,119,guess,win,5,left,13,guess_start,356,space,0,0,352,222807,1561924
2,20,female,Belgian,3,119,guess,win,5,left,13,guess_choice,734,j,0,0,352,222067,1562664
2,20,female,Belgian,3,119,guess,win,5,left,13,guess_outcome,0,undefined,0,0,372,220509,1564222
2,20,female,Belgian,3,119,ITC,win,5,left,13,ITC_start,493,space,0,0,372,220015,1564716
2,20,female,Belgian,3,119,ITC,win,5,left,13,ITC_choice,1258,f,0,0,372,218755,1565976
2,20,female,Belgian,3,119,ITC,win,5,left,13,ITC_wait,0,undefined,0,0,372,213748,1570983
2,20,female,Belgian,3,119,ITC,win,5,left,13,ITC_collect,913,k,0,0,372,212834,1571897
2,20,female,Belgian,3,119,ITC,win,5,left,13,ITC_outcome,0,undefined,0,0,392,211825,1572906
2,20,female,Belgian,3,120,guess,loss,15,left,12,guess_start,741,space,0,0,392,211081,1573650
2,20,female,Belgian,3,120,guess,loss,15,left,12,guess_choice,1228,f,0,0,392,209850,1574881
2,20,female,Belgian,3,120,guess,loss,15,left,12,guess_outcome,0,undefined,0,0,377,208291,1576440
2,20,female,Belgian,3,120,ITC,loss,15,left,12,ITC_start,505,space,0,0,377,207784,1576947
2,20,female,Belgian,3,120,ITC,loss,15,left,12,ITC_choice,1377,j,0,0,377,206405,1578326
2,20,female,Belgian,3,120,ITC,loss,15,left,12,ITC_wait,0,undefined,0,0,377,206402,1578329
2,20,female,Belgian,3,120,ITC,loss,15,left,12,ITC_collect,370,k,0,0,377,206030,1578701
2,20,female,Belgian,3,120,ITC,loss,15,left,12,ITC_outcome,0,undefined,0,0,389,205021,1579710
2,20,female,Belgian,3,121,guess,neutral,5,left,9,guess_start,452,space,0,0,389,204567,1580164
2,20,female,Belgian,3,121,guess,neutral,5,left,9,guess_choice,880,j,0,0,389,203682,1581049
2,20,female,Belgian,3,121,guess,neutral,5,left,9,guess_outcome,0,undefined,0,0,389,202126,1582605
2,20,female,Belgian,3,121,ITC,neutral,5,left,9,ITC_start,1853,space,0,0,389,200272,1584459
2,20,female,Belgian,3,121,ITC,neutral,5,left,9,ITC_choice,1224,f,0,0,389,199044,1585687
2,20,female,Belgian,3,121,ITC,neutral,5,left,9,ITC_wait,0,undefined,0,0,389,194038,1590693
2,20,female,Belgian,3,121,ITC,neutral,5,left,9,ITC_collect,1542,k,0,0,389,192495,1592236
2,20,female,Belgian,3,121,ITC,neutral,5,left,9,ITC_outcome,0,undefined,0,0,409,191487,1593244
2,20,female,Belgian,3,122,guess,neutral,30,left,5,guess_start,693,space,0,0,409,190792,1593939
2,20,female,Belgian,3,122,guess,neutral,30,left,5,guess_choice,1452,f,0,0,409,189333,1595398
2,20,female,Belgian,3,122,guess,neutral,30,left,5,guess_outcome,0,undefined,0,0,409,187776,1596955
2,20,female,Belgian,3,122,ITC,neutral,30,left,5,ITC_start,538,space,0,0,409,187236,1597495
2,20,female,Belgian,3,122,ITC,neutral,30,left,5,ITC_choice,1002,j,0,0,409,186231,1598500
2,20,female,Belgian,3,122,ITC,neutral,30,left,5,ITC_wait,0,undefined,0,0,409,186229,1598502
2,20,female,Belgian,3,122,ITC,neutral,30,left,5,ITC_collect,286,k,0,0,409,185941,1598790
2,20,female,Belgian,3,122,ITC,neutral,30,left,5,ITC_outcome,0,undefined,0,0,414,184935,1599796
2,20,female,Belgian,3,123,guess,win,30,right,5,guess_start,449,space,0,0,414,184485,1600246
2,20,female,Belgian,3,123,guess,win,30,right,5,guess_choice,909,j,0,0,414,183569,1601162
2,20,female,Belgian,3,123,guess,win,30,right,5,guess_outcome,0,undefined,0,0,434,182009,1602722
2,20,female,Belgian,3,123,ITC,win,30,right,5,ITC_start,439,space,0,0,434,181568,1603163
2,20,female,Belgian,3,123,ITC,win,30,right,5,ITC_choice,1604,f,0,0,434,179961,1604770
2,20,female,Belgian,3,123,ITC,win,30,right,5,ITC_wait,0,undefined,0,0,434,179959,1604772
2,20,female,Belgian,3,123,ITC,win,30,right,5,ITC_collect,428,k,0,0,434,179529,1605202
2,20,female,Belgian,3,123,ITC,win,30,right,5,ITC_outcome,0,undefined,0,0,439,178522,1606209
2,20,female,Belgian,3,124,guess,win,30,right,4,guess_start,324,space,0,0,439,178196,1606535
2,20,female,Belgian,3,124,guess,win,30,right,4,guess_choice,723,f,0,0,439,177467,1607264
2,20,female,Belgian,3,124,guess,win,30,right,4,guess_outcome,0,undefined,0,0,459,175910,1608821
2,20,female,Belgian,3,124,ITC,win,30,right,4,ITC_start,529,space,0,0,459,175378,1609353
2,20,female,Belgian,3,124,ITC,win,30,right,4,ITC_wait,0,undefined,0,0,459,173919,1610812
2,20,female,Belgian,3,124,ITC,win,30,right,4,ITC_choice,1454,f,0,0,459,173922,1610809
2,20,female,Belgian,3,124,ITC,win,30,right,4,ITC_collect,423,k,0,0,459,173493,1611238
2,20,female,Belgian,3,124,ITC,win,30,right,4,ITC_outcome,0,undefined,0,0,463,172485,1612246
2,20,female,Belgian,3,125,guess,win,5,right,15,guess_start,460,space,0,0,463,172024,1612707
2,20,female,Belgian,3,125,guess,win,5,right,15,guess_choice,652,f,0,0,463,171365,1613366
2,20,female,Belgian,3,125,guess,win,5,right,15,guess_outcome,0,undefined,0,0,483,169807,1614924
2,20,female,Belgian,3,125,ITC,win,5,right,15,ITC_start,644,space,0,0,483,169163,1615568
2,20,female,Belgian,3,125,ITC,win,5,right,15,ITC_choice,2094,j,0,0,483,167067,1617664
2,20,female,Belgian,3,125,ITC,win,5,right,15,ITC_wait,0,undefined,0,0,483,162063,1622668
2,20,female,Belgian,3,125,ITC,win,5,right,15,ITC_collect,491,k,0,0,483,161570,1623161
2,20,female,Belgian,3,125,ITC,win,5,right,15,ITC_outcome,0,undefined,0,0,503,160561,1624170
2,20,female,Belgian,3,126,guess,neutral,30,right,3,guess_start,489,space,0,0,503,160071,1624660
2,20,female,Belgian,3,126,guess,neutral,30,right,3,guess_choice,1074,f,0,0,503,158991,1625740
2,20,female,Belgian,3,126,guess,neutral,30,right,3,guess_outcome,0,undefined,0,0,503,157432,1627299
2,20,female,Belgian,3,126,ITC,neutral,30,right,3,ITC_start,552,space,0,0,503,156878,1627853
2,20,female,Belgian,3,126,ITC,neutral,30,right,3,ITC_choice,1584,f,0,0,503,155292,1629439
2,20,female,Belgian,3,126,ITC,neutral,30,right,3,ITC_wait,0,undefined,0,0,503,155289,1629442
2,20,female,Belgian,3,126,ITC,neutral,30,right,3,ITC_collect,813,k,0,0,503,154475,1630256
2,20,female,Belgian,3,126,ITC,neutral,30,right,3,ITC_outcome,0,undefined,0,0,506,153468,1631263
2,20,female,Belgian,3,127,guess,neutral,5,right,10,guess_start,526,space,0,0,506,152938,1631793
2,20,female,Belgian,3,127,guess,neutral,5,right,10,guess_choice,2297,j,0,0,506,150635,1634096
2,20,female,Belgian,3,127,guess,neutral,5,right,10,guess_outcome,0,undefined,0,0,506,149077,1635654
2,20,female,Belgian,3,127,ITC,neutral,5,right,10,ITC_start,519,space,0,0,506,148555,1636176
2,20,female,Belgian,3,127,ITC,neutral,5,right,10,ITC_choice,1380,j,0,0,506,147174,1637557
2,20,female,Belgian,3,127,ITC,neutral,5,right,10,ITC_wait,0,undefined,0,0,506,142171,1642560
2,20,female,Belgian,3,127,ITC,neutral,5,right,10,ITC_collect,574,k,0,0,506,141595,1643136
2,20,female,Belgian,3,127,ITC,neutral,5,right,10,ITC_outcome,0,undefined,0,0,526,140591,1644140
2,20,female,Belgian,3,128,guess,win,15,left,5,guess_start,573,space,0,0,526,140017,1644714
2,20,female,Belgian,3,128,guess,win,15,left,5,guess_choice,1106,j,0,0,526,138905,1645826
2,20,female,Belgian,3,128,guess,win,15,left,5,guess_outcome,0,undefined,0,0,546,137344,1647387
2,20,female,Belgian,3,128,ITC,win,15,left,5,ITC_start,602,space,0,0,546,136742,1647989
2,20,female,Belgian,3,128,ITC,win,15,left,5,ITC_choice,1378,j,0,0,546,135361,1649370
2,20,female,Belgian,3,128,ITC,win,15,left,5,ITC_wait,0,undefined,0,0,546,135358,1649373
2,20,female,Belgian,3,128,ITC,win,15,left,5,ITC_collect,264,k,0,0,546,135092,1649639
2,20,female,Belgian,3,128,ITC,win,15,left,5,ITC_outcome,0,undefined,0,0,551,134082,1650649
2,20,female,Belgian,3,129,guess,win,15,left,6,guess_start,452,space,0,0,551,133628,1651103
2,20,female,Belgian,3,129,guess,win,15,left,6,guess_choice,1117,j,0,0,551,132506,1652225
2,20,female,Belgian,3,129,guess,win,15,left,6,guess_outcome,0,undefined,0,0,571,130947,1653784
2,20,female,Belgian,3,129,ITC,win,15,left,6,ITC_start,418,space,0,0,571,130528,1654203
2,20,female,Belgian,3,129,ITC,win,15,left,6,ITC_choice,1620,j,0,0,571,128907,1655824
2,20,female,Belgian,3,129,ITC,win,15,left,6,ITC_wait,0,undefined,0,0,571,128903,1655828
2,20,female,Belgian,3,129,ITC,win,15,left,6,ITC_collect,363,k,0,0,571,128537,1656194
2,20,female,Belgian,3,129,ITC,win,15,left,6,ITC_outcome,0,undefined,0,0,577,127530,1657201
2,20,female,Belgian,3,130,guess,neutral,15,left,10,guess_start,450,space,0,0,577,127077,1657654
2,20,female,Belgian,3,130,guess,neutral,15,left,10,guess_choice,796,f,0,0,577,126277,1658454
2,20,female,Belgian,3,130,guess,neutral,15,left,10,guess_outcome,0,undefined,0,0,577,124714,1660017
2,20,female,Belgian,3,130,ITC,neutral,15,left,10,ITC_start,623,space,0,0,577,124089,1660642
2,20,female,Belgian,3,130,ITC,neutral,15,left,10,ITC_choice,1335,j,0,0,577,122752,1661979
2,20,female,Belgian,3,130,ITC,neutral,15,left,10,ITC_wait,0,undefined,0,0,577,122749,1661982
2,20,female,Belgian,3,130,ITC,neutral,15,left,10,ITC_collect,305,k,0,0,577,122442,1662289
2,20,female,Belgian,3,130,ITC,neutral,15,left,10,ITC_outcome,0,undefined,0,0,587,121435,1663296
2,20,female,Belgian,3,131,guess,neutral,30,left,1,guess_start,505,space,0,0,587,120928,1663803
2,20,female,Belgian,3,131,guess,neutral,30,left,1,guess_choice,830,j,0,0,587,120094,1664637
2,20,female,Belgian,3,131,guess,neutral,30,left,1,guess_outcome,0,undefined,0,0,587,118536,1666195
2,20,female,Belgian,3,131,ITC,neutral,30,left,1,ITC_start,545,space,0,0,587,117988,1666743
2,20,female,Belgian,3,131,ITC,neutral,30,left,1,ITC_wait,0,undefined,0,0,587,116047,1668684
2,20,female,Belgian,3,131,ITC,neutral,30,left,1,ITC_choice,1936,j,0,0,587,116050,1668681
2,20,female,Belgian,3,131,ITC,neutral,30,left,1,ITC_collect,282,k,0,0,587,115764,1668967
2,20,female,Belgian,3,131,ITC,neutral,30,left,1,ITC_outcome,0,undefined,0,0,588,114757,1669974
2,20,female,Belgian,3,132,guess,win,30,left,7,guess_start,480,space,0,0,588,114275,1670456
2,20,female,Belgian,3,132,guess,win,30,left,7,guess_choice,1187,f,0,0,588,113083,1671648
2,20,female,Belgian,3,132,guess,win,30,left,7,guess_outcome,0,undefined,0,0,608,111524,1673207
2,20,female,Belgian,3,132,ITC,win,30,left,7,ITC_start,433,space,0,0,608,111090,1673641
2,20,female,Belgian,3,132,ITC,win,30,left,7,ITC_choice,1132,j,0,0,608,109956,1674775
2,20,female,Belgian,3,132,ITC,win,30,left,7,ITC_wait,0,undefined,0,0,608,109953,1674778
2,20,female,Belgian,3,132,ITC,win,30,left,7,ITC_collect,209,k,0,0,608,109740,1674991
2,20,female,Belgian,3,132,ITC,win,30,left,7,ITC_outcome,0,undefined,0,0,615,108733,1675998
2,20,female,Belgian,3,133,guess,neutral,5,right,13,guess_start,452,space,0,0,615,108281,1676450
2,20,female,Belgian,3,133,guess,neutral,5,right,13,guess_choice,794,f,0,0,615,107480,1677251
2,20,female,Belgian,3,133,guess,neutral,5,right,13,guess_outcome,0,undefined,0,0,615,105923,1678808
2,20,female,Belgian,3,133,ITC,neutral,5,right,13,ITC_start,549,space,0,0,615,105371,1679360
2,20,female,Belgian,3,133,ITC,neutral,5,right,13,ITC_choice,1362,j,0,0,615,104008,1680723
2,20,female,Belgian,3,133,ITC,neutral,5,right,13,ITC_wait,0,undefined,0,0,615,99003,1685728
2,20,female,Belgian,3,133,ITC,neutral,5,right,13,ITC_collect,1276,k,0,0,615,97726,1687005
2,20,female,Belgian,3,133,ITC,neutral,5,right,13,ITC_outcome,0,undefined,0,0,635,96722,1688009
2,20,female,Belgian,3,134,guess,neutral,15,right,9,guess_start,384,space,0,0,635,96336,1688395
2,20,female,Belgian,3,134,guess,neutral,15,right,9,guess_choice,1253,j,0,0,635,95079,1689652
2,20,female,Belgian,3,134,guess,neutral,15,right,9,guess_outcome,0,undefined,0,0,635,93521,1691210
2,20,female,Belgian,3,134,ITC,neutral,15,right,9,ITC_start,471,space,0,0,635,93049,1691682
2,20,female,Belgian,3,134,ITC,neutral,15,right,9,ITC_choice,1389,f,0,0,635,91657,1693074
2,20,female,Belgian,3,134,ITC,neutral,15,right,9,ITC_wait,0,undefined,0,0,635,91654,1693077
2,20,female,Belgian,3,134,ITC,neutral,15,right,9,ITC_collect,792,k,0,0,635,90859,1693872
2,20,female,Belgian,3,134,ITC,neutral,15,right,9,ITC_outcome,0,undefined,0,0,644,89854,1694877
2,20,female,Belgian,3,135,guess,win,15,right,7,guess_start,435,space,0,0,644,89417,1695314
2,20,female,Belgian,3,135,guess,win,15,right,7,guess_choice,1011,j,0,0,644,88402,1696329
2,20,female,Belgian,3,135,guess,win,15,right,7,guess_outcome,0,undefined,0,0,664,86842,1697889
2,20,female,Belgian,3,135,ITC,win,15,right,7,ITC_start,694,space,0,0,664,86145,1698586
2,20,female,Belgian,3,135,ITC,win,15,right,7,ITC_choice,1599,f,0,0,664,84545,1700186
2,20,female,Belgian,3,135,ITC,win,15,right,7,ITC_wait,0,undefined,0,0,664,84542,1700189
2,20,female,Belgian,3,135,ITC,win,15,right,7,ITC_collect,553,k,0,0,664,83989,1700742
2,20,female,Belgian,3,135,ITC,win,15,right,7,ITC_outcome,0,undefined,0,0,671,82982,1701749
2,20,female,Belgian,3,136,guess,neutral,5,right,14,guess_start,486,space,0,0,671,82491,1702240
2,20,female,Belgian,3,136,guess,neutral,5,right,14,guess_choice,806,j,0,0,671,81679,1703052
2,20,female,Belgian,3,136,guess,neutral,5,right,14,guess_outcome,0,undefined,0,0,671,80120,1704611
2,20,female,Belgian,3,136,ITC,neutral,5,right,14,ITC_start,595,space,0,0,671,79524,1705207
2,20,female,Belgian,3,136,ITC,neutral,5,right,14,ITC_choice,1871,j,0,0,671,77651,1707080
2,20,female,Belgian,3,136,ITC,neutral,5,right,14,ITC_wait,0,undefined,0,0,671,72648,1712083
2,20,female,Belgian,3,136,ITC,neutral,5,right,14,ITC_collect,760,k,0,0,671,71887,1712844
2,20,female,Belgian,3,136,ITC,neutral,5,right,14,ITC_outcome,0,undefined,0,0,691,70878,1713853
2,20,female,Belgian,3,137,guess,neutral,15,right,5,guess_start,479,space,0,0,691,70398,1714333
2,20,female,Belgian,3,137,guess,neutral,15,right,5,guess_choice,672,j,0,0,691,69718,1715013
2,20,female,Belgian,3,137,guess,neutral,15,right,5,guess_outcome,0,undefined,0,0,691,68159,1716572
2,20,female,Belgian,3,137,ITC,neutral,15,right,5,ITC_start,3748,space,0,0,691,64409,1720322
2,20,female,Belgian,3,137,ITC,neutral,15,right,5,ITC_choice,1764,f,0,0,691,62642,1722089
2,20,female,Belgian,3,137,ITC,neutral,15,right,5,ITC_wait,0,undefined,0,0,691,62639,1722092
2,20,female,Belgian,3,137,ITC,neutral,15,right,5,ITC_collect,2154,k,0,0,691,60483,1724248
2,20,female,Belgian,3,137,ITC,neutral,15,right,5,ITC_outcome,0,undefined,0,0,696,59475,1725256
2,20,female,Belgian,3,138,guess,neutral,30,right,2,guess_start,687,space,0,0,696,58784,1725947
2,20,female,Belgian,3,138,guess,neutral,30,right,2,guess_choice,653,f,0,0,696,58126,1726605
2,20,female,Belgian,3,138,guess,neutral,30,right,2,guess_outcome,0,undefined,0,0,696,56568,1728163
2,20,female,Belgian,3,138,ITC,neutral,30,right,2,ITC_start,1344,space,0,0,696,55222,1729509
2,20,female,Belgian,3,138,ITC,neutral,30,right,2,ITC_wait,0,undefined,0,0,696,53632,1731099
2,20,female,Belgian,3,138,ITC,neutral,30,right,2,ITC_choice,1586,f,0,0,696,53634,1731097
2,20,female,Belgian,3,138,ITC,neutral,30,right,2,ITC_collect,1162,k,0,0,696,52467,1732264
2,20,female,Belgian,3,138,ITC,neutral,30,right,2,ITC_outcome,0,undefined,0,0,698,51459,1733272
2,20,female,Belgian,3,139,guess,loss,5,right,14,guess_start,589,space,0,0,698,50868,1733863
2,20,female,Belgian,3,139,guess,loss,5,right,14,guess_choice,811,j,0,0,698,50052,1734679
2,20,female,Belgian,3,139,guess,loss,5,right,14,guess_outcome,0,undefined,0,0,683,48492,1736239
2,20,female,Belgian,3,139,ITC,loss,5,right,14,ITC_start,613,space,0,0,683,47877,1736854
2,20,female,Belgian,3,139,ITC,loss,5,right,14,ITC_choice,1337,j,0,0,683,46538,1738193
2,20,female,Belgian,3,139,ITC,loss,5,right,14,ITC_wait,0,undefined,0,0,683,41533,1743198
2,20,female,Belgian,3,139,ITC,loss,5,right,14,ITC_collect,379,k,0,0,683,41151,1743580
2,20,female,Belgian,3,139,ITC,loss,5,right,14,ITC_outcome,0,undefined,0,0,703,40143,1744588
2,20,female,Belgian,3,140,guess,neutral,5,right,11,guess_start,455,space,0,0,703,39686,1745045
2,20,female,Belgian,3,140,guess,neutral,5,right,11,guess_choice,761,j,0,0,703,38919,1745812
2,20,female,Belgian,3,140,guess,neutral,5,right,11,guess_outcome,0,undefined,0,0,703,37365,1747366
2,20,female,Belgian,3,140,ITC,neutral,5,right,11,ITC_start,1109,space,0,0,703,36253,1748478
2,20,female,Belgian,3,140,ITC,neutral,5,right,11,ITC_choice,1381,j,0,0,703,34871,1749860
2,20,female,Belgian,3,140,ITC,neutral,5,right,11,ITC_wait,0,undefined,0,0,703,29864,1754867
2,20,female,Belgian,3,140,ITC,neutral,5,right,11,ITC_collect,773,k,0,0,703,29090,1755641
2,20,female,Belgian,3,140,ITC,neutral,5,right,11,ITC_outcome,0,undefined,0,0,723,28081,1756650
2,20,female,Belgian,3,141,guess,neutral,5,right,15,guess_start,493,space,0,0,723,27586,1757145
2,20,female,Belgian,3,141,guess,neutral,5,right,15,guess_choice,972,f,0,0,723,26610,1758121
2,20,female,Belgian,3,141,guess,neutral,5,right,15,guess_outcome,0,undefined,0,0,723,25050,1759681
2,20,female,Belgian,3,141,ITC,neutral,5,right,15,ITC_start,1247,space,0,0,723,23801,1760930
2,20,female,Belgian,3,141,ITC,neutral,5,right,15,ITC_choice,1234,j,0,0,723,22565,1762166
