subjectID,age,gender,nationality,block_number,trial_number,trial_type,guess_outcome,delay_time,delay_pos,immediate_amount,stage,respRT,respKey,blur_count,focus_count,total_points,remaining_duration,time_elapsed
3,18,female,Belg,1,1,guess,neutral,15,right,12,guess_start,5344,space,0,0,0,474653,724288
3,18,female,Belg,1,1,guess,neutral,15,right,12,guess_choice,1677,f,0,0,0,472969,725972
3,18,female,Belg,1,1,guess,neutral,15,right,12,guess_outcome,0,undefined,0,0,0,471409,727532
3,18,female,Belg,1,1,ITC,neutral,15,right,12,ITC_start,3431,space,0,0,0,467974,730967
3,18,female,Belg,1,1,ITC,neutral,15,right,12,ITC_choice,6231,j,0,0,0,461739,737202
3,18,female,Belg,1,1,ITC,neutral,15,right,12,ITC_wait,0,undefined,0,0,0,446730,752211
3,18,female,Belg,1,1,ITC,neutral,15,right,12,ITC_collect,1165,k,0,0,0,445562,753379
3,18,female,Belg,1,1,ITC,neutral,15,right,12,ITC_outcome,0,undefined,0,0,20,444554,754387
3,18,female,Belg,1,2,guess,loss,5,right,9,guess_start,4350,space,0,0,20,440199,758742
3,18,female,Belg,1,2,guess,loss,5,right,9,guess_choice,1479,j,0,0,20,438714,760227
3,18,female,Belg,1,2,guess,loss,5,right,9,guess_outcome,0,undefined,0,0,5,437153,761788
3,18,female,Belg,1,2,ITC,loss,5,right,9,ITC_start,3546,space,0,0,5,433604,765337
3,18,female,Belg,1,2,ITC,loss,5,right,9,ITC_choice,1697,j,0,0,5,431904,767037
3,18,female,Belg,1,2,ITC,loss,5,right,9,ITC_wait,0,undefined,0,0,5,426898,772043
3,18,female,Belg,1,2,ITC,loss,5,right,9,ITC_collect,1144,k,0,0,5,425751,773190
3,18,female,Belg,1,2,ITC,loss,5,right,9,ITC_outcome,0,undefined,0,0,25,424742,774199
3,18,female,Belg,1,3,guess,loss,15,right,10,guess_start,1239,space,0,0,25,423500,775441
3,18,female,Belg,1,3,guess,loss,15,right,10,guess_choice,1163,j,0,0,25,422332,776609
3,18,female,Belg,1,3,guess,loss,15,right,10,guess_outcome,0,undefined,0,0,10,420773,778168
3,18,female,Belg,1,3,ITC,loss,15,right,10,ITC_start,1044,space,0,0,10,419726,779215
3,18,female,Belg,1,3,ITC,loss,15,right,10,ITC_choice,2359,j,0,0,10,417364,781577
3,18,female,Belg,1,3,ITC,loss,15,right,10,ITC_wait,0,undefined,0,0,10,402356,796585
3,18,female,Belg,1,3,ITC,loss,15,right,10,ITC_collect,542,k,0,0,10,401812,797129
3,18,female,Belg,1,3,ITC,loss,15,right,10,ITC_outcome,0,undefined,0,0,30,400804,798137
3,18,female,Belg,1,4,guess,win,5,left,9,guess_start,917,space,0,0,30,399884,799057
3,18,female,Belg,1,4,guess,win,5,left,9,guess_choice,1282,j,0,0,30,398598,800343
3,18,female,Belg,1,4,guess,win,5,left,9,guess_outcome,0,undefined,0,0,50,397042,801899
3,18,female,Belg,1,4,ITC,win,5,left,9,ITC_start,1106,space,0,0,50,395933,803008
3,18,female,Belg,1,4,ITC,win,5,left,9,ITC_choice,3818,f,0,0,50,392113,806828
3,18,female,Belg,1,4,ITC,win,5,left,9,ITC_wait,0,undefined,0,0,50,387110,811831
3,18,female,Belg,1,4,ITC,win,5,left,9,ITC_collect,570,k,0,0,50,386538,812403
3,18,female,Belg,1,4,ITC,win,5,left,9,ITC_outcome,0,undefined,0,0,70,385529,813412
3,18,female,Belg,1,5,guess,loss,30,right,7,guess_start,623,space,0,0,70,384904,814037
3,18,female,Belg,1,5,guess,loss,30,right,7,guess_choice,987,f,0,0,70,383913,815028
3,18,female,Belg,1,5,guess,loss,30,right,7,guess_outcome,0,undefined,0,0,55,382355,816586
3,18,female,Belg,1,5,ITC,loss,30,right,7,ITC_start,1235,space,0,0,55,381117,817824
3,18,female,Belg,1,5,ITC,loss,30,right,7,ITC_choice,2358,j,0,0,55,378756,820185
3,18,female,Belg,1,5,ITC,loss,30,right,7,ITC_wait,0,undefined,0,0,55,348750,850191
3,18,female,Belg,1,5,ITC,loss,30,right,7,ITC_collect,2315,k,0,0,55,346432,852509
3,18,female,Belg,1,5,ITC,loss,30,right,7,ITC_outcome,0,undefined,0,0,75,345428,853513
3,18,female,Belg,1,6,guess,win,15,left,10,guess_start,963,space,0,0,75,344462,854479
3,18,female,Belg,1,6,guess,win,15,left,10,guess_choice,1747,f,0,0,75,342711,856230
3,18,female,Belg,1,6,guess,win,15,left,10,guess_outcome,0,undefined,0,0,95,341154,857787
3,18,female,Belg,1,6,ITC,win,15,left,10,ITC_start,838,space,0,0,95,340313,858628
3,18,female,Belg,1,6,ITC,win,15,left,10,ITC_choice,1912,f,0,0,95,338399,860542
3,18,female,Belg,1,6,ITC,win,15,left,10,ITC_wait,0,undefined,0,0,95,323392,875549
3,18,female,Belg,1,6,ITC,win,15,left,10,ITC_collect,729,k,0,0,95,322659,876282
3,18,female,Belg,1,6,ITC,win,15,left,10,ITC_outcome,0,undefined,0,0,115,321652,877289
3,18,female,Belg,1,7,guess,win,30,right,8,guess_start,661,space,0,0,115,320987,877954
3,18,female,Belg,1,7,guess,win,30,right,8,guess_choice,1044,j,0,0,115,319939,879002
3,18,female,Belg,1,7,guess,win,30,right,8,guess_outcome,0,undefined,0,0,135,318379,880562
3,18,female,Belg,1,7,ITC,win,30,right,8,ITC_start,777,space,0,0,135,317599,881342
3,18,female,Belg,1,7,ITC,win,30,right,8,ITC_choice,1383,j,0,0,135,316213,882728
3,18,female,Belg,1,7,ITC,win,30,right,8,ITC_wait,0,undefined,0,0,135,286206,912735
3,18,female,Belg,1,7,ITC,win,30,right,8,ITC_collect,406,k,0,0,135,285797,913144
3,18,female,Belg,1,7,ITC,win,30,right,8,ITC_outcome,0,undefined,0,0,155,284789,914152
3,18,female,Belg,1,8,guess,neutral,5,left,15,guess_start,993,space,0,0,155,283793,915148
3,18,female,Belg,1,8,guess,neutral,5,left,15,guess_choice,963,f,0,0,155,282825,916116
3,18,female,Belg,1,8,guess,neutral,5,left,15,guess_outcome,0,undefined,0,0,155,281267,917674
3,18,female,Belg,1,8,ITC,neutral,5,left,15,ITC_start,779,space,0,0,155,280485,918456
3,18,female,Belg,1,8,ITC,neutral,5,left,15,ITC_choice,1688,f,0,0,155,278794,920147
3,18,female,Belg,1,8,ITC,neutral,5,left,15,ITC_wait,0,undefined,0,0,155,273786,925155
3,18,female,Belg,1,8,ITC,neutral,5,left,15,ITC_collect,1431,k,0,0,155,272352,926589
3,18,female,Belg,1,8,ITC,neutral,5,left,15,ITC_outcome,0,undefined,0,0,175,271347,927594
3,18,female,Belg,1,9,guess,win,15,left,12,guess_start,652,space,0,0,175,270692,928249
3,18,female,Belg,1,9,guess,win,15,left,12,guess_choice,1703,j,0,0,175,268985,929956
3,18,female,Belg,1,9,guess,win,15,left,12,guess_outcome,0,undefined,0,0,195,267427,931514
3,18,female,Belg,1,9,ITC,win,15,left,12,ITC_start,816,space,0,0,195,266609,932332
3,18,female,Belg,1,9,ITC,win,15,left,12,ITC_choice,2316,f,0,0,195,264289,934652
3,18,female,Belg,1,9,ITC,win,15,left,12,ITC_wait,0,undefined,0,0,195,249286,949655
3,18,female,Belg,1,9,ITC,win,15,left,12,ITC_collect,1068,k,0,0,195,248215,950726
3,18,female,Belg,1,9,ITC,win,15,left,12,ITC_outcome,0,undefined,0,0,215,247206,951735
3,18,female,Belg,1,10,guess,neutral,5,left,16,guess_start,821,space,0,0,215,246383,952558
3,18,female,Belg,1,10,guess,neutral,5,left,16,guess_choice,812,f,0,0,215,245567,953374
3,18,female,Belg,1,10,guess,neutral,5,left,16,guess_outcome,0,undefined,0,0,215,244007,954934
3,18,female,Belg,1,10,ITC,neutral,5,left,16,ITC_start,570,space,0,0,215,243434,955507
3,18,female,Belg,1,10,ITC,neutral,5,left,16,ITC_choice,3242,f,0,0,215,240190,958751
3,18,female,Belg,1,10,ITC,neutral,5,left,16,ITC_wait,0,undefined,0,0,215,235183,963758
3,18,female,Belg,1,10,ITC,neutral,5,left,16,ITC_collect,407,k,0,0,215,234773,964168
3,18,female,Belg,1,10,ITC,neutral,5,left,16,ITC_outcome,0,undefined,0,0,235,233767,965174
3,18,female,Belg,1,11,guess,neutral,30,right,1,guess_start,1792,space,0,0,235,231970,966971
3,18,female,Belg,1,11,guess,neutral,30,right,1,guess_choice,774,f,0,0,235,231191,967750
3,18,female,Belg,1,11,guess,neutral,30,right,1,guess_outcome,0,undefined,0,0,235,229633,969308
3,18,female,Belg,1,11,ITC,neutral,30,right,1,ITC_start,1084,space,0,0,235,228546,970395
3,18,female,Belg,1,11,ITC,neutral,30,right,1,ITC_choice,2469,j,0,0,235,226075,972866
3,18,female,Belg,1,11,ITC,neutral,30,right,1,ITC_wait,0,undefined,0,0,235,196068,1002873
3,18,female,Belg,1,11,ITC,neutral,30,right,1,ITC_collect,509,k,0,0,235,195556,1003385
3,18,female,Belg,1,11,ITC,neutral,30,right,1,ITC_outcome,0,undefined,0,0,255,194549,1004392
3,18,female,Belg,1,12,guess,neutral,5,left,12,guess_start,980,space,0,0,255,193566,1005375
3,18,female,Belg,1,12,guess,neutral,5,left,12,guess_choice,759,f,0,0,255,192803,1006138
3,18,female,Belg,1,12,guess,neutral,5,left,12,guess_outcome,0,undefined,0,0,255,191243,1007698
3,18,female,Belg,1,12,ITC,neutral,5,left,12,ITC_start,740,space,0,0,255,190500,1008441
3,18,female,Belg,1,12,ITC,neutral,5,left,12,ITC_choice,1762,f,0,0,255,188736,1010205
3,18,female,Belg,1,12,ITC,neutral,5,left,12,ITC_wait,0,undefined,0,0,255,183731,1015210
3,18,female,Belg,1,12,ITC,neutral,5,left,12,ITC_collect,289,k,0,0,255,183439,1015502
3,18,female,Belg,1,12,ITC,neutral,5,left,12,ITC_outcome,0,undefined,0,0,275,182433,1016508
3,18,female,Belg,1,13,guess,loss,30,left,2,guess_start,582,space,0,0,275,181848,1017093
3,18,female,Belg,1,13,guess,loss,30,left,2,guess_choice,1888,j,0,0,275,179956,1018985
3,18,female,Belg,1,13,guess,loss,30,left,2,guess_outcome,0,undefined,0,0,260,178396,1020545
3,18,female,Belg,1,13,ITC,loss,30,left,2,ITC_start,1201,space,0,0,260,177192,1021749
3,18,female,Belg,1,13,ITC,loss,30,left,2,ITC_choice,1849,f,0,0,260,175340,1023601
3,18,female,Belg,1,13,ITC,loss,30,left,2,ITC_wait,0,undefined,0,0,260,145333,1053608
3,18,female,Belg,1,13,ITC,loss,30,left,2,ITC_collect,616,k,0,0,260,144714,1054227
3,18,female,Belg,1,13,ITC,loss,30,left,2,ITC_outcome,0,undefined,0,0,280,143710,1055231
3,18,female,Belg,1,14,guess,win,30,left,1,guess_start,824,space,0,0,280,142883,1056058
3,18,female,Belg,1,14,guess,win,30,left,1,guess_choice,1300,j,0,0,280,141578,1057363
3,18,female,Belg,1,14,guess,win,30,left,1,guess_outcome,0,undefined,0,0,300,140021,1058920
3,18,female,Belg,1,14,ITC,win,30,left,1,ITC_start,638,space,0,0,300,139378,1059563
3,18,female,Belg,1,14,ITC,win,30,left,1,ITC_choice,1567,f,0,0,300,137808,1061133
3,18,female,Belg,1,14,ITC,win,30,left,1,ITC_wait,0,undefined,0,0,300,107806,1091135
3,18,female,Belg,1,14,ITC,win,30,left,1,ITC_collect,793,k,0,0,300,107009,1091932
3,18,female,Belg,1,14,ITC,win,30,left,1,ITC_outcome,0,undefined,0,0,320,106003,1092938
3,18,female,Belg,1,15,guess,loss,5,right,13,guess_start,906,space,0,0,320,105094,1093847
3,18,female,Belg,1,15,guess,loss,5,right,13,guess_choice,1023,f,0,0,320,104067,1094874
3,18,female,Belg,1,15,guess,loss,5,right,13,guess_outcome,0,undefined,0,0,305,102507,1096434
3,18,female,Belg,1,15,ITC,loss,5,right,13,ITC_start,933,space,0,0,305,101571,1097370
3,18,female,Belg,1,15,ITC,loss,5,right,13,ITC_choice,1576,j,0,0,305,99992,1098949
3,18,female,Belg,1,15,ITC,loss,5,right,13,ITC_wait,0,undefined,0,0,305,94988,1103953
3,18,female,Belg,1,15,ITC,loss,5,right,13,ITC_collect,378,k,0,0,305,94606,1104335
3,18,female,Belg,1,15,ITC,loss,5,right,13,ITC_outcome,0,undefined,0,0,325,93598,1105343
3,18,female,Belg,1,16,guess,loss,15,left,5,guess_start,550,space,0,0,325,93045,1105896
3,18,female,Belg,1,16,guess,loss,15,left,5,guess_choice,1358,j,0,0,325,91682,1107259
3,18,female,Belg,1,16,guess,loss,15,left,5,guess_outcome,0,undefined,0,0,310,90124,1108817
3,18,female,Belg,1,16,ITC,loss,15,left,5,ITC_start,738,space,0,0,310,89383,1109558
3,18,female,Belg,1,16,ITC,loss,15,left,5,ITC_choice,1316,f,0,0,310,88064,1110877
3,18,female,Belg,1,16,ITC,loss,15,left,5,ITC_wait,0,undefined,0,0,310,73060,1125881
3,18,female,Belg,1,16,ITC,loss,15,left,5,ITC_collect,315,k,0,0,310,72742,1126199
3,18,female,Belg,1,16,ITC,loss,15,left,5,ITC_outcome,0,undefined,0,0,330,71738,1127203
3,18,female,Belg,1,17,guess,win,5,left,11,guess_start,569,space,0,0,330,71166,1127775
3,18,female,Belg,1,17,guess,win,5,left,11,guess_choice,1337,j,0,0,330,69824,1129117
3,18,female,Belg,1,17,guess,win,5,left,11,guess_outcome,0,undefined,0,0,350,68264,1130677
3,18,female,Belg,1,17,ITC,win,5,left,11,ITC_start,618,space,0,0,350,67644,1131297
3,18,female,Belg,1,17,ITC,win,5,left,11,ITC_choice,1487,f,0,0,350,66154,1132787
3,18,female,Belg,1,17,ITC,win,5,left,11,ITC_wait,0,undefined,0,0,350,61147,1137794
3,18,female,Belg,1,17,ITC,win,5,left,11,ITC_collect,845,k,0,0,350,60299,1138642
3,18,female,Belg,1,17,ITC,win,5,left,11,ITC_outcome,0,undefined,0,0,370,59290,1139651
3,18,female,Belg,1,18,guess,neutral,15,right,9,guess_start,740,space,0,0,370,58547,1140394
3,18,female,Belg,1,18,guess,neutral,15,right,9,guess_choice,846,f,0,0,370,57697,1141244
3,18,female,Belg,1,18,guess,neutral,15,right,9,guess_outcome,0,undefined,0,0,370,56141,1142800
3,18,female,Belg,1,18,ITC,neutral,15,right,9,ITC_start,739,space,0,0,370,55399,1143542
3,18,female,Belg,1,18,ITC,neutral,15,right,9,ITC_choice,2705,j,0,0,370,52692,1146249
3,18,female,Belg,1,18,ITC,neutral,15,right,9,ITC_wait,0,undefined,0,0,370,37685,1161256
3,18,female,Belg,1,18,ITC,neutral,15,right,9,ITC_collect,2452,k,0,0,370,35230,1163711
3,18,female,Belg,1,18,ITC,neutral,15,right,9,ITC_outcome,0,undefined,0,0,390,34222,1164719
3,18,female,Belg,1,19,guess,loss,15,left,6,guess_start,666,space,0,0,390,33554,1165387
3,18,female,Belg,1,19,guess,loss,15,left,6,guess_choice,1183,f,0,0,390,32367,1166574
3,18,female,Belg,1,19,guess,loss,15,left,6,guess_outcome,0,undefined,0,0,375,30809,1168132
3,18,female,Belg,1,19,ITC,loss,15,left,6,ITC_start,743,space,0,0,375,30063,1168878
3,18,female,Belg,1,19,ITC,loss,15,left,6,ITC_choice,1876,f,0,0,375,28185,1170756
3,18,female,Belg,1,19,ITC,loss,15,left,6,ITC_wait,0,undefined,0,0,375,13182,1185759
3,18,female,Belg,1,19,ITC,loss,15,left,6,ITC_collect,605,k,0,0,375,12574,1186367
3,18,female,Belg,1,19,ITC,loss,15,left,6,ITC_outcome,0,undefined,0,0,395,11567,1187374
3,18,female,Belg,1,20,guess,win,30,left,7,guess_start,545,space,0,0,395,11019,1187922
3,18,female,Belg,1,20,guess,win,30,left,7,guess_choice,1165,j,0,0,395,9850,1189091
3,18,female,Belg,1,20,guess,win,30,left,7,guess_outcome,0,undefined,0,0,415,8293,1190648
3,18,female,Belg,1,20,ITC,win,30,left,7,ITC_start,644,space,0,0,415,7646,1191295
3,18,female,Belg,1,20,ITC,win,30,left,7,ITC_choice,1173,f,0,0,415,6470,1192471
3,18,female,Belg,1,20,ITC,win,30,left,7,ITC_wait,0,undefined,0,0,415,-8,1198949
3,18,female,Belg,2,21,guess,loss,30,right,8,guess_start,1923,space,0,0,0,478076,1211286
3,18,female,Belg,2,21,guess,loss,30,right,8,guess_choice,840,j,0,0,0,477231,1212131
3,18,female,Belg,2,21,guess,loss,30,right,8,guess_outcome,0,undefined,0,0,-15,475671,1213691
3,18,female,Belg,2,21,ITC,loss,30,right,8,ITC_start,1574,space,0,0,-15,474095,1215267
3,18,female,Belg,2,21,ITC,loss,30,right,8,ITC_choice,2522,f,0,0,-15,471571,1217791
3,18,female,Belg,2,21,ITC,loss,30,right,8,ITC_wait,0,undefined,0,0,-15,471567,1217795
3,18,female,Belg,2,21,ITC,loss,30,right,8,ITC_collect,852,k,0,0,-15,470714,1218648
3,18,female,Belg,2,21,ITC,loss,30,right,8,ITC_outcome,0,undefined,0,0,-7,469710,1219652
3,18,female,Belg,2,22,guess,loss,5,left,15,guess_start,1399,space,0,0,-7,468308,1221054
3,18,female,Belg,2,22,guess,loss,5,left,15,guess_choice,981,f,0,0,-7,467322,1222040
3,18,female,Belg,2,22,guess,loss,5,left,15,guess_outcome,0,undefined,0,0,-22,465765,1223597
3,18,female,Belg,2,22,ITC,loss,5,left,15,ITC_start,529,space,0,0,-22,465234,1224128
3,18,female,Belg,2,22,ITC,loss,5,left,15,ITC_choice,1443,j,0,0,-22,463788,1225574
3,18,female,Belg,2,22,ITC,loss,5,left,15,ITC_wait,0,undefined,0,0,-22,463784,1225578
3,18,female,Belg,2,22,ITC,loss,5,left,15,ITC_collect,966,k,0,0,-22,462817,1226545
3,18,female,Belg,2,22,ITC,loss,5,left,15,ITC_outcome,0,undefined,0,0,-7,461810,1227552
3,18,female,Belg,2,23,guess,win,30,left,6,guess_start,517,space,0,0,-7,461289,1228073
3,18,female,Belg,2,23,guess,win,30,left,6,guess_choice,761,f,0,0,-7,460523,1228839
3,18,female,Belg,2,23,guess,win,30,left,6,guess_outcome,0,undefined,0,0,13,458967,1230395
3,18,female,Belg,2,23,ITC,win,30,left,6,ITC_start,746,space,0,0,13,458219,1231143
3,18,female,Belg,2,23,ITC,win,30,left,6,ITC_choice,1550,f,0,0,13,456666,1232696
3,18,female,Belg,2,23,ITC,win,30,left,6,ITC_wait,0,undefined,0,0,13,426662,1262700
3,18,female,Belg,2,23,ITC,win,30,left,6,ITC_collect,531,k,0,0,13,426128,1263234
3,18,female,Belg,2,23,ITC,win,30,left,6,ITC_outcome,0,undefined,0,0,33,425120,1264242
3,18,female,Belg,2,24,guess,neutral,5,left,13,guess_start,647,space,0,0,33,424470,1264892
3,18,female,Belg,2,24,guess,neutral,5,left,13,guess_choice,743,f,0,0,33,423723,1265639
3,18,female,Belg,2,24,guess,neutral,5,left,13,guess_outcome,0,undefined,0,0,33,422171,1267191
3,18,female,Belg,2,24,ITC,neutral,5,left,13,ITC_start,530,space,0,0,33,421638,1267724
3,18,female,Belg,2,24,ITC,neutral,5,left,13,ITC_choice,2831,f,0,0,33,418802,1270560
3,18,female,Belg,2,24,ITC,neutral,5,left,13,ITC_wait,0,undefined,0,0,33,413795,1275567
3,18,female,Belg,2,24,ITC,neutral,5,left,13,ITC_collect,355,k,0,0,33,413437,1275925
3,18,female,Belg,2,24,ITC,neutral,5,left,13,ITC_outcome,0,undefined,0,0,53,412429,1276933
3,18,female,Belg,2,25,guess,win,5,right,15,guess_start,415,space,0,0,53,412011,1277351
3,18,female,Belg,2,25,guess,win,5,right,15,guess_choice,871,j,0,0,53,411135,1278227
3,18,female,Belg,2,25,guess,win,5,right,15,guess_outcome,0,undefined,0,0,73,409579,1279783
3,18,female,Belg,2,25,ITC,win,5,right,15,ITC_start,659,space,0,0,73,408917,1280445
3,18,female,Belg,2,25,ITC,win,5,right,15,ITC_choice,1495,j,0,0,73,407419,1281943
3,18,female,Belg,2,25,ITC,win,5,right,15,ITC_wait,0,undefined,0,0,73,402412,1286950
3,18,female,Belg,2,25,ITC,win,5,right,15,ITC_collect,293,k,0,0,73,402116,1287246
3,18,female,Belg,2,25,ITC,win,5,right,15,ITC_outcome,0,undefined,0,0,93,401112,1288250
3,18,female,Belg,2,26,guess,win,15,right,6,guess_start,644,space,0,0,93,400465,1288897
3,18,female,Belg,2,26,guess,win,15,right,6,guess_choice,950,j,0,0,93,399510,1289852
3,18,female,Belg,2,26,guess,win,15,right,6,guess_outcome,0,undefined,0,0,113,397953,1291409
3,18,female,Belg,2,26,ITC,win,15,right,6,ITC_start,495,space,0,0,113,397455,1291907
3,18,female,Belg,2,26,ITC,win,15,right,6,ITC_choice,2150,f,0,0,113,395302,1294060
3,18,female,Belg,2,26,ITC,win,15,right,6,ITC_wait,0,undefined,0,0,113,395298,1294064
3,18,female,Belg,2,26,ITC,win,15,right,6,ITC_collect,856,k,0,0,113,394441,1294921
3,18,female,Belg,2,26,ITC,win,15,right,6,ITC_outcome,0,undefined,0,0,119,393433,1295929
3,18,female,Belg,2,27,guess,neutral,30,right,5,guess_start,475,space,0,0,119,392955,1296407
3,18,female,Belg,2,27,guess,neutral,30,right,5,guess_choice,660,j,0,0,119,392290,1297072
3,18,female,Belg,2,27,guess,neutral,30,right,5,guess_outcome,0,undefined,0,0,119,390732,1298630
3,18,female,Belg,2,27,ITC,neutral,30,right,5,ITC_start,326,space,0,0,119,390404,1298958
3,18,female,Belg,2,27,ITC,neutral,30,right,5,ITC_choice,2170,f,0,0,119,388231,1301131
3,18,female,Belg,2,27,ITC,neutral,30,right,5,ITC_wait,0,undefined,0,0,119,388226,1301136
3,18,female,Belg,2,27,ITC,neutral,30,right,5,ITC_collect,651,k,0,0,119,387574,1301788
3,18,female,Belg,2,27,ITC,neutral,30,right,5,ITC_outcome,0,undefined,0,0,124,386566,1302796
3,18,female,Belg,2,28,guess,loss,15,left,11,guess_start,578,space,0,0,124,385984,1303378
3,18,female,Belg,2,28,guess,loss,15,left,11,guess_choice,1124,j,0,0,124,384856,1304506
3,18,female,Belg,2,28,guess,loss,15,left,11,guess_outcome,0,undefined,0,0,109,383301,1306061
3,18,female,Belg,2,28,ITC,loss,15,left,11,ITC_start,293,space,0,0,109,383005,1306357
3,18,female,Belg,2,28,ITC,loss,15,left,11,ITC_choice,1916,j,0,0,109,381086,1308276
3,18,female,Belg,2,28,ITC,loss,15,left,11,ITC_wait,0,undefined,0,0,109,381082,1308280
3,18,female,Belg,2,28,ITC,loss,15,left,11,ITC_collect,461,k,0,0,109,380620,1308742
3,18,female,Belg,2,28,ITC,loss,15,left,11,ITC_outcome,0,undefined,0,0,120,379614,1309748
3,18,female,Belg,2,29,guess,loss,30,right,3,guess_start,492,space,0,0,120,379119,1310243
3,18,female,Belg,2,29,guess,loss,30,right,3,guess_choice,1039,j,0,0,120,378075,1311287
3,18,female,Belg,2,29,guess,loss,30,right,3,guess_outcome,0,undefined,0,0,105,376516,1312846
3,18,female,Belg,2,29,ITC,loss,30,right,3,ITC_start,442,space,0,0,105,376071,1313291
3,18,female,Belg,2,29,ITC,loss,30,right,3,ITC_choice,3022,j,0,0,105,373047,1316315
3,18,female,Belg,2,29,ITC,loss,30,right,3,ITC_wait,0,undefined,0,0,105,343040,1346322
3,18,female,Belg,2,29,ITC,loss,30,right,3,ITC_collect,331,k,0,0,105,342706,1346656
3,18,female,Belg,2,29,ITC,loss,30,right,3,ITC_outcome,0,undefined,0,0,125,341697,1347665
3,18,female,Belg,2,30,guess,neutral,30,left,3,guess_start,636,space,0,0,125,341057,1348305
3,18,female,Belg,2,30,guess,neutral,30,left,3,guess_choice,723,j,0,0,125,340329,1349033
3,18,female,Belg,2,30,guess,neutral,30,left,3,guess_outcome,0,undefined,0,0,125,338772,1350590
3,18,female,Belg,2,30,ITC,neutral,30,left,3,ITC_start,524,space,0,0,125,338246,1351116
3,18,female,Belg,2,30,ITC,neutral,30,left,3,ITC_choice,2056,j,0,0,125,336187,1353175
3,18,female,Belg,2,30,ITC,neutral,30,left,3,ITC_wait,0,undefined,0,0,125,336183,1353179
3,18,female,Belg,2,30,ITC,neutral,30,left,3,ITC_collect,511,k,0,0,125,335670,1353692
3,18,female,Belg,2,30,ITC,neutral,30,left,3,ITC_outcome,0,undefined,0,0,128,334662,1354700
3,18,female,Belg,2,31,guess,loss,5,left,16,guess_start,721,space,0,0,128,333938,1355424
3,18,female,Belg,2,31,guess,loss,5,left,16,guess_choice,864,f,0,0,128,333069,1356293
3,18,female,Belg,2,31,guess,loss,5,left,16,guess_outcome,0,undefined,0,0,113,331510,1357852
3,18,female,Belg,2,31,ITC,loss,5,left,16,ITC_start,493,space,0,0,113,331014,1358348
3,18,female,Belg,2,31,ITC,loss,5,left,16,ITC_choice,2529,j,0,0,113,328482,1360880
3,18,female,Belg,2,31,ITC,loss,5,left,16,ITC_wait,0,undefined,0,0,113,328478,1360884
3,18,female,Belg,2,31,ITC,loss,5,left,16,ITC_collect,234,k,0,0,113,328242,1361120
3,18,female,Belg,2,31,ITC,loss,5,left,16,ITC_outcome,0,undefined,0,0,129,327234,1362128
3,18,female,Belg,2,32,guess,neutral,5,left,11,guess_start,590,space,0,0,129,326640,1362722
3,18,female,Belg,2,32,guess,neutral,5,left,11,guess_choice,698,j,0,0,129,325938,1363424
3,18,female,Belg,2,32,guess,neutral,5,left,11,guess_outcome,0,undefined,0,0,129,324381,1364981
3,18,female,Belg,2,32,ITC,neutral,5,left,11,ITC_start,711,space,0,0,129,323667,1365695
3,18,female,Belg,2,32,ITC,neutral,5,left,11,ITC_choice,1584,f,0,0,129,322080,1367282
3,18,female,Belg,2,32,ITC,neutral,5,left,11,ITC_wait,0,undefined,0,0,129,317073,1372289
3,18,female,Belg,2,32,ITC,neutral,5,left,11,ITC_collect,332,k,0,0,129,316738,1372624
3,18,female,Belg,2,32,ITC,neutral,5,left,11,ITC_outcome,0,undefined,0,0,149,315734,1373628
3,18,female,Belg,2,33,guess,neutral,15,right,7,guess_start,315,space,0,0,149,315416,1373946
3,18,female,Belg,2,33,guess,neutral,15,right,7,guess_choice,774,f,0,0,149,314637,1374725
3,18,female,Belg,2,33,guess,neutral,15,right,7,guess_outcome,0,undefined,0,0,149,313078,1376284
3,18,female,Belg,2,33,ITC,neutral,15,right,7,ITC_start,288,space,0,0,149,312787,1376575
3,18,female,Belg,2,33,ITC,neutral,15,right,7,ITC_choice,1699,j,0,0,149,311085,1378277
3,18,female,Belg,2,33,ITC,neutral,15,right,7,ITC_wait,0,undefined,0,0,149,296082,1393280
3,18,female,Belg,2,33,ITC,neutral,15,right,7,ITC_collect,351,k,0,0,149,295728,1393634
3,18,female,Belg,2,33,ITC,neutral,15,right,7,ITC_outcome,0,undefined,0,0,169,294724,1394638
3,18,female,Belg,2,34,guess,loss,15,left,12,guess_start,521,space,0,0,169,294200,1395162
3,18,female,Belg,2,34,guess,loss,15,left,12,guess_choice,680,j,0,0,169,293514,1395848
3,18,female,Belg,2,34,guess,loss,15,left,12,guess_outcome,0,undefined,0,0,154,291956,1397406
3,18,female,Belg,2,34,ITC,loss,15,left,12,ITC_start,511,space,0,0,154,291442,1397920
3,18,female,Belg,2,34,ITC,loss,15,left,12,ITC_choice,1887,j,0,0,154,289553,1399809
3,18,female,Belg,2,34,ITC,loss,15,left,12,ITC_wait,0,undefined,0,0,154,289549,1399813
3,18,female,Belg,2,34,ITC,loss,15,left,12,ITC_collect,248,k,0,0,154,289300,1400062
3,18,female,Belg,2,34,ITC,loss,15,left,12,ITC_outcome,0,undefined,0,0,166,288293,1401069
3,18,female,Belg,2,35,guess,loss,15,left,7,guess_start,958,space,0,0,166,287332,1402030
3,18,female,Belg,2,35,guess,loss,15,left,7,guess_choice,934,f,0,0,166,286394,1402968
3,18,female,Belg,2,35,guess,loss,15,left,7,guess_outcome,0,undefined,0,0,151,284835,1404527
3,18,female,Belg,2,35,ITC,loss,15,left,7,ITC_start,619,space,0,0,151,284212,1405150
3,18,female,Belg,2,35,ITC,loss,15,left,7,ITC_choice,2726,j,0,0,151,281483,1407879
3,18,female,Belg,2,35,ITC,loss,15,left,7,ITC_wait,0,undefined,0,0,151,281480,1407882
3,18,female,Belg,2,35,ITC,loss,15,left,7,ITC_collect,246,k,0,0,151,281232,1408130
3,18,female,Belg,2,35,ITC,loss,15,left,7,ITC_outcome,0,undefined,0,0,158,280225,1409137
3,18,female,Belg,2,36,guess,loss,30,left,6,guess_start,471,space,0,0,158,279750,1409612
3,18,female,Belg,2,36,guess,loss,30,left,6,guess_choice,722,j,0,0,158,279024,1410338
3,18,female,Belg,2,36,guess,loss,30,left,6,guess_outcome,0,undefined,0,0,143,277470,1411892
3,18,female,Belg,2,36,ITC,loss,30,left,6,ITC_start,444,space,0,0,143,277024,1412338
3,18,female,Belg,2,36,ITC,loss,30,left,6,ITC_choice,1099,j,0,0,143,275921,1413441
3,18,female,Belg,2,36,ITC,loss,30,left,6,ITC_wait,0,undefined,0,0,143,275918,1413444
3,18,female,Belg,2,36,ITC,loss,30,left,6,ITC_collect,443,k,0,0,143,275474,1413888
3,18,female,Belg,2,36,ITC,loss,30,left,6,ITC_outcome,0,undefined,0,0,149,274467,1414895
3,18,female,Belg,2,37,guess,win,15,left,5,guess_start,446,space,0,0,149,274017,1415345
3,18,female,Belg,2,37,guess,win,15,left,5,guess_choice,583,f,0,0,149,273430,1415932
3,18,female,Belg,2,37,guess,win,15,left,5,guess_outcome,0,undefined,0,0,169,271873,1417489
3,18,female,Belg,2,37,ITC,win,15,left,5,ITC_start,688,space,0,0,169,271182,1418180
3,18,female,Belg,2,37,ITC,win,15,left,5,ITC_choice,2694,j,0,0,169,268485,1420877
3,18,female,Belg,2,37,ITC,win,15,left,5,ITC_wait,0,undefined,0,0,169,268481,1420881
3,18,female,Belg,2,37,ITC,win,15,left,5,ITC_collect,289,k,0,0,169,268191,1421171
3,18,female,Belg,2,37,ITC,win,15,left,5,ITC_outcome,0,undefined,0,0,174,267188,1422174
3,18,female,Belg,2,38,guess,win,5,left,10,guess_start,627,space,0,0,174,266558,1422804
3,18,female,Belg,2,38,guess,win,5,left,10,guess_choice,726,f,0,0,174,265827,1423535
3,18,female,Belg,2,38,guess,win,5,left,10,guess_outcome,0,undefined,0,0,194,264267,1425095
3,18,female,Belg,2,38,ITC,win,5,left,10,ITC_start,458,space,0,0,194,263806,1425556
3,18,female,Belg,2,38,ITC,win,5,left,10,ITC_choice,1864,f,0,0,194,261940,1427422
3,18,female,Belg,2,38,ITC,win,5,left,10,ITC_wait,0,undefined,0,0,194,256933,1432429
3,18,female,Belg,2,38,ITC,win,5,left,10,ITC_collect,347,k,0,0,194,256583,1432779
3,18,female,Belg,2,38,ITC,win,5,left,10,ITC_outcome,0,undefined,0,0,214,255579,1433783
3,18,female,Belg,2,39,guess,loss,30,left,4,guess_start,501,space,0,0,214,255075,1434287
3,18,female,Belg,2,39,guess,loss,30,left,4,guess_choice,744,j,0,0,214,254327,1435035
3,18,female,Belg,2,39,guess,loss,30,left,4,guess_outcome,0,undefined,0,0,199,252767,1436595
3,18,female,Belg,2,39,ITC,loss,30,left,4,ITC_start,696,space,0,0,199,252069,1437293
3,18,female,Belg,2,39,ITC,loss,30,left,4,ITC_choice,1371,j,0,0,199,250695,1438667
3,18,female,Belg,2,39,ITC,loss,30,left,4,ITC_wait,0,undefined,0,0,199,250692,1438670
3,18,female,Belg,2,39,ITC,loss,30,left,4,ITC_collect,359,k,0,0,199,250331,1439031
3,18,female,Belg,2,39,ITC,loss,30,left,4,ITC_outcome,0,undefined,0,0,203,249323,1440039
3,18,female,Belg,2,40,guess,neutral,5,left,10,guess_start,400,space,0,0,203,248919,1440443
3,18,female,Belg,2,40,guess,neutral,5,left,10,guess_choice,671,j,0,0,203,248243,1441119
3,18,female,Belg,2,40,guess,neutral,5,left,10,guess_outcome,0,undefined,0,0,203,246686,1442676
3,18,female,Belg,2,40,ITC,neutral,5,left,10,ITC_start,264,space,0,0,203,246420,1442942
3,18,female,Belg,2,40,ITC,neutral,5,left,10,ITC_choice,1558,f,0,0,203,244859,1444503
3,18,female,Belg,2,40,ITC,neutral,5,left,10,ITC_wait,0,undefined,0,0,203,239857,1449505
3,18,female,Belg,2,40,ITC,neutral,5,left,10,ITC_collect,331,k,0,0,203,239522,1449840
3,18,female,Belg,2,40,ITC,neutral,5,left,10,ITC_outcome,0,undefined,0,0,223,238516,1450846
3,18,female,Belg,2,41,guess,win,15,right,11,guess_start,257,space,0,0,223,238255,1451107
3,18,female,Belg,2,41,guess,win,15,right,11,guess_choice,1005,j,0,0,223,237245,1452117
3,18,female,Belg,2,41,guess,win,15,right,11,guess_outcome,0,undefined,0,0,243,235689,1453673
3,18,female,Belg,2,41,ITC,win,15,right,11,ITC_start,404,space,0,0,243,235281,1454081
3,18,female,Belg,2,41,ITC,win,15,right,11,ITC_choice,2521,f,0,0,243,232758,1456604
3,18,female,Belg,2,41,ITC,win,15,right,11,ITC_wait,0,undefined,0,0,243,232754,1456608
3,18,female,Belg,2,41,ITC,win,15,right,11,ITC_collect,365,k,0,0,243,232388,1456974
3,18,female,Belg,2,41,ITC,win,15,right,11,ITC_outcome,0,undefined,0,0,254,231381,1457981
3,18,female,Belg,2,42,guess,loss,30,left,5,guess_start,657,space,0,0,254,230721,1458641
3,18,female,Belg,2,42,guess,loss,30,left,5,guess_choice,672,j,0,0,254,230044,1459318
3,18,female,Belg,2,42,guess,loss,30,left,5,guess_outcome,0,undefined,0,0,239,228485,1460877
3,18,female,Belg,2,42,ITC,loss,30,left,5,ITC_start,461,space,0,0,239,228021,1461341
3,18,female,Belg,2,42,ITC,loss,30,left,5,ITC_choice,1850,j,0,0,239,226169,1463193
3,18,female,Belg,2,42,ITC,loss,30,left,5,ITC_wait,0,undefined,0,0,239,226165,1463197
3,18,female,Belg,2,42,ITC,loss,30,left,5,ITC_collect,159,k,0,0,239,226003,1463359
3,18,female,Belg,2,42,ITC,loss,30,left,5,ITC_outcome,0,undefined,0,0,244,224998,1464364
3,18,female,Belg,2,43,guess,neutral,15,left,10,guess_start,381,space,0,0,244,224614,1464748
3,18,female,Belg,2,43,guess,neutral,15,left,10,guess_choice,724,f,0,0,244,223886,1465476
3,18,female,Belg,2,43,guess,neutral,15,left,10,guess_outcome,0,undefined,0,0,244,222328,1467034
3,18,female,Belg,2,43,ITC,neutral,15,left,10,ITC_start,234,space,0,0,244,222091,1467271
3,18,female,Belg,2,43,ITC,neutral,15,left,10,ITC_choice,1727,j,0,0,244,220362,1469000
3,18,female,Belg,2,43,ITC,neutral,15,left,10,ITC_wait,0,undefined,0,0,244,220358,1469004
3,18,female,Belg,2,43,ITC,neutral,15,left,10,ITC_collect,312,k,0,0,244,220045,1469317
3,18,female,Belg,2,43,ITC,neutral,15,left,10,ITC_outcome,0,undefined,0,0,254,219037,1470325
3,18,female,Belg,2,44,guess,loss,15,right,8,guess_start,598,space,0,0,254,218434,1470928
3,18,female,Belg,2,44,guess,loss,15,right,8,guess_choice,853,f,0,0,254,217576,1471786
3,18,female,Belg,2,44,guess,loss,15,right,8,guess_outcome,0,undefined,0,0,239,216016,1473346
3,18,female,Belg,2,44,ITC,loss,15,right,8,ITC_start,523,space,0,0,239,215490,1473872
3,18,female,Belg,2,44,ITC,loss,15,right,8,ITC_choice,1810,f,0,0,239,213679,1475683
3,18,female,Belg,2,44,ITC,loss,15,right,8,ITC_wait,0,undefined,0,0,239,213674,1475688
3,18,female,Belg,2,44,ITC,loss,15,right,8,ITC_collect,163,k,0,0,239,213509,1475853
3,18,female,Belg,2,44,ITC,loss,15,right,8,ITC_outcome,0,undefined,0,0,247,212504,1476858
3,18,female,Belg,2,45,guess,win,30,right,3,guess_start,461,space,0,0,247,212040,1477322
3,18,female,Belg,2,45,guess,win,30,right,3,guess_choice,927,j,0,0,247,211109,1478253
3,18,female,Belg,2,45,guess,win,30,right,3,guess_outcome,0,undefined,0,0,267,209550,1479812
3,18,female,Belg,2,45,ITC,win,30,right,3,ITC_start,537,space,0,0,267,209010,1480352
3,18,female,Belg,2,45,ITC,win,30,right,3,ITC_choice,1973,f,0,0,267,207034,1482328
3,18,female,Belg,2,45,ITC,win,30,right,3,ITC_wait,0,undefined,0,0,267,207030,1482332
3,18,female,Belg,2,45,ITC,win,30,right,3,ITC_collect,362,k,0,0,267,206666,1482696
3,18,female,Belg,2,45,ITC,win,30,right,3,ITC_outcome,0,undefined,0,0,270,205660,1483702
3,18,female,Belg,2,46,guess,loss,5,left,14,guess_start,558,space,0,0,270,205100,1484262
3,18,female,Belg,2,46,guess,loss,5,left,14,guess_choice,902,f,0,0,270,204194,1485168
3,18,female,Belg,2,46,guess,loss,5,left,14,guess_outcome,0,undefined,0,0,255,202637,1486725
3,18,female,Belg,2,46,ITC,loss,5,left,14,ITC_start,575,space,0,0,255,202059,1487303
3,18,female,Belg,2,46,ITC,loss,5,left,14,ITC_choice,1750,f,0,0,255,200307,1489055
3,18,female,Belg,2,46,ITC,loss,5,left,14,ITC_wait,0,undefined,0,0,255,195299,1494063
3,18,female,Belg,2,46,ITC,loss,5,left,14,ITC_collect,320,k,0,0,255,194975,1494387
3,18,female,Belg,2,46,ITC,loss,5,left,14,ITC_outcome,0,undefined,0,0,275,193970,1495392
3,18,female,Belg,2,47,guess,neutral,30,right,6,guess_start,473,space,0,0,275,193494,1495868
3,18,female,Belg,2,47,guess,neutral,30,right,6,guess_choice,603,j,0,0,275,192886,1496476
3,18,female,Belg,2,47,guess,neutral,30,right,6,guess_outcome,0,undefined,0,0,275,191328,1498034
3,18,female,Belg,2,47,ITC,neutral,30,right,6,ITC_start,556,space,0,0,275,190769,1498593
3,18,female,Belg,2,47,ITC,neutral,30,right,6,ITC_choice,2064,f,0,0,275,188702,1500660
3,18,female,Belg,2,47,ITC,neutral,30,right,6,ITC_wait,0,undefined,0,0,275,188699,1500663
3,18,female,Belg,2,47,ITC,neutral,30,right,6,ITC_collect,781,k,0,0,275,187916,1501446
3,18,female,Belg,2,47,ITC,neutral,30,right,6,ITC_outcome,0,undefined,0,0,281,186912,1502450
3,18,female,Belg,2,48,guess,loss,15,right,9,guess_start,667,space,0,0,281,186241,1503121
3,18,female,Belg,2,48,guess,loss,15,right,9,guess_choice,782,j,0,0,281,185455,1503907
3,18,female,Belg,2,48,guess,loss,15,right,9,guess_outcome,0,undefined,0,0,266,183898,1505464
3,18,female,Belg,2,48,ITC,loss,15,right,9,ITC_start,574,space,0,0,266,183321,1506041
3,18,female,Belg,2,48,ITC,loss,15,right,9,ITC_choice,1892,f,0,0,266,181426,1507936
3,18,female,Belg,2,48,ITC,loss,15,right,9,ITC_wait,0,undefined,0,0,266,181422,1507940
3,18,female,Belg,2,48,ITC,loss,15,right,9,ITC_collect,237,k,0,0,266,181185,1508177
3,18,female,Belg,2,48,ITC,loss,15,right,9,ITC_outcome,0,undefined,0,0,275,180178,1509184
3,18,female,Belg,2,49,guess,loss,5,left,11,guess_start,545,space,0,0,275,179629,1509733
3,18,female,Belg,2,49,guess,loss,5,left,11,guess_choice,955,f,0,0,275,178669,1510693
3,18,female,Belg,2,49,guess,loss,5,left,11,guess_outcome,0,undefined,0,0,260,177111,1512251
3,18,female,Belg,2,49,ITC,loss,5,left,11,ITC_start,535,space,0,0,260,176573,1512789
3,18,female,Belg,2,49,ITC,loss,5,left,11,ITC_choice,1196,f,0,0,260,175375,1513987
3,18,female,Belg,2,49,ITC,loss,5,left,11,ITC_wait,0,undefined,0,0,260,170371,1518991
3,18,female,Belg,2,49,ITC,loss,5,left,11,ITC_collect,318,k,0,0,260,170050,1519312
3,18,female,Belg,2,49,ITC,loss,5,left,11,ITC_outcome,0,undefined,0,0,280,169044,1520318
3,18,female,Belg,2,50,guess,neutral,30,left,4,guess_start,524,space,0,0,280,168517,1520845
3,18,female,Belg,2,50,guess,neutral,30,left,4,guess_choice,639,j,0,0,280,167874,1521488
3,18,female,Belg,2,50,guess,neutral,30,left,4,guess_outcome,0,undefined,0,0,280,166316,1523046
3,18,female,Belg,2,50,ITC,neutral,30,left,4,ITC_start,507,space,0,0,280,165806,1523556
3,18,female,Belg,2,50,ITC,neutral,30,left,4,ITC_choice,1024,j,0,0,280,164780,1524582
3,18,female,Belg,2,50,ITC,neutral,30,left,4,ITC_wait,0,undefined,0,0,280,164776,1524586
3,18,female,Belg,2,50,ITC,neutral,30,left,4,ITC_collect,349,k,0,0,280,164426,1524936
3,18,female,Belg,2,50,ITC,neutral,30,left,4,ITC_outcome,0,undefined,0,0,284,163419,1525943
3,18,female,Belg,2,51,guess,win,5,right,12,guess_start,373,space,0,0,284,163043,1526319
3,18,female,Belg,2,51,guess,win,5,right,12,guess_choice,700,f,0,0,284,162338,1527024
3,18,female,Belg,2,51,guess,win,5,right,12,guess_outcome,0,undefined,0,0,304,160780,1528582
3,18,female,Belg,2,51,ITC,win,5,right,12,ITC_start,458,space,0,0,304,160319,1529043
3,18,female,Belg,2,51,ITC,win,5,right,12,ITC_choice,1321,j,0,0,304,158994,1530368
3,18,female,Belg,2,51,ITC,win,5,right,12,ITC_wait,0,undefined,0,0,304,153986,1535376
3,18,female,Belg,2,51,ITC,win,5,right,12,ITC_collect,301,k,0,0,304,153682,1535680
3,18,female,Belg,2,51,ITC,win,5,right,12,ITC_outcome,0,undefined,0,0,324,152675,1536687
3,18,female,Belg,2,52,guess,win,30,right,2,guess_start,687,space,0,0,324,151985,1537377
3,18,female,Belg,2,52,guess,win,30,right,2,guess_choice,1235,f,0,0,324,150746,1538616
3,18,female,Belg,2,52,guess,win,30,right,2,guess_outcome,0,undefined,0,0,344,149189,1540173
3,18,female,Belg,2,52,ITC,win,30,right,2,ITC_start,1514,space,0,0,344,147672,1541690
3,18,female,Belg,2,52,ITC,win,30,right,2,ITC_choice,2386,f,0,0,344,145284,1544078
3,18,female,Belg,2,52,ITC,win,30,right,2,ITC_wait,0,undefined,0,0,344,145280,1544082
3,18,female,Belg,2,52,ITC,win,30,right,2,ITC_collect,284,k,0,0,344,144994,1544368
3,18,female,Belg,2,52,ITC,win,30,right,2,ITC_outcome,0,undefined,0,0,346,143990,1545372
3,18,female,Belg,2,53,guess,neutral,30,right,7,guess_start,397,space,0,0,346,143590,1545772
3,18,female,Belg,2,53,guess,neutral,30,right,7,guess_choice,615,f,0,0,346,142970,1546392
3,18,female,Belg,2,53,guess,neutral,30,right,7,guess_outcome,0,undefined,0,0,346,141413,1547949
3,18,female,Belg,2,53,ITC,neutral,30,right,7,ITC_start,275,space,0,0,346,141135,1548227
3,18,female,Belg,2,53,ITC,neutral,30,right,7,ITC_choice,1347,f,0,0,346,139786,1549576
3,18,female,Belg,2,53,ITC,neutral,30,right,7,ITC_wait,0,undefined,0,0,346,139782,1549580
3,18,female,Belg,2,53,ITC,neutral,30,right,7,ITC_collect,216,k,0,0,346,139565,1549797
3,18,female,Belg,2,53,ITC,neutral,30,right,7,ITC_outcome,0,undefined,0,0,353,138559,1550803
3,18,female,Belg,2,54,guess,neutral,30,right,8,guess_start,442,space,0,0,353,138113,1551249
3,18,female,Belg,2,54,guess,neutral,30,right,8,guess_choice,604,j,0,0,353,137503,1551859
3,18,female,Belg,2,54,guess,neutral,30,right,8,guess_outcome,0,undefined,0,0,353,135945,1553417
3,18,female,Belg,2,54,ITC,neutral,30,right,8,ITC_start,587,space,0,0,353,135355,1554007
3,18,female,Belg,2,54,ITC,neutral,30,right,8,ITC_choice,943,f,0,0,353,134410,1554952
3,18,female,Belg,2,54,ITC,neutral,30,right,8,ITC_wait,0,undefined,0,0,353,134406,1554956
3,18,female,Belg,2,54,ITC,neutral,30,right,8,ITC_collect,180,k,0,0,353,134224,1555138
3,18,female,Belg,2,54,ITC,neutral,30,right,8,ITC_outcome,0,undefined,0,0,361,133217,1556145
3,18,female,Belg,2,55,guess,neutral,5,left,14,guess_start,420,space,0,0,361,132794,1556568
3,18,female,Belg,2,55,guess,neutral,5,left,14,guess_choice,661,j,0,0,361,132129,1557233
3,18,female,Belg,2,55,guess,neutral,5,left,14,guess_outcome,0,undefined,0,0,361,130572,1558790
3,18,female,Belg,2,55,ITC,neutral,5,left,14,ITC_start,424,space,0,0,361,130145,1559217
3,18,female,Belg,2,55,ITC,neutral,5,left,14,ITC_choice,940,j,0,0,361,129201,1560161
3,18,female,Belg,2,55,ITC,neutral,5,left,14,ITC_wait,0,undefined,0,0,361,129198,1560164
3,18,female,Belg,2,55,ITC,neutral,5,left,14,ITC_collect,141,k,0,0,361,129055,1560307
3,18,female,Belg,2,55,ITC,neutral,5,left,14,ITC_outcome,0,undefined,0,0,375,128048,1561314
3,18,female,Belg,2,56,guess,neutral,15,left,11,guess_start,444,space,0,0,375,127601,1561761
3,18,female,Belg,2,56,guess,neutral,15,left,11,guess_choice,580,j,0,0,375,127017,1562345
3,18,female,Belg,2,56,guess,neutral,15,left,11,guess_outcome,0,undefined,0,0,375,125460,1563902
3,18,female,Belg,2,56,ITC,neutral,15,left,11,ITC_start,573,space,0,0,375,124883,1564479
3,18,female,Belg,2,56,ITC,neutral,15,left,11,ITC_wait,0,undefined,0,0,375,123647,1565715
3,18,female,Belg,2,56,ITC,neutral,15,left,11,ITC_collect,118,k,0,0,375,123528,1565834
3,18,female,Belg,2,56,ITC,neutral,15,left,11,ITC_choice,1229,j,0,0,375,123652,1565710
3,18,female,Belg,2,56,ITC,neutral,15,left,11,ITC_outcome,0,undefined,0,0,386,122521,1566841
3,18,female,Belg,2,57,guess,win,15,left,9,guess_start,516,space,0,0,386,122001,1567361
3,18,female,Belg,2,57,guess,win,15,left,9,guess_choice,746,f,0,0,386,121251,1568111
3,18,female,Belg,2,57,guess,win,15,left,9,guess_outcome,0,undefined,0,0,406,119692,1569670
3,18,female,Belg,2,57,ITC,win,15,left,9,ITC_start,391,space,0,0,406,119298,1570064
3,18,female,Belg,2,57,ITC,win,15,left,9,ITC_choice,1782,j,0,0,406,117513,1571849
3,18,female,Belg,2,57,ITC,win,15,left,9,ITC_wait,0,undefined,0,0,406,117509,1571853
3,18,female,Belg,2,57,ITC,win,15,left,9,ITC_collect,123,k,0,0,406,117385,1571977
3,18,female,Belg,2,57,ITC,win,15,left,9,ITC_outcome,0,undefined,0,0,415,116378,1572984
3,18,female,Belg,2,58,guess,win,15,right,7,guess_start,328,space,0,0,415,116047,1573315
3,18,female,Belg,2,58,guess,win,15,right,7,guess_choice,755,j,0,0,415,115288,1574074
3,18,female,Belg,2,58,guess,win,15,right,7,guess_outcome,0,undefined,0,0,435,113729,1575633
3,18,female,Belg,2,58,ITC,win,15,right,7,ITC_start,483,space,0,0,435,113242,1576120
3,18,female,Belg,2,58,ITC,win,15,right,7,ITC_choice,1607,f,0,0,435,111633,1577729
3,18,female,Belg,2,58,ITC,win,15,right,7,ITC_wait,0,undefined,0,0,435,111629,1577733
3,18,female,Belg,2,58,ITC,win,15,right,7,ITC_collect,114,k,0,0,435,111513,1577849
3,18,female,Belg,2,58,ITC,win,15,right,7,ITC_outcome,0,undefined,0,0,442,110509,1578853
3,18,female,Belg,2,59,guess,neutral,30,right,2,guess_start,497,space,0,0,442,110009,1579353
3,18,female,Belg,2,59,guess,neutral,30,right,2,guess_choice,588,f,0,0,442,109416,1579946
3,18,female,Belg,2,59,guess,neutral,30,right,2,guess_outcome,0,undefined,0,0,442,107861,1581501
3,18,female,Belg,2,59,ITC,neutral,30,right,2,ITC_start,300,space,0,0,442,107559,1581803
3,18,female,Belg,2,59,ITC,neutral,30,right,2,ITC_choice,1946,f,0,0,442,105610,1583752
3,18,female,Belg,2,59,ITC,neutral,30,right,2,ITC_wait,0,undefined,0,0,442,105606,1583756
3,18,female,Belg,2,59,ITC,neutral,30,right,2,ITC_collect,151,k,0,0,442,105454,1583908
3,18,female,Belg,2,59,ITC,neutral,30,right,2,ITC_outcome,0,undefined,0,0,444,104450,1584912
3,18,female,Belg,2,60,guess,loss,5,right,10,guess_start,440,space,0,0,444,104006,1585356
3,18,female,Belg,2,60,guess,loss,5,right,10,guess_choice,737,j,0,0,444,103265,1586097
3,18,female,Belg,2,60,guess,loss,5,right,10,guess_outcome,0,undefined,0,0,429,101709,1587653
3,18,female,Belg,2,60,ITC,loss,5,right,10,ITC_start,521,space,0,0,429,101184,1588178
3,18,female,Belg,2,60,ITC,loss,5,right,10,ITC_choice,2156,j,0,0,429,99025,1590337
3,18,female,Belg,2,60,ITC,loss,5,right,10,ITC_wait,0,undefined,0,0,429,94018,1595344
3,18,female,Belg,2,60,ITC,loss,5,right,10,ITC_collect,274,k,0,0,429,93740,1595622
3,18,female,Belg,2,60,ITC,loss,5,right,10,ITC_outcome,0,undefined,0,0,449,92733,1596629
3,18,female,Belg,2,61,guess,win,5,left,16,guess_start,399,space,0,0,449,92331,1597031
3,18,female,Belg,2,61,guess,win,5,left,16,guess_choice,571,j,0,0,449,91755,1597607
3,18,female,Belg,2,61,guess,win,5,left,16,guess_outcome,0,undefined,0,0,469,90200,1599162
3,18,female,Belg,2,61,ITC,win,5,left,16,ITC_start,399,space,0,0,469,89799,1599563
3,18,female,Belg,2,61,ITC,win,5,left,16,ITC_choice,1680,j,0,0,469,88116,1601246
3,18,female,Belg,2,61,ITC,win,5,left,16,ITC_wait,0,undefined,0,0,469,88112,1601250
3,18,female,Belg,2,61,ITC,win,5,left,16,ITC_collect,315,k,0,0,469,87796,1601566
3,18,female,Belg,2,61,ITC,win,5,left,16,ITC_outcome,0,undefined,0,0,485,86790,1602572
3,18,female,Belg,2,62,guess,neutral,15,right,8,guess_start,535,space,0,0,485,86252,1603110
3,18,female,Belg,2,62,guess,neutral,15,right,8,guess_choice,584,j,0,0,485,85663,1603699
3,18,female,Belg,2,62,guess,neutral,15,right,8,guess_outcome,0,undefined,0,0,485,84107,1605255
3,18,female,Belg,2,62,ITC,neutral,15,right,8,ITC_start,468,space,0,0,485,83635,1605727
3,18,female,Belg,2,62,ITC,neutral,15,right,8,ITC_choice,1216,f,0,0,485,82417,1606945
3,18,female,Belg,2,62,ITC,neutral,15,right,8,ITC_wait,0,undefined,0,0,485,82414,1606948
3,18,female,Belg,2,62,ITC,neutral,15,right,8,ITC_collect,154,k,0,0,485,82258,1607104
3,18,female,Belg,2,62,ITC,neutral,15,right,8,ITC_outcome,0,undefined,0,0,493,81250,1608112
3,18,female,Belg,2,63,guess,loss,5,right,12,guess_start,406,space,0,0,493,80840,1608522
3,18,female,Belg,2,63,guess,loss,5,right,12,guess_choice,770,f,0,0,493,80065,1609297
3,18,female,Belg,2,63,guess,loss,5,right,12,guess_outcome,0,undefined,0,0,478,78507,1610855
3,18,female,Belg,2,63,ITC,loss,5,right,12,ITC_start,371,space,0,0,478,78134,1611228
3,18,female,Belg,2,63,ITC,loss,5,right,12,ITC_choice,2078,j,0,0,478,76053,1613309
3,18,female,Belg,2,63,ITC,loss,5,right,12,ITC_wait,0,undefined,0,0,478,71048,1618314
3,18,female,Belg,2,63,ITC,loss,5,right,12,ITC_collect,265,k,0,0,478,70780,1618582
3,18,female,Belg,2,63,ITC,loss,5,right,12,ITC_outcome,0,undefined,0,0,498,69772,1619590
3,18,female,Belg,2,64,guess,loss,30,right,1,guess_start,500,space,0,0,498,69269,1620093
3,18,female,Belg,2,64,guess,loss,30,right,1,guess_choice,615,f,0,0,498,68649,1620713
3,18,female,Belg,2,64,guess,loss,30,right,1,guess_outcome,0,undefined,0,0,483,67093,1622269
3,18,female,Belg,2,64,ITC,loss,30,right,1,ITC_start,547,space,0,0,483,66543,1622819
3,18,female,Belg,2,64,ITC,loss,30,right,1,ITC_choice,1451,f,0,0,483,65089,1624273
3,18,female,Belg,2,64,ITC,loss,30,right,1,ITC_wait,0,undefined,0,0,483,65082,1624280
3,18,female,Belg,2,64,ITC,loss,30,right,1,ITC_collect,99,k,0,0,483,64982,1624380
3,18,female,Belg,2,64,ITC,loss,30,right,1,ITC_outcome,0,undefined,0,0,484,63974,1625388
3,18,female,Belg,2,65,guess,win,5,right,14,guess_start,351,space,0,0,484,63619,1625743
3,18,female,Belg,2,65,guess,win,5,right,14,guess_choice,589,j,0,0,484,63026,1626336
3,18,female,Belg,2,65,guess,win,5,right,14,guess_outcome,0,undefined,0,0,504,61467,1627895
3,18,female,Belg,2,65,ITC,win,5,right,14,ITC_start,446,space,0,0,504,61018,1628344
3,18,female,Belg,2,65,ITC,win,5,right,14,ITC_choice,2156,j,0,0,504,58859,1630503
3,18,female,Belg,2,65,ITC,win,5,right,14,ITC_wait,0,undefined,0,0,504,53856,1635506
3,18,female,Belg,2,65,ITC,win,5,right,14,ITC_collect,307,k,0,0,504,53546,1635816
3,18,female,Belg,2,65,ITC,win,5,right,14,ITC_outcome,0,undefined,0,0,524,52540,1636822
3,18,female,Belg,2,66,guess,neutral,15,left,6,guess_start,283,space,0,0,524,52253,1637109
3,18,female,Belg,2,66,guess,neutral,15,left,6,guess_choice,590,f,0,0,524,51659,1637703
3,18,female,Belg,2,66,guess,neutral,15,left,6,guess_outcome,0,undefined,0,0,524,50100,1639262
3,18,female,Belg,2,66,ITC,neutral,15,left,6,ITC_start,404,space,0,0,524,49694,1639668
3,18,female,Belg,2,66,ITC,neutral,15,left,6,ITC_choice,1315,j,0,0,524,48376,1640986
3,18,female,Belg,2,66,ITC,neutral,15,left,6,ITC_wait,0,undefined,0,0,524,48373,1640989
3,18,female,Belg,2,66,ITC,neutral,15,left,6,ITC_collect,127,k,0,0,524,48244,1641118
3,18,female,Belg,2,66,ITC,neutral,15,left,6,ITC_outcome,0,undefined,0,0,530,47240,1642122
3,18,female,Belg,2,67,guess,neutral,5,left,9,guess_start,446,space,0,0,530,46791,1642571
3,18,female,Belg,2,67,guess,neutral,5,left,9,guess_choice,557,f,0,0,530,46230,1643132
3,18,female,Belg,2,67,guess,neutral,5,left,9,guess_outcome,0,undefined,0,0,530,44671,1644691
3,18,female,Belg,2,67,ITC,neutral,5,left,9,ITC_start,509,space,0,0,530,44160,1645202
3,18,female,Belg,2,67,ITC,neutral,5,left,9,ITC_choice,1360,f,0,0,530,42798,1646564
3,18,female,Belg,2,67,ITC,neutral,5,left,9,ITC_wait,0,undefined,0,0,530,37790,1651572
3,18,female,Belg,2,67,ITC,neutral,5,left,9,ITC_collect,295,k,0,0,530,37492,1651870
3,18,female,Belg,2,67,ITC,neutral,5,left,9,ITC_outcome,0,undefined,0,0,550,36484,1652878
3,18,female,Belg,2,68,guess,win,30,left,4,guess_start,320,space,0,0,550,36161,1653201
3,18,female,Belg,2,68,guess,win,30,left,4,guess_choice,631,j,0,0,550,35525,1653837
3,18,female,Belg,2,68,guess,win,30,left,4,guess_outcome,0,undefined,0,0,570,33966,1655396
3,18,female,Belg,2,68,ITC,win,30,left,4,ITC_start,372,space,0,0,570,33591,1655771
3,18,female,Belg,2,68,ITC,win,30,left,4,ITC_choice,1029,j,0,0,570,32559,1656803
3,18,female,Belg,2,68,ITC,win,30,left,4,ITC_wait,0,undefined,0,0,570,32555,1656807
3,18,female,Belg,2,68,ITC,win,30,left,4,ITC_collect,70,k,0,0,570,32484,1656878
3,18,female,Belg,2,68,ITC,win,30,left,4,ITC_outcome,0,undefined,0,0,574,31480,1657882
3,18,female,Belg,2,69,guess,win,15,left,8,guess_start,492,space,0,0,574,30985,1658377
3,18,female,Belg,2,69,guess,win,15,left,8,guess_choice,722,f,0,0,574,30259,1659103
3,18,female,Belg,2,69,guess,win,15,left,8,guess_outcome,0,undefined,0,0,594,28699,1660663
3,18,female,Belg,2,69,ITC,win,15,left,8,ITC_start,381,space,0,0,594,28316,1661046
3,18,female,Belg,2,69,ITC,win,15,left,8,ITC_choice,1112,j,0,0,594,27201,1662161
3,18,female,Belg,2,69,ITC,win,15,left,8,ITC_wait,0,undefined,0,0,594,27197,1662165
3,18,female,Belg,2,69,ITC,win,15,left,8,ITC_collect,110,k,0,0,594,27086,1662276
3,18,female,Belg,2,69,ITC,win,15,left,8,ITC_outcome,0,undefined,0,0,602,26082,1663280
3,18,female,Belg,2,70,guess,win,30,right,5,guess_start,617,space,0,0,602,25462,1663900
3,18,female,Belg,2,70,guess,win,30,right,5,guess_choice,1244,j,0,0,602,24213,1665149
3,18,female,Belg,2,70,guess,win,30,right,5,guess_outcome,0,undefined,0,0,622,22654,1666708
3,18,female,Belg,2,70,ITC,win,30,right,5,ITC_start,594,space,0,0,622,22058,1667304
3,18,female,Belg,2,70,ITC,win,30,right,5,ITC_choice,1579,f,0,0,622,20476,1668886
3,18,female,Belg,2,70,ITC,win,30,right,5,ITC_wait,0,undefined,0,0,622,20472,1668890
3,18,female,Belg,2,70,ITC,win,30,right,5,ITC_collect,85,k,0,0,622,20386,1668976
3,18,female,Belg,2,70,ITC,win,30,right,5,ITC_outcome,0,undefined,0,0,627,19379,1669983
3,18,female,Belg,2,71,guess,neutral,15,right,5,guess_start,311,space,0,0,627,19065,1670297
3,18,female,Belg,2,71,guess,neutral,15,right,5,guess_choice,694,f,0,0,627,18366,1670996
3,18,female,Belg,2,71,guess,neutral,15,right,5,guess_outcome,0,undefined,0,0,627,16807,1672555
3,18,female,Belg,2,71,ITC,neutral,15,right,5,ITC_start,507,space,0,0,627,16297,1673065
3,18,female,Belg,2,71,ITC,neutral,15,right,5,ITC_choice,1151,f,0,0,627,15144,1674218
3,18,female,Belg,2,71,ITC,neutral,15,right,5,ITC_wait,0,undefined,0,0,627,15140,1674222
3,18,female,Belg,2,71,ITC,neutral,15,right,5,ITC_collect,127,k,0,0,627,15012,1674350
3,18,female,Belg,2,71,ITC,neutral,15,right,5,ITC_outcome,0,undefined,0,0,632,14006,1675356
3,18,female,Belg,2,72,guess,win,5,left,13,guess_start,424,space,0,0,632,13578,1675784
3,18,female,Belg,2,72,guess,win,5,left,13,guess_choice,940,j,0,0,632,12633,1676729
3,18,female,Belg,2,72,guess,win,5,left,13,guess_outcome,0,undefined,0,0,652,11077,1678285
3,18,female,Belg,2,72,ITC,win,5,left,13,ITC_start,426,space,0,0,652,10648,1678714
3,18,female,Belg,2,72,ITC,win,5,left,13,ITC_choice,1570,f,0,0,652,9076,1680286
3,18,female,Belg,2,72,ITC,win,5,left,13,ITC_wait,0,undefined,0,0,652,4067,1685295
3,18,female,Belg,2,72,ITC,win,5,left,13,ITC_collect,319,k,0,0,652,3745,1685617
3,18,female,Belg,2,72,ITC,win,5,left,13,ITC_outcome,0,undefined,0,0,672,2737,1686625
3,18,female,Belg,2,73,guess,neutral,30,right,8,guess_start,327,space,0,0,672,2407,1686955
3,18,female,Belg,2,73,guess,neutral,30,right,8,guess_choice,627,j,0,0,672,1775,1687587
3,18,female,Belg,2,73,guess,neutral,30,right,8,guess_outcome,0,undefined,0,0,672,217,1689145
3,18,female,Belg,2,73,ITC,neutral,30,right,8,ITC_start,172,space,0,0,672,43,1689319
3,18,female,Belg,2,73,ITC,neutral,30,right,8,ITC_choice,0,undefined,0,0,672,-7,1689369
3,18,female,Belg,3,74,guess,loss,5,right,11,guess_start,1760,space,0,0,0,478238,1708841
3,18,female,Belg,3,74,guess,loss,5,right,11,guess_choice,632,j,0,0,0,477601,1709478
3,18,female,Belg,3,74,guess,loss,5,right,11,guess_outcome,0,undefined,0,0,-15,476047,1711032
3,18,female,Belg,3,74,ITC,loss,5,right,11,ITC_start,249,space,0,0,-15,475795,1711284
3,18,female,Belg,3,74,ITC,loss,5,right,11,ITC_choice,1543,j,0,0,-15,474249,1712830
3,18,female,Belg,3,74,ITC,loss,5,right,11,ITC_wait,0,undefined,0,0,-15,469245,1717834
3,18,female,Belg,3,74,ITC,loss,5,right,11,ITC_collect,285,k,0,0,-15,468957,1718122
3,18,female,Belg,3,74,ITC,loss,5,right,11,ITC_outcome,0,undefined,0,0,5,467953,1719126
3,18,female,Belg,3,75,guess,loss,15,right,6,guess_start,737,space,0,0,5,467213,1719866
3,18,female,Belg,3,75,guess,loss,15,right,6,guess_choice,523,f,0,0,5,466685,1720394
3,18,female,Belg,3,75,guess,loss,15,right,6,guess_outcome,0,undefined,0,0,-10,465128,1721951
3,18,female,Belg,3,75,ITC,loss,15,right,6,ITC_start,667,space,0,0,-10,464458,1722621
3,18,female,Belg,3,75,ITC,loss,15,right,6,ITC_choice,1308,f,0,0,-10,463147,1723932
3,18,female,Belg,3,75,ITC,loss,15,right,6,ITC_wait,0,undefined,0,0,-10,463143,1723936
3,18,female,Belg,3,75,ITC,loss,15,right,6,ITC_collect,78,k,0,0,-10,463064,1724015
3,18,female,Belg,3,75,ITC,loss,15,right,6,ITC_outcome,0,undefined,0,0,-4,462060,1725019
3,18,female,Belg,3,76,guess,win,5,left,11,guess_start,451,space,0,0,-4,461605,1725474
3,18,female,Belg,3,76,guess,win,5,left,11,guess_choice,826,j,0,0,-4,460775,1726304
3,18,female,Belg,3,76,guess,win,5,left,11,guess_outcome,0,undefined,0,0,16,459218,1727861
3,18,female,Belg,3,76,ITC,win,5,left,11,ITC_start,479,space,0,0,16,458736,1728343
3,18,female,Belg,3,76,ITC,win,5,left,11,ITC_choice,1310,f,0,0,16,457423,1729656
3,18,female,Belg,3,76,ITC,win,5,left,11,ITC_wait,0,undefined,0,0,16,452415,1734664
3,18,female,Belg,3,76,ITC,win,5,left,11,ITC_collect,405,k,0,0,16,452007,1735072
3,18,female,Belg,3,76,ITC,win,5,left,11,ITC_outcome,0,undefined,0,0,36,451002,1736077
3,18,female,Belg,3,77,guess,win,30,right,2,guess_start,209,space,0,0,36,450790,1736289
3,18,female,Belg,3,77,guess,win,30,right,2,guess_choice,519,j,0,0,36,450267,1736812
3,18,female,Belg,3,77,guess,win,30,right,2,guess_outcome,0,undefined,0,0,56,448707,1738372
3,18,female,Belg,3,77,ITC,win,30,right,2,ITC_start,587,space,0,0,56,448117,1738962
3,18,female,Belg,3,77,ITC,win,30,right,2,ITC_choice,1233,f,0,0,56,446880,1740199
3,18,female,Belg,3,77,ITC,win,30,right,2,ITC_wait,0,undefined,0,0,56,446876,1740203
3,18,female,Belg,3,77,ITC,win,30,right,2,ITC_collect,84,k,0,0,56,446790,1740289
3,18,female,Belg,3,77,ITC,win,30,right,2,ITC_outcome,0,undefined,0,0,58,445784,1741295
3,18,female,Belg,3,78,guess,loss,5,left,10,guess_start,267,space,0,0,58,445514,1741565
3,18,female,Belg,3,78,guess,loss,5,left,10,guess_choice,957,f,0,0,58,444553,1742526
3,18,female,Belg,3,78,guess,loss,5,left,10,guess_outcome,0,undefined,0,0,43,442993,1744086
3,18,female,Belg,3,78,ITC,loss,5,left,10,ITC_start,419,space,0,0,43,442570,1744509
3,18,female,Belg,3,78,ITC,loss,5,left,10,ITC_choice,1668,f,0,0,43,440899,1746180
3,18,female,Belg,3,78,ITC,loss,5,left,10,ITC_wait,0,undefined,0,0,43,435891,1751188
3,18,female,Belg,3,78,ITC,loss,5,left,10,ITC_collect,359,k,0,0,43,435529,1751550
3,18,female,Belg,3,78,ITC,loss,5,left,10,ITC_outcome,0,undefined,0,0,63,434521,1752558
3,18,female,Belg,3,79,guess,loss,15,right,11,guess_start,78,space,0,0,63,434439,1752640
3,18,female,Belg,3,79,guess,loss,15,right,11,guess_choice,589,j,0,0,63,433845,1753234
3,18,female,Belg,3,79,guess,loss,15,right,11,guess_outcome,0,undefined,0,0,48,432288,1754791
3,18,female,Belg,3,79,ITC,loss,15,right,11,ITC_start,512,space,0,0,48,431773,1755306
3,18,female,Belg,3,79,ITC,loss,15,right,11,ITC_choice,1307,f,0,0,48,430463,1756616
3,18,female,Belg,3,79,ITC,loss,15,right,11,ITC_wait,0,undefined,0,0,48,430459,1756620
3,18,female,Belg,3,79,ITC,loss,15,right,11,ITC_collect,82,k,0,0,48,430375,1756704
3,18,female,Belg,3,79,ITC,loss,15,right,11,ITC_outcome,0,undefined,0,0,59,429368,1757711
3,18,female,Belg,3,80,guess,neutral,15,right,9,guess_start,373,space,0,0,59,428992,1758087
3,18,female,Belg,3,80,guess,neutral,15,right,9,guess_choice,795,f,0,0,59,428192,1758887
3,18,female,Belg,3,80,guess,neutral,15,right,9,guess_outcome,0,undefined,0,0,59,426635,1760444
3,18,female,Belg,3,80,ITC,neutral,15,right,9,ITC_start,249,space,0,0,59,426383,1760696
3,18,female,Belg,3,80,ITC,neutral,15,right,9,ITC_choice,1585,f,0,0,59,424795,1762284
3,18,female,Belg,3,80,ITC,neutral,15,right,9,ITC_wait,0,undefined,0,0,59,424791,1762288
3,18,female,Belg,3,80,ITC,neutral,15,right,9,ITC_collect,106,k,0,0,59,424684,1762395
3,18,female,Belg,3,80,ITC,neutral,15,right,9,ITC_outcome,0,undefined,0,0,68,423680,1763399
3,18,female,Belg,3,81,guess,win,15,right,5,guess_start,515,space,0,0,68,423161,1763918
3,18,female,Belg,3,81,guess,win,15,right,5,guess_choice,779,j,0,0,68,422377,1764702
3,18,female,Belg,3,81,guess,win,15,right,5,guess_outcome,0,undefined,0,0,88,420818,1766261
3,18,female,Belg,3,81,ITC,win,15,right,5,ITC_start,343,space,0,0,88,420472,1766607
3,18,female,Belg,3,81,ITC,win,15,right,5,ITC_choice,1166,f,0,0,88,419303,1767776
3,18,female,Belg,3,81,ITC,win,15,right,5,ITC_collect,54,k,0,0,88,419243,1767836
3,18,female,Belg,3,81,ITC,win,15,right,5,ITC_wait,0,undefined,0,0,88,419299,1767780
3,18,female,Belg,3,81,ITC,win,15,right,5,ITC_outcome,0,undefined,0,0,93,418239,1768840
3,18,female,Belg,3,82,guess,neutral,30,right,5,guess_start,322,space,0,0,93,417914,1769165
3,18,female,Belg,3,82,guess,neutral,30,right,5,guess_choice,577,j,0,0,93,417332,1769747
3,18,female,Belg,3,82,guess,neutral,30,right,5,guess_outcome,0,undefined,0,0,93,415777,1771302
3,18,female,Belg,3,82,ITC,neutral,30,right,5,ITC_start,763,space,0,0,93,415011,1772068
3,18,female,Belg,3,82,ITC,neutral,30,right,5,ITC_wait,0,undefined,0,0,93,413736,1773343
3,18,female,Belg,3,82,ITC,neutral,30,right,5,ITC_choice,1268,f,0,0,93,413740,1773339
3,18,female,Belg,3,82,ITC,neutral,30,right,5,ITC_collect,57,k,0,0,93,413678,1773401
3,18,female,Belg,3,82,ITC,neutral,30,right,5,ITC_outcome,0,undefined,0,0,98,412670,1774409
3,18,female,Belg,3,83,guess,loss,15,left,10,guess_start,365,space,0,0,98,412302,1774777
3,18,female,Belg,3,83,guess,loss,15,left,10,guess_choice,712,j,0,0,98,411586,1775493
3,18,female,Belg,3,83,guess,loss,15,left,10,guess_outcome,0,undefined,0,0,83,410026,1777053
3,18,female,Belg,3,83,ITC,loss,15,left,10,ITC_start,335,space,0,0,83,409688,1777391
3,18,female,Belg,3,83,ITC,loss,15,left,10,ITC_wait,0,undefined,0,0,83,408592,1778487
3,18,female,Belg,3,83,ITC,loss,15,left,10,ITC_choice,1089,j,0,0,83,408596,1778483
3,18,female,Belg,3,83,ITC,loss,15,left,10,ITC_collect,123,k,0,0,83,408468,1778611
3,18,female,Belg,3,83,ITC,loss,15,left,10,ITC_outcome,0,undefined,0,0,93,407460,1779619
3,18,female,Belg,3,84,guess,loss,30,left,1,guess_start,366,space,0,0,93,407089,1779990
3,18,female,Belg,3,84,guess,loss,30,left,1,guess_choice,770,f,0,0,93,406315,1780764
3,18,female,Belg,3,84,guess,loss,30,left,1,guess_outcome,0,undefined,0,0,78,404755,1782324
3,18,female,Belg,3,84,ITC,loss,30,left,1,ITC_start,382,space,0,0,78,404370,1782709
3,18,female,Belg,3,84,ITC,loss,30,left,1,ITC_choice,826,j,0,0,78,403541,1783538
3,18,female,Belg,3,84,ITC,loss,30,left,1,ITC_wait,0,undefined,0,0,78,403537,1783542
3,18,female,Belg,3,84,ITC,loss,30,left,1,ITC_collect,119,k,0,0,78,403416,1783663
3,18,female,Belg,3,84,ITC,loss,30,left,1,ITC_outcome,0,undefined,0,0,79,402412,1784667
3,18,female,Belg,3,85,guess,win,30,right,6,guess_start,497,space,0,0,79,401912,1785167
3,18,female,Belg,3,85,guess,win,30,right,6,guess_choice,676,f,0,0,79,401231,1785848
3,18,female,Belg,3,85,guess,win,30,right,6,guess_outcome,0,undefined,0,0,99,399675,1787404
3,18,female,Belg,3,85,ITC,win,30,right,6,ITC_start,612,space,0,0,99,399060,1788019
3,18,female,Belg,3,85,ITC,win,30,right,6,ITC_choice,1204,f,0,0,99,397854,1789225
3,18,female,Belg,3,85,ITC,win,30,right,6,ITC_wait,0,undefined,0,0,99,397850,1789229
3,18,female,Belg,3,85,ITC,win,30,right,6,ITC_collect,126,k,0,0,99,397723,1789356
3,18,female,Belg,3,85,ITC,win,30,right,6,ITC_outcome,0,undefined,0,0,105,396717,1790362
3,18,female,Belg,3,86,guess,win,15,left,11,guess_start,398,space,0,0,105,396316,1790763
3,18,female,Belg,3,86,guess,win,15,left,11,guess_choice,770,j,0,0,105,395541,1791538
3,18,female,Belg,3,86,guess,win,15,left,11,guess_outcome,0,undefined,0,0,125,393985,1793094
3,18,female,Belg,3,86,ITC,win,15,left,11,ITC_start,443,space,0,0,125,393540,1793539
3,18,female,Belg,3,86,ITC,win,15,left,11,ITC_choice,2575,j,0,0,125,390962,1796117
3,18,female,Belg,3,86,ITC,win,15,left,11,ITC_wait,0,undefined,0,0,125,390958,1796121
3,18,female,Belg,3,86,ITC,win,15,left,11,ITC_collect,86,k,0,0,125,390870,1796209
3,18,female,Belg,3,86,ITC,win,15,left,11,ITC_outcome,0,undefined,0,0,136,389862,1797217
3,18,female,Belg,3,87,guess,neutral,5,right,10,guess_start,373,space,0,0,136,389486,1797593
3,18,female,Belg,3,87,guess,neutral,5,right,10,guess_choice,554,j,0,0,136,388928,1798151
3,18,female,Belg,3,87,guess,neutral,5,right,10,guess_outcome,0,undefined,0,0,136,387372,1799707
3,18,female,Belg,3,87,ITC,neutral,5,right,10,ITC_start,746,space,0,0,136,386623,1800456
3,18,female,Belg,3,87,ITC,neutral,5,right,10,ITC_choice,1968,j,0,0,136,384653,1802426
3,18,female,Belg,3,87,ITC,neutral,5,right,10,ITC_wait,0,undefined,0,0,136,379646,1807433
3,18,female,Belg,3,87,ITC,neutral,5,right,10,ITC_collect,320,k,0,0,136,379323,1807756
3,18,female,Belg,3,87,ITC,neutral,5,right,10,ITC_outcome,0,undefined,0,0,156,378319,1808760
3,18,female,Belg,3,88,guess,neutral,5,left,16,guess_start,247,space,0,0,156,378068,1809011
3,18,female,Belg,3,88,guess,neutral,5,left,16,guess_choice,519,j,0,0,156,377546,1809533
3,18,female,Belg,3,88,guess,neutral,5,left,16,guess_outcome,0,undefined,0,0,156,375990,1811089
3,18,female,Belg,3,88,ITC,neutral,5,left,16,ITC_start,828,space,0,0,156,375159,1811920
3,18,female,Belg,3,88,ITC,neutral,5,left,16,ITC_choice,2141,f,0,0,156,373015,1814064
3,18,female,Belg,3,88,ITC,neutral,5,left,16,ITC_wait,0,undefined,0,0,156,368009,1819070
3,18,female,Belg,3,88,ITC,neutral,5,left,16,ITC_collect,340,k,0,0,156,367666,1819413
3,18,female,Belg,3,88,ITC,neutral,5,left,16,ITC_outcome,0,undefined,0,0,176,366658,1820421
3,18,female,Belg,3,89,guess,win,15,left,6,guess_start,865,space,0,0,176,365789,1821290
3,18,female,Belg,3,89,guess,win,15,left,6,guess_choice,783,j,0,0,176,365002,1822077
3,18,female,Belg,3,89,guess,win,15,left,6,guess_outcome,0,undefined,0,0,196,363444,1823635
3,18,female,Belg,3,89,ITC,win,15,left,6,ITC_start,895,space,0,0,196,362546,1824533
3,18,female,Belg,3,89,ITC,win,15,left,6,ITC_choice,1986,j,0,0,196,360558,1826521
3,18,female,Belg,3,89,ITC,win,15,left,6,ITC_wait,0,undefined,0,0,196,360555,1826524
3,18,female,Belg,3,89,ITC,win,15,left,6,ITC_collect,151,k,0,0,196,360402,1826677
3,18,female,Belg,3,89,ITC,win,15,left,6,ITC_outcome,0,undefined,0,0,202,359394,1827685
3,18,female,Belg,3,90,guess,loss,5,right,12,guess_start,83,space,0,0,202,359308,1827771
3,18,female,Belg,3,90,guess,loss,5,right,12,guess_choice,684,f,0,0,202,358619,1828460
3,18,female,Belg,3,90,guess,loss,5,right,12,guess_outcome,0,undefined,0,0,187,357063,1830016
3,18,female,Belg,3,90,ITC,loss,5,right,12,ITC_start,388,space,0,0,187,356672,1830407
3,18,female,Belg,3,90,ITC,loss,5,right,12,ITC_choice,942,f,0,0,187,355728,1831351
3,18,female,Belg,3,90,ITC,loss,5,right,12,ITC_wait,0,undefined,0,0,187,355723,1831356
3,18,female,Belg,3,90,ITC,loss,5,right,12,ITC_collect,167,k,0,0,187,355554,1831525
3,18,female,Belg,3,90,ITC,loss,5,right,12,ITC_outcome,0,undefined,0,0,199,354546,1832533
3,18,female,Belg,3,91,guess,neutral,30,right,6,guess_start,322,space,0,0,199,354220,1832859
3,18,female,Belg,3,91,guess,neutral,30,right,6,guess_choice,564,j,0,0,199,353651,1833428
3,18,female,Belg,3,91,guess,neutral,30,right,6,guess_outcome,0,undefined,0,0,199,352095,1834984
3,18,female,Belg,3,91,ITC,neutral,30,right,6,ITC_start,268,space,0,0,199,351824,1835255
3,18,female,Belg,3,91,ITC,neutral,30,right,6,ITC_wait,0,undefined,0,0,199,350878,1836201
3,18,female,Belg,3,91,ITC,neutral,30,right,6,ITC_choice,939,f,0,0,199,350882,1836197
3,18,female,Belg,3,91,ITC,neutral,30,right,6,ITC_collect,86,k,0,0,199,350790,1836289
3,18,female,Belg,3,91,ITC,neutral,30,right,6,ITC_outcome,0,undefined,0,0,205,349784,1837295
3,18,female,Belg,3,92,guess,neutral,15,left,11,guess_start,505,space,0,0,205,349276,1837803
3,18,female,Belg,3,92,guess,neutral,15,left,11,guess_choice,587,j,0,0,205,348685,1838394
3,18,female,Belg,3,92,guess,neutral,15,left,11,guess_outcome,0,undefined,0,0,205,347130,1839949
3,18,female,Belg,3,92,ITC,neutral,15,left,11,ITC_start,326,space,0,0,205,346800,1840279
3,18,female,Belg,3,92,ITC,neutral,15,left,11,ITC_choice,751,j,0,0,205,346047,1841032
3,18,female,Belg,3,92,ITC,neutral,15,left,11,ITC_wait,0,undefined,0,0,205,346044,1841035
3,18,female,Belg,3,92,ITC,neutral,15,left,11,ITC_collect,111,k,0,0,205,345931,1841148
3,18,female,Belg,3,92,ITC,neutral,15,left,11,ITC_outcome,0,undefined,0,0,216,344924,1842155
3,18,female,Belg,3,93,guess,win,15,left,8,guess_start,378,space,0,0,216,344542,1842537
3,18,female,Belg,3,93,guess,win,15,left,8,guess_choice,820,f,0,0,216,343717,1843362
3,18,female,Belg,3,93,guess,win,15,left,8,guess_outcome,0,undefined,0,0,236,342162,1844917
3,18,female,Belg,3,93,ITC,win,15,left,8,ITC_start,390,space,0,0,236,341769,1845310
3,18,female,Belg,3,93,ITC,win,15,left,8,ITC_choice,813,j,0,0,236,340953,1846126
3,18,female,Belg,3,93,ITC,win,15,left,8,ITC_wait,0,undefined,0,0,236,340949,1846130
3,18,female,Belg,3,93,ITC,win,15,left,8,ITC_collect,106,k,0,0,236,340842,1846237
3,18,female,Belg,3,93,ITC,win,15,left,8,ITC_outcome,0,undefined,0,0,244,339837,1847242
3,18,female,Belg,3,94,guess,win,30,right,8,guess_start,300,space,0,0,244,339534,1847545
3,18,female,Belg,3,94,guess,win,30,right,8,guess_choice,839,f,0,0,244,338690,1848389
3,18,female,Belg,3,94,guess,win,30,right,8,guess_outcome,0,undefined,0,0,264,337135,1849944
3,18,female,Belg,3,94,ITC,win,30,right,8,ITC_start,604,space,0,0,264,336529,1850550
3,18,female,Belg,3,94,ITC,win,30,right,8,ITC_choice,1042,f,0,0,264,335484,1851595
3,18,female,Belg,3,94,ITC,win,30,right,8,ITC_wait,0,undefined,0,0,264,335480,1851599
3,18,female,Belg,3,94,ITC,win,30,right,8,ITC_collect,102,k,0,0,264,335377,1851702
3,18,female,Belg,3,94,ITC,win,30,right,8,ITC_outcome,0,undefined,0,0,272,334371,1852708
3,18,female,Belg,3,95,guess,neutral,15,left,5,guess_start,348,space,0,0,272,334020,1853059
3,18,female,Belg,3,95,guess,neutral,15,left,5,guess_choice,652,f,0,0,272,333363,1853716
3,18,female,Belg,3,95,guess,neutral,15,left,5,guess_outcome,0,undefined,0,0,272,331803,1855276
3,18,female,Belg,3,95,ITC,neutral,15,left,5,ITC_start,332,space,0,0,272,331468,1855611
3,18,female,Belg,3,95,ITC,neutral,15,left,5,ITC_choice,812,j,0,0,272,330654,1856425
3,18,female,Belg,3,95,ITC,neutral,15,left,5,ITC_wait,0,undefined,0,0,272,330650,1856429
3,18,female,Belg,3,95,ITC,neutral,15,left,5,ITC_collect,122,k,0,0,272,330526,1856553
3,18,female,Belg,3,95,ITC,neutral,15,left,5,ITC_outcome,0,undefined,0,0,277,329521,1857558
3,18,female,Belg,3,96,guess,neutral,15,left,12,guess_start,206,space,0,0,277,329312,1857767
3,18,female,Belg,3,96,guess,neutral,15,left,12,guess_choice,573,j,0,0,277,328734,1858345
3,18,female,Belg,3,96,guess,neutral,15,left,12,guess_outcome,0,undefined,0,0,277,327177,1859902
3,18,female,Belg,3,96,ITC,neutral,15,left,12,ITC_start,386,space,0,0,277,326788,1860291
3,18,female,Belg,3,96,ITC,neutral,15,left,12,ITC_choice,819,j,0,0,277,325966,1861113
3,18,female,Belg,3,96,ITC,neutral,15,left,12,ITC_wait,0,undefined,0,0,277,325962,1861117
3,18,female,Belg,3,96,ITC,neutral,15,left,12,ITC_collect,138,k,0,0,277,325822,1861257
3,18,female,Belg,3,96,ITC,neutral,15,left,12,ITC_outcome,0,undefined,0,0,289,324814,1862265
3,18,female,Belg,3,97,guess,loss,15,left,12,guess_start,325,space,0,0,289,324485,1862594
3,18,female,Belg,3,97,guess,loss,15,left,12,guess_choice,626,f,0,0,289,323854,1863225
3,18,female,Belg,3,97,guess,loss,15,left,12,guess_outcome,0,undefined,0,0,274,322296,1864783
3,18,female,Belg,3,97,ITC,loss,15,left,12,ITC_start,318,space,0,0,274,321974,1865105
3,18,female,Belg,3,97,ITC,loss,15,left,12,ITC_wait,0,undefined,0,0,274,321360,1865719
3,18,female,Belg,3,97,ITC,loss,15,left,12,ITC_choice,607,j,0,0,274,321364,1865715
3,18,female,Belg,3,97,ITC,loss,15,left,12,ITC_collect,98,k,0,0,274,321260,1865819
3,18,female,Belg,3,97,ITC,loss,15,left,12,ITC_outcome,0,undefined,0,0,286,320251,1866828
3,18,female,Belg,3,98,guess,win,30,left,7,guess_start,347,space,0,0,286,319901,1867178
3,18,female,Belg,3,98,guess,win,30,left,7,guess_choice,870,j,0,0,286,319026,1868053
3,18,female,Belg,3,98,guess,win,30,left,7,guess_outcome,0,undefined,0,0,306,317469,1869610
3,18,female,Belg,3,98,ITC,win,30,left,7,ITC_start,468,space,0,0,306,316998,1870081
3,18,female,Belg,3,98,ITC,win,30,left,7,ITC_choice,798,j,0,0,306,316197,1870882
3,18,female,Belg,3,98,ITC,win,30,left,7,ITC_wait,0,undefined,0,0,306,316193,1870886
3,18,female,Belg,3,98,ITC,win,30,left,7,ITC_collect,70,k,0,0,306,316121,1870958
3,18,female,Belg,3,98,ITC,win,30,left,7,ITC_outcome,0,undefined,0,0,313,315117,1871962
3,18,female,Belg,3,99,guess,neutral,5,left,15,guess_start,307,space,0,0,313,314807,1872272
3,18,female,Belg,3,99,guess,neutral,5,left,15,guess_choice,579,f,0,0,313,314223,1872856
3,18,female,Belg,3,99,guess,neutral,5,left,15,guess_outcome,0,undefined,0,0,313,312668,1874411
3,18,female,Belg,3,99,ITC,neutral,5,left,15,ITC_start,85,space,0,0,313,312581,1874498
3,18,female,Belg,3,99,ITC,neutral,5,left,15,ITC_choice,1999,f,0,0,313,310579,1876500
3,18,female,Belg,3,99,ITC,neutral,5,left,15,ITC_wait,0,undefined,0,0,313,305576,1881503
3,18,female,Belg,3,99,ITC,neutral,5,left,15,ITC_collect,316,k,0,0,313,305257,1881822
3,18,female,Belg,3,99,ITC,neutral,5,left,15,ITC_outcome,0,undefined,0,0,333,304250,1882829
3,18,female,Belg,3,100,guess,win,30,right,5,guess_start,499,space,0,0,333,303747,1883332
3,18,female,Belg,3,100,guess,win,30,right,5,guess_choice,643,j,0,0,333,303099,1883980
3,18,female,Belg,3,100,guess,win,30,right,5,guess_outcome,0,undefined,0,0,353,301540,1885539
3,18,female,Belg,3,100,ITC,win,30,right,5,ITC_start,333,space,0,0,353,301204,1885875
3,18,female,Belg,3,100,ITC,win,30,right,5,ITC_wait,0,undefined,0,0,353,300147,1886932
3,18,female,Belg,3,100,ITC,win,30,right,5,ITC_choice,1050,f,0,0,353,300150,1886929
3,18,female,Belg,3,100,ITC,win,30,right,5,ITC_collect,75,k,0,0,353,300071,1887008
3,18,female,Belg,3,100,ITC,win,30,right,5,ITC_outcome,0,undefined,0,0,358,299063,1888016
3,18,female,Belg,3,101,guess,neutral,5,right,13,guess_start,555,space,0,0,358,298504,1888575
3,18,female,Belg,3,101,guess,neutral,5,right,13,guess_choice,566,f,0,0,358,297933,1889146
3,18,female,Belg,3,101,guess,neutral,5,right,13,guess_outcome,0,undefined,0,0,358,296377,1890702
3,18,female,Belg,3,101,ITC,neutral,5,right,13,ITC_start,339,space,0,0,358,296035,1891044
3,18,female,Belg,3,101,ITC,neutral,5,right,13,ITC_choice,1370,j,0,0,358,294662,1892417
3,18,female,Belg,3,101,ITC,neutral,5,right,13,ITC_wait,0,undefined,0,0,358,289656,1897423
3,18,female,Belg,3,101,ITC,neutral,5,right,13,ITC_collect,365,k,0,0,358,289288,1897791
3,18,female,Belg,3,101,ITC,neutral,5,right,13,ITC_outcome,0,undefined,0,0,378,288280,1898799
3,18,female,Belg,3,102,guess,loss,30,left,3,guess_start,595,space,0,0,378,287681,1899398
3,18,female,Belg,3,102,guess,loss,30,left,3,guess_choice,565,j,0,0,378,287112,1899967
3,18,female,Belg,3,102,guess,loss,30,left,3,guess_outcome,0,undefined,0,0,363,285554,1901525
3,18,female,Belg,3,102,ITC,loss,30,left,3,ITC_start,364,space,0,0,363,285187,1901892
3,18,female,Belg,3,102,ITC,loss,30,left,3,ITC_choice,755,j,0,0,363,284429,1902650
3,18,female,Belg,3,102,ITC,loss,30,left,3,ITC_wait,0,undefined,0,0,363,284424,1902655
3,18,female,Belg,3,102,ITC,loss,30,left,3,ITC_collect,109,k,0,0,363,284314,1902765
3,18,female,Belg,3,102,ITC,loss,30,left,3,ITC_outcome,0,undefined,0,0,366,283305,1903774
3,18,female,Belg,3,103,guess,loss,5,left,15,guess_start,191,space,0,0,366,283111,1903968
3,18,female,Belg,3,103,guess,loss,5,left,15,guess_choice,734,f,0,0,366,282372,1904707
3,18,female,Belg,3,103,guess,loss,5,left,15,guess_outcome,0,undefined,0,0,351,280813,1906266
3,18,female,Belg,3,103,ITC,loss,5,left,15,ITC_start,300,space,0,0,351,280510,1906569
3,18,female,Belg,3,103,ITC,loss,5,left,15,ITC_choice,688,j,0,0,351,279819,1907260
3,18,female,Belg,3,103,ITC,loss,5,left,15,ITC_wait,0,undefined,0,0,351,279815,1907264
3,18,female,Belg,3,103,ITC,loss,5,left,15,ITC_collect,90,k,0,0,351,279724,1907355
3,18,female,Belg,3,103,ITC,loss,5,left,15,ITC_outcome,0,undefined,0,0,366,278720,1908359
3,18,female,Belg,3,104,guess,win,15,right,10,guess_start,362,space,0,0,366,278355,1908724
3,18,female,Belg,3,104,guess,win,15,right,10,guess_choice,560,j,0,0,366,277791,1909288
3,18,female,Belg,3,104,guess,win,15,right,10,guess_outcome,0,undefined,0,0,386,276232,1910847
3,18,female,Belg,3,104,ITC,win,15,right,10,ITC_start,383,space,0,0,386,275846,1911233
3,18,female,Belg,3,104,ITC,win,15,right,10,ITC_choice,1142,f,0,0,386,274702,1912377
3,18,female,Belg,3,104,ITC,win,15,right,10,ITC_wait,0,undefined,0,0,386,274698,1912381
3,18,female,Belg,3,104,ITC,win,15,right,10,ITC_collect,136,k,0,0,386,274559,1912520
3,18,female,Belg,3,104,ITC,win,15,right,10,ITC_outcome,0,undefined,0,0,396,273555,1913524
3,18,female,Belg,3,105,guess,win,15,left,9,guess_start,346,space,0,0,396,273206,1913873
3,18,female,Belg,3,105,guess,win,15,left,9,guess_choice,520,j,0,0,396,272681,1914398
3,18,female,Belg,3,105,guess,win,15,left,9,guess_outcome,0,undefined,0,0,416,271125,1915954
3,18,female,Belg,3,105,ITC,win,15,left,9,ITC_start,373,space,0,0,416,270749,1916330
3,18,female,Belg,3,105,ITC,win,15,left,9,ITC_wait,0,undefined,0,0,416,269908,1917171
3,18,female,Belg,3,105,ITC,win,15,left,9,ITC_choice,833,j,0,0,416,269913,1917166
3,18,female,Belg,3,105,ITC,win,15,left,9,ITC_collect,61,k,0,0,416,269845,1917234
3,18,female,Belg,3,105,ITC,win,15,left,9,ITC_outcome,0,undefined,0,0,425,268840,1918239
3,18,female,Belg,3,106,guess,win,5,right,14,guess_start,433,space,0,0,425,268403,1918676
3,18,female,Belg,3,106,guess,win,5,right,14,guess_choice,721,f,0,0,425,267677,1919402
3,18,female,Belg,3,106,guess,win,5,right,14,guess_outcome,0,undefined,0,0,445,266122,1920957
3,18,female,Belg,3,106,ITC,win,5,right,14,ITC_start,486,space,0,0,445,265633,1921446
3,18,female,Belg,3,106,ITC,win,5,right,14,ITC_choice,1068,f,0,0,445,264562,1922517
3,18,female,Belg,3,106,ITC,win,5,right,14,ITC_wait,0,undefined,0,0,445,264558,1922521
3,18,female,Belg,3,106,ITC,win,5,right,14,ITC_collect,118,k,0,0,445,264438,1922641
3,18,female,Belg,3,106,ITC,win,5,right,14,ITC_outcome,0,undefined,0,0,459,263433,1923646
3,18,female,Belg,3,107,guess,neutral,30,left,3,guess_start,481,space,0,0,459,262948,1924131
3,18,female,Belg,3,107,guess,neutral,30,left,3,guess_choice,804,f,0,0,459,262140,1924939
3,18,female,Belg,3,107,guess,neutral,30,left,3,guess_outcome,0,undefined,0,0,459,260580,1926499
3,18,female,Belg,3,107,ITC,neutral,30,left,3,ITC_start,53,space,0,0,459,260524,1926555
3,18,female,Belg,3,107,ITC,neutral,30,left,3,ITC_choice,1124,j,0,0,459,259397,1927682
3,18,female,Belg,3,107,ITC,neutral,30,left,3,ITC_wait,0,undefined,0,0,459,259393,1927686
3,18,female,Belg,3,107,ITC,neutral,30,left,3,ITC_collect,127,k,0,0,459,259264,1927815
3,18,female,Belg,3,107,ITC,neutral,30,left,3,ITC_outcome,0,undefined,0,0,462,258255,1928824
3,18,female,Belg,3,108,guess,loss,5,left,13,guess_start,51,space,0,0,462,258201,1928878
3,18,female,Belg,3,108,guess,loss,5,left,13,guess_choice,776,j,0,0,462,257421,1929658
3,18,female,Belg,3,108,guess,loss,5,left,13,guess_outcome,0,undefined,0,0,447,255862,1931217
3,18,female,Belg,3,108,ITC,loss,5,left,13,ITC_start,401,space,0,0,447,255458,1931621
3,18,female,Belg,3,108,ITC,loss,5,left,13,ITC_choice,748,j,0,0,447,254706,1932373
3,18,female,Belg,3,108,ITC,loss,5,left,13,ITC_wait,0,undefined,0,0,447,254702,1932377
3,18,female,Belg,3,108,ITC,loss,5,left,13,ITC_collect,110,k,0,0,447,254591,1932488
3,18,female,Belg,3,108,ITC,loss,5,left,13,ITC_outcome,0,undefined,0,0,460,253582,1933497
3,18,female,Belg,3,109,guess,neutral,30,right,2,guess_start,369,space,0,0,460,253208,1933871
3,18,female,Belg,3,109,guess,neutral,30,right,2,guess_choice,587,j,0,0,460,252616,1934463
3,18,female,Belg,3,109,guess,neutral,30,right,2,guess_outcome,0,undefined,0,0,460,251060,1936019
3,18,female,Belg,3,109,ITC,neutral,30,right,2,ITC_start,293,space,0,0,460,250764,1936315
3,18,female,Belg,3,109,ITC,neutral,30,right,2,ITC_choice,1286,f,0,0,460,249475,1937604
3,18,female,Belg,3,109,ITC,neutral,30,right,2,ITC_wait,0,undefined,0,0,460,249471,1937608
3,18,female,Belg,3,109,ITC,neutral,30,right,2,ITC_collect,51,k,0,0,460,249419,1937660
3,18,female,Belg,3,109,ITC,neutral,30,right,2,ITC_outcome,0,undefined,0,0,462,248413,1938666
3,18,female,Belg,3,110,guess,neutral,15,right,10,guess_start,351,space,0,0,462,248059,1939020
3,18,female,Belg,3,110,guess,neutral,15,right,10,guess_choice,446,f,0,0,462,247607,1939472
3,18,female,Belg,3,110,guess,neutral,15,right,10,guess_outcome,0,undefined,0,0,462,246048,1941031
3,18,female,Belg,3,110,ITC,neutral,15,right,10,ITC_start,114,space,0,0,462,245931,1941148
3,18,female,Belg,3,110,ITC,neutral,15,right,10,ITC_choice,1013,f,0,0,462,244915,1942164
3,18,female,Belg,3,110,ITC,neutral,15,right,10,ITC_wait,0,undefined,0,0,462,244911,1942168
3,18,female,Belg,3,110,ITC,neutral,15,right,10,ITC_collect,94,k,0,0,462,244815,1942264
3,18,female,Belg,3,110,ITC,neutral,15,right,10,ITC_outcome,0,undefined,0,0,472,243810,1943269
3,18,female,Belg,3,111,guess,win,5,right,12,guess_start,468,space,0,0,472,243337,1943742
3,18,female,Belg,3,111,guess,win,5,right,12,guess_choice,680,j,0,0,472,242652,1944427
3,18,female,Belg,3,111,guess,win,5,right,12,guess_outcome,0,undefined,0,0,492,241095,1945984
3,18,female,Belg,3,111,ITC,win,5,right,12,ITC_start,357,space,0,0,492,240736,1946343
3,18,female,Belg,3,111,ITC,win,5,right,12,ITC_choice,1887,j,0,0,492,238846,1948233
3,18,female,Belg,3,111,ITC,win,5,right,12,ITC_wait,0,undefined,0,0,492,233840,1953239
3,18,female,Belg,3,111,ITC,win,5,right,12,ITC_collect,382,k,0,0,492,233455,1953624
3,18,female,Belg,3,111,ITC,win,5,right,12,ITC_outcome,0,undefined,0,0,512,232447,1954632
3,18,female,Belg,3,112,guess,win,15,left,12,guess_start,481,space,0,0,512,231962,1955117
3,18,female,Belg,3,112,guess,win,15,left,12,guess_choice,613,f,0,0,512,231344,1955735
3,18,female,Belg,3,112,guess,win,15,left,12,guess_outcome,0,undefined,0,0,532,229787,1957292
3,18,female,Belg,3,112,ITC,win,15,left,12,ITC_start,348,space,0,0,532,229436,1957643
3,18,female,Belg,3,112,ITC,win,15,left,12,ITC_choice,727,j,0,0,532,228706,1958373
3,18,female,Belg,3,112,ITC,win,15,left,12,ITC_wait,0,undefined,0,0,532,228702,1958377
3,18,female,Belg,3,112,ITC,win,15,left,12,ITC_collect,95,k,0,0,532,228606,1958473
3,18,female,Belg,3,112,ITC,win,15,left,12,ITC_outcome,0,undefined,0,0,544,227598,1959481
3,18,female,Belg,3,113,guess,loss,30,left,6,guess_start,439,space,0,0,544,227156,1959923
3,18,female,Belg,3,113,guess,loss,30,left,6,guess_choice,704,j,0,0,544,226446,1960633
3,18,female,Belg,3,113,guess,loss,30,left,6,guess_outcome,0,undefined,0,0,529,224889,1962190
3,18,female,Belg,3,113,ITC,loss,30,left,6,ITC_start,326,space,0,0,529,224560,1962519
3,18,female,Belg,3,113,ITC,loss,30,left,6,ITC_choice,659,j,0,0,529,223897,1963182
3,18,female,Belg,3,113,ITC,loss,30,left,6,ITC_wait,0,undefined,0,0,529,223893,1963186
3,18,female,Belg,3,113,ITC,loss,30,left,6,ITC_collect,50,k,0,0,529,223842,1963237
3,18,female,Belg,3,113,ITC,loss,30,left,6,ITC_outcome,0,undefined,0,0,535,222834,1964245
3,18,female,Belg,3,114,guess,neutral,5,right,12,guess_start,227,space,0,0,535,222603,1964476
3,18,female,Belg,3,114,guess,neutral,5,right,12,guess_choice,519,f,0,0,535,222079,1965000
3,18,female,Belg,3,114,guess,neutral,5,right,12,guess_outcome,0,undefined,0,0,535,220519,1966560
3,18,female,Belg,3,114,ITC,neutral,5,right,12,ITC_start,378,space,0,0,535,220139,1966940
3,18,female,Belg,3,114,ITC,neutral,5,right,12,ITC_choice,913,j,0,0,535,219223,1967856
3,18,female,Belg,3,114,ITC,neutral,5,right,12,ITC_wait,0,undefined,0,0,535,214220,1972859
3,18,female,Belg,3,114,ITC,neutral,5,right,12,ITC_collect,266,k,0,0,535,213951,1973128
3,18,female,Belg,3,114,ITC,neutral,5,right,12,ITC_outcome,0,undefined,0,0,555,212945,1974134
3,18,female,Belg,3,115,guess,neutral,30,left,4,guess_start,419,space,0,0,555,212522,1974557
3,18,female,Belg,3,115,guess,neutral,30,left,4,guess_choice,488,j,0,0,555,212029,1975050
3,18,female,Belg,3,115,guess,neutral,30,left,4,guess_outcome,0,undefined,0,0,555,210473,1976606
3,18,female,Belg,3,115,ITC,neutral,30,left,4,ITC_start,288,space,0,0,555,210182,1976897
3,18,female,Belg,3,115,ITC,neutral,30,left,4,ITC_choice,607,j,0,0,555,209572,1977507
3,18,female,Belg,3,115,ITC,neutral,30,left,4,ITC_wait,0,undefined,0,0,555,209568,1977511
3,18,female,Belg,3,115,ITC,neutral,30,left,4,ITC_collect,66,k,0,0,555,209501,1977578
3,18,female,Belg,3,115,ITC,neutral,30,left,4,ITC_outcome,0,undefined,0,0,559,208493,1978586
3,18,female,Belg,3,116,guess,win,30,left,4,guess_start,371,space,0,0,559,208118,1978961
3,18,female,Belg,3,116,guess,win,30,left,4,guess_choice,704,j,0,0,559,207409,1979670
3,18,female,Belg,3,116,guess,win,30,left,4,guess_outcome,0,undefined,0,0,579,205850,1981229
3,18,female,Belg,3,116,ITC,win,30,left,4,ITC_start,282,space,0,0,579,205565,1981514
3,18,female,Belg,3,116,ITC,win,30,left,4,ITC_choice,597,j,0,0,579,204966,1982113
3,18,female,Belg,3,116,ITC,win,30,left,4,ITC_wait,0,undefined,0,0,579,204960,1982119
3,18,female,Belg,3,116,ITC,win,30,left,4,ITC_collect,867,k,0,0,579,204091,1982988
3,18,female,Belg,3,116,ITC,win,30,left,4,ITC_outcome,0,undefined,0,0,583,203086,1983993
3,18,female,Belg,3,117,guess,neutral,15,left,6,guess_start,347,space,0,0,583,202736,1984343
3,18,female,Belg,3,117,guess,neutral,15,left,6,guess_choice,487,f,0,0,583,202244,1984835
3,18,female,Belg,3,117,guess,neutral,15,left,6,guess_outcome,0,undefined,0,0,583,200687,1986392
3,18,female,Belg,3,117,ITC,neutral,15,left,6,ITC_start,226,space,0,0,583,200458,1986621
3,18,female,Belg,3,117,ITC,neutral,15,left,6,ITC_choice,623,j,0,0,583,199832,1987247
3,18,female,Belg,3,117,ITC,neutral,15,left,6,ITC_wait,0,undefined,0,0,583,199828,1987251
3,18,female,Belg,3,117,ITC,neutral,15,left,6,ITC_collect,56,k,0,0,583,199771,1987308
3,18,female,Belg,3,117,ITC,neutral,15,left,6,ITC_outcome,0,undefined,0,0,589,198766,1988313
3,18,female,Belg,3,118,guess,neutral,5,left,9,guess_start,268,space,0,0,589,198495,1988584
3,18,female,Belg,3,118,guess,neutral,5,left,9,guess_choice,552,f,0,0,589,197938,1989141
3,18,female,Belg,3,118,guess,neutral,5,left,9,guess_outcome,0,undefined,0,0,589,196382,1990697
3,18,female,Belg,3,118,ITC,neutral,5,left,9,ITC_start,241,space,0,0,589,196138,1990941
3,18,female,Belg,3,118,ITC,neutral,5,left,9,ITC_wait,0,undefined,0,0,589,195492,1991587
3,18,female,Belg,3,118,ITC,neutral,5,left,9,ITC_choice,638,j,0,0,589,195496,1991583
3,18,female,Belg,3,118,ITC,neutral,5,left,9,ITC_collect,66,k,0,0,589,195424,1991655
3,18,female,Belg,3,118,ITC,neutral,5,left,9,ITC_outcome,0,undefined,0,0,598,194420,1992659
3,18,female,Belg,3,119,guess,neutral,5,right,14,guess_start,367,space,0,0,598,194050,1993029
3,18,female,Belg,3,119,guess,neutral,5,right,14,guess_choice,512,f,0,0,598,193533,1993546
3,18,female,Belg,3,119,guess,neutral,5,right,14,guess_outcome,0,undefined,0,0,598,191978,1995101
3,18,female,Belg,3,119,ITC,neutral,5,right,14,ITC_start,342,space,0,0,598,191633,1995446
3,18,female,Belg,3,119,ITC,neutral,5,right,14,ITC_choice,1265,j,0,0,598,190366,1996713
3,18,female,Belg,3,119,ITC,neutral,5,right,14,ITC_wait,0,undefined,0,0,598,185362,2001717
3,18,female,Belg,3,119,ITC,neutral,5,right,14,ITC_collect,304,k,0,0,598,185055,2002024
3,18,female,Belg,3,119,ITC,neutral,5,right,14,ITC_outcome,0,undefined,0,0,618,184048,2003031
3,18,female,Belg,3,120,guess,loss,5,left,14,guess_start,348,space,0,0,618,183697,2003382
3,18,female,Belg,3,120,guess,loss,5,left,14,guess_choice,648,j,0,0,618,183045,2004034
3,18,female,Belg,3,120,guess,loss,5,left,14,guess_outcome,0,undefined,0,0,603,181490,2005589
3,18,female,Belg,3,120,ITC,loss,5,left,14,ITC_start,300,space,0,0,603,181187,2005892
3,18,female,Belg,3,120,ITC,loss,5,left,14,ITC_choice,690,j,0,0,603,180494,2006585
3,18,female,Belg,3,120,ITC,loss,5,left,14,ITC_wait,0,undefined,0,0,603,180489,2006590
3,18,female,Belg,3,120,ITC,loss,5,left,14,ITC_collect,45,k,0,0,603,180443,2006636
3,18,female,Belg,3,120,ITC,loss,5,left,14,ITC_outcome,0,undefined,0,0,617,179439,2007640
3,18,female,Belg,3,121,guess,win,5,left,16,guess_start,425,space,0,0,617,179011,2008068
3,18,female,Belg,3,121,guess,win,5,left,16,guess_choice,816,f,0,0,617,178191,2008888
3,18,female,Belg,3,121,guess,win,5,left,16,guess_outcome,0,undefined,0,0,637,176634,2010445
3,18,female,Belg,3,121,ITC,win,5,left,16,ITC_start,271,space,0,0,637,176360,2010719
3,18,female,Belg,3,121,ITC,win,5,left,16,ITC_choice,833,j,0,0,637,175524,2011555
3,18,female,Belg,3,121,ITC,win,5,left,16,ITC_wait,0,undefined,0,0,637,175520,2011559
3,18,female,Belg,3,121,ITC,win,5,left,16,ITC_collect,106,k,0,0,637,175413,2011666
3,18,female,Belg,3,121,ITC,win,5,left,16,ITC_outcome,0,undefined,0,0,653,174408,2012671
3,18,female,Belg,3,122,guess,win,30,right,3,guess_start,577,space,0,0,653,173827,2013252
3,18,female,Belg,3,122,guess,win,30,right,3,guess_choice,801,j,0,0,653,173021,2014058
3,18,female,Belg,3,122,guess,win,30,right,3,guess_outcome,0,undefined,0,0,673,171463,2015616
3,18,female,Belg,3,122,ITC,win,30,right,3,ITC_start,327,space,0,0,673,171134,2015945
3,18,female,Belg,3,122,ITC,win,30,right,3,ITC_choice,697,f,0,0,673,170434,2016645
3,18,female,Belg,3,122,ITC,win,30,right,3,ITC_wait,0,undefined,0,0,673,170430,2016649
3,18,female,Belg,3,122,ITC,win,30,right,3,ITC_collect,504,k,0,0,673,169924,2017155
3,18,female,Belg,3,122,ITC,win,30,right,3,ITC_outcome,0,undefined,0,0,676,168920,2018159
3,18,female,Belg,3,123,guess,win,5,left,13,guess_start,369,space,0,0,676,168548,2018531
3,18,female,Belg,3,123,guess,win,5,left,13,guess_choice,575,j,0,0,676,167968,2019111
3,18,female,Belg,3,123,guess,win,5,left,13,guess_outcome,0,undefined,0,0,696,166411,2020668
3,18,female,Belg,3,123,ITC,win,5,left,13,ITC_start,487,space,0,0,696,165921,2021158
3,18,female,Belg,3,123,ITC,win,5,left,13,ITC_choice,746,j,0,0,696,165172,2021907
3,18,female,Belg,3,123,ITC,win,5,left,13,ITC_wait,0,undefined,0,0,696,165168,2021911
3,18,female,Belg,3,123,ITC,win,5,left,13,ITC_collect,95,k,0,0,696,165071,2022008
3,18,female,Belg,3,123,ITC,win,5,left,13,ITC_outcome,0,undefined,0,0,709,164064,2023015
3,18,female,Belg,3,124,guess,loss,15,right,5,guess_start,307,space,0,0,709,163753,2023326
3,18,female,Belg,3,124,guess,loss,15,right,5,guess_choice,641,j,0,0,709,163107,2023972
3,18,female,Belg,3,124,guess,loss,15,right,5,guess_outcome,0,undefined,0,0,694,161552,2025527
3,18,female,Belg,3,124,ITC,loss,15,right,5,ITC_start,261,space,0,0,694,161288,2025791
3,18,female,Belg,3,124,ITC,loss,15,right,5,ITC_choice,1159,f,0,0,694,160125,2026954
3,18,female,Belg,3,124,ITC,loss,15,right,5,ITC_wait,0,undefined,0,0,694,160120,2026959
3,18,female,Belg,3,124,ITC,loss,15,right,5,ITC_collect,137,k,0,0,694,159982,2027097
3,18,female,Belg,3,124,ITC,loss,15,right,5,ITC_outcome,0,undefined,0,0,699,158978,2028101
3,18,female,Belg,3,125,guess,loss,30,right,4,guess_start,297,space,0,0,699,158677,2028402
3,18,female,Belg,3,125,guess,loss,30,right,4,guess_choice,889,f,0,0,699,157783,2029296
3,18,female,Belg,3,125,guess,loss,30,right,4,guess_outcome,0,undefined,0,0,684,156225,2030854
3,18,female,Belg,3,125,ITC,loss,30,right,4,ITC_start,357,space,0,0,684,155865,2031214
3,18,female,Belg,3,125,ITC,loss,30,right,4,ITC_choice,1251,j,0,0,684,154612,2032467
3,18,female,Belg,3,125,ITC,loss,30,right,4,ITC_wait,0,undefined,0,0,684,124605,2062474
3,18,female,Belg,3,125,ITC,loss,30,right,4,ITC_collect,378,k,0,0,684,124223,2062856
3,18,female,Belg,3,125,ITC,loss,30,right,4,ITC_outcome,0,undefined,0,0,704,123219,2063860
3,18,female,Belg,3,126,guess,win,30,left,1,guess_start,460,space,0,0,704,122755,2064324
3,18,female,Belg,3,126,guess,win,30,left,1,guess_choice,617,j,0,0,704,122133,2064946
3,18,female,Belg,3,126,guess,win,30,left,1,guess_outcome,0,undefined,0,0,724,120574,2066505
3,18,female,Belg,3,126,ITC,win,30,left,1,ITC_start,441,space,0,0,724,120129,2066950
3,18,female,Belg,3,126,ITC,win,30,left,1,ITC_choice,892,j,0,0,724,119233,2067846
3,18,female,Belg,3,126,ITC,win,30,left,1,ITC_wait,0,undefined,0,0,724,119229,2067850
3,18,female,Belg,3,126,ITC,win,30,left,1,ITC_collect,134,k,0,0,724,119094,2067985
3,18,female,Belg,3,126,ITC,win,30,left,1,ITC_outcome,0,undefined,0,0,725,118090,2068989
3,18,female,Belg,3,127,guess,win,5,right,10,guess_start,272,space,0,0,725,117815,2069264
3,18,female,Belg,3,127,guess,win,5,right,10,guess_choice,621,j,0,0,725,117188,2069891
3,18,female,Belg,3,127,guess,win,5,right,10,guess_outcome,0,undefined,0,0,745,115631,2071448
3,18,female,Belg,3,127,ITC,win,5,right,10,ITC_start,354,space,0,0,745,115274,2071805
3,18,female,Belg,3,127,ITC,win,5,right,10,ITC_choice,1129,j,0,0,745,114142,2072937
3,18,female,Belg,3,127,ITC,win,5,right,10,ITC_wait,0,undefined,0,0,745,109138,2077941
3,18,female,Belg,3,127,ITC,win,5,right,10,ITC_collect,841,k,0,0,745,108293,2078786
3,18,female,Belg,3,127,ITC,win,5,right,10,ITC_outcome,0,undefined,0,0,765,107286,2079793
3,18,female,Belg,3,128,guess,loss,5,left,9,guess_start,295,space,0,0,765,106987,2080092
3,18,female,Belg,3,128,guess,loss,5,left,9,guess_choice,571,j,0,0,765,106411,2080668
3,18,female,Belg,3,128,guess,loss,5,left,9,guess_outcome,0,undefined,0,0,750,104852,2082227
3,18,female,Belg,3,128,ITC,loss,5,left,9,ITC_start,342,space,0,0,750,104506,2082573
3,18,female,Belg,3,128,ITC,loss,5,left,9,ITC_wait,0,undefined,0,0,750,103749,2083330
3,18,female,Belg,3,128,ITC,loss,5,left,9,ITC_choice,750,j,0,0,750,103753,2083326
3,18,female,Belg,3,128,ITC,loss,5,left,9,ITC_collect,85,k,0,0,750,103662,2083417
3,18,female,Belg,3,128,ITC,loss,5,left,9,ITC_outcome,0,undefined,0,0,759,102658,2084421
3,18,female,Belg,3,129,guess,loss,30,left,7,guess_start,303,space,0,0,759,102351,2084728
3,18,female,Belg,3,129,guess,loss,30,left,7,guess_choice,727,f,0,0,759,101619,2085460
3,18,female,Belg,3,129,guess,loss,30,left,7,guess_outcome,0,undefined,0,0,744,100059,2087020
3,18,female,Belg,3,129,ITC,loss,30,left,7,ITC_start,339,space,0,0,744,99717,2087362
3,18,female,Belg,3,129,ITC,loss,30,left,7,ITC_choice,691,j,0,0,744,99023,2088056
3,18,female,Belg,3,129,ITC,loss,30,left,7,ITC_wait,0,undefined,0,0,744,99019,2088060
3,18,female,Belg,3,129,ITC,loss,30,left,7,ITC_collect,102,k,0,0,744,98915,2088164
3,18,female,Belg,3,129,ITC,loss,30,left,7,ITC_outcome,0,undefined,0,0,751,97908,2089171
3,18,female,Belg,3,130,guess,loss,30,left,8,guess_start,397,space,0,0,751,97506,2089573
3,18,female,Belg,3,130,guess,loss,30,left,8,guess_choice,556,j,0,0,751,96946,2090133
3,18,female,Belg,3,130,guess,loss,30,left,8,guess_outcome,0,undefined,0,0,736,95385,2091694
3,18,female,Belg,3,130,ITC,loss,30,left,8,ITC_start,368,space,0,0,736,95013,2092066
3,18,female,Belg,3,130,ITC,loss,30,left,8,ITC_choice,699,j,0,0,736,94312,2092767
3,18,female,Belg,3,130,ITC,loss,30,left,8,ITC_wait,0,undefined,0,0,736,94307,2092772
3,18,female,Belg,3,130,ITC,loss,30,left,8,ITC_collect,52,k,0,0,736,94254,2092825
3,18,female,Belg,3,130,ITC,loss,30,left,8,ITC_outcome,0,undefined,0,0,744,93250,2093829
3,18,female,Belg,3,131,guess,win,15,left,7,guess_start,442,space,0,0,744,92805,2094274
3,18,female,Belg,3,131,guess,win,15,left,7,guess_choice,802,j,0,0,744,91998,2095081
3,18,female,Belg,3,131,guess,win,15,left,7,guess_outcome,0,undefined,0,0,764,90439,2096640
3,18,female,Belg,3,131,ITC,win,15,left,7,ITC_start,316,space,0,0,764,90120,2096959
3,18,female,Belg,3,131,ITC,win,15,left,7,ITC_choice,634,j,0,0,764,89483,2097596
3,18,female,Belg,3,131,ITC,win,15,left,7,ITC_wait,0,undefined,0,0,764,89479,2097600
3,18,female,Belg,3,131,ITC,win,15,left,7,ITC_collect,46,k,0,0,764,89431,2097648
3,18,female,Belg,3,131,ITC,win,15,left,7,ITC_outcome,0,undefined,0,0,771,88427,2098652
3,18,female,Belg,3,132,guess,neutral,30,left,7,guess_start,148,space,0,0,771,88275,2098804
3,18,female,Belg,3,132,guess,neutral,30,left,7,guess_choice,538,j,0,0,771,87732,2099347
3,18,female,Belg,3,132,guess,neutral,30,left,7,guess_outcome,0,undefined,0,0,771,86172,2100907
3,18,female,Belg,3,132,ITC,neutral,30,left,7,ITC_start,298,space,0,0,771,85872,2101207
3,18,female,Belg,3,132,ITC,neutral,30,left,7,ITC_choice,585,j,0,0,771,85285,2101794
3,18,female,Belg,3,132,ITC,neutral,30,left,7,ITC_wait,0,undefined,0,0,771,85280,2101799
3,18,female,Belg,3,132,ITC,neutral,30,left,7,ITC_collect,57,k,0,0,771,85222,2101857
3,18,female,Belg,3,132,ITC,neutral,30,left,7,ITC_outcome,0,undefined,0,0,778,84218,2102861
3,18,female,Belg,3,133,guess,win,5,right,9,guess_start,299,space,0,0,778,83916,2103163
3,18,female,Belg,3,133,guess,win,5,right,9,guess_choice,676,f,0,0,778,83235,2103844
3,18,female,Belg,3,133,guess,win,5,right,9,guess_outcome,0,undefined,0,0,798,81675,2105404
3,18,female,Belg,3,133,ITC,win,5,right,9,ITC_start,432,space,0,0,798,81240,2105839
3,18,female,Belg,3,133,ITC,win,5,right,9,ITC_choice,1204,j,0,0,798,80033,2107046
3,18,female,Belg,3,133,ITC,win,5,right,9,ITC_wait,0,undefined,0,0,798,75026,2112053
3,18,female,Belg,3,133,ITC,win,5,right,9,ITC_collect,220,k,0,0,798,74802,2112277
3,18,female,Belg,3,133,ITC,win,5,right,9,ITC_outcome,0,undefined,0,0,818,73799,2113280
3,18,female,Belg,3,134,guess,neutral,15,left,7,guess_start,366,space,0,0,818,73429,2113650
3,18,female,Belg,3,134,guess,neutral,15,left,7,guess_choice,637,f,0,0,818,72788,2114291
3,18,female,Belg,3,134,guess,neutral,15,left,7,guess_outcome,0,undefined,0,0,818,71232,2115847
3,18,female,Belg,3,134,ITC,neutral,15,left,7,ITC_start,318,space,0,0,818,70912,2116167
3,18,female,Belg,3,134,ITC,neutral,15,left,7,ITC_choice,642,j,0,0,818,70266,2116813
3,18,female,Belg,3,134,ITC,neutral,15,left,7,ITC_collect,34,k,0,0,818,70226,2116853
3,18,female,Belg,3,134,ITC,neutral,15,left,7,ITC_wait,0,undefined,0,0,818,70262,2116817
3,18,female,Belg,3,134,ITC,neutral,15,left,7,ITC_outcome,0,undefined,0,0,825,69220,2117859
3,18,female,Belg,3,135,guess,neutral,30,left,1,guess_start,387,space,0,0,825,68830,2118249
3,18,female,Belg,3,135,guess,neutral,30,left,1,guess_choice,538,f,0,0,825,68287,2118792
3,18,female,Belg,3,135,guess,neutral,30,left,1,guess_outcome,0,undefined,0,0,825,66729,2120350
3,18,female,Belg,3,135,ITC,neutral,30,left,1,ITC_start,503,space,0,0,825,66223,2120856
3,18,female,Belg,3,135,ITC,neutral,30,left,1,ITC_wait,0,undefined,0,0,825,65646,2121433
3,18,female,Belg,3,135,ITC,neutral,30,left,1,ITC_choice,571,j,0,0,825,65650,2121429
3,18,female,Belg,3,135,ITC,neutral,30,left,1,ITC_collect,86,k,0,0,825,65558,2121521
3,18,female,Belg,3,135,ITC,neutral,30,left,1,ITC_outcome,0,undefined,0,0,826,64554,2122525
3,18,female,Belg,3,136,guess,win,5,left,15,guess_start,147,space,0,0,826,64404,2122675
3,18,female,Belg,3,136,guess,win,5,left,15,guess_choice,930,j,0,0,826,63470,2123609
3,18,female,Belg,3,136,guess,win,5,left,15,guess_outcome,0,undefined,0,0,846,61911,2125168
3,18,female,Belg,3,136,ITC,win,5,left,15,ITC_start,392,space,0,0,846,61514,2125565
3,18,female,Belg,3,136,ITC,win,5,left,15,ITC_choice,620,j,0,0,846,60892,2126187
3,18,female,Belg,3,136,ITC,win,5,left,15,ITC_wait,0,undefined,0,0,846,60888,2126191
3,18,female,Belg,3,136,ITC,win,5,left,15,ITC_collect,82,k,0,0,846,60804,2126275
3,18,female,Belg,3,136,ITC,win,5,left,15,ITC_outcome,0,undefined,0,0,861,59800,2127279
3,18,female,Belg,3,137,guess,loss,5,left,16,guess_start,394,space,0,0,861,59403,2127676
3,18,female,Belg,3,137,guess,loss,5,left,16,guess_choice,706,f,0,0,861,58693,2128386
3,18,female,Belg,3,137,guess,loss,5,left,16,guess_outcome,0,undefined,0,0,846,57137,2129942
3,18,female,Belg,3,137,ITC,loss,5,left,16,ITC_start,336,space,0,0,846,56799,2130280
3,18,female,Belg,3,137,ITC,loss,5,left,16,ITC_choice,635,j,0,0,846,56161,2130918
3,18,female,Belg,3,137,ITC,loss,5,left,16,ITC_wait,0,undefined,0,0,846,56157,2130922
3,18,female,Belg,3,137,ITC,loss,5,left,16,ITC_collect,107,k,0,0,846,56049,2131030
3,18,female,Belg,3,137,ITC,loss,5,left,16,ITC_outcome,0,undefined,0,0,862,55043,2132036
3,18,female,Belg,3,138,guess,loss,15,right,8,guess_start,254,space,0,0,862,54786,2132293
3,18,female,Belg,3,138,guess,loss,15,right,8,guess_choice,723,j,0,0,862,54058,2133021
3,18,female,Belg,3,138,guess,loss,15,right,8,guess_outcome,0,undefined,0,0,847,52502,2134577
3,18,female,Belg,3,138,ITC,loss,15,right,8,ITC_start,383,space,0,0,847,52116,2134963
3,18,female,Belg,3,138,ITC,loss,15,right,8,ITC_choice,1075,f,0,0,847,51038,2136041
3,18,female,Belg,3,138,ITC,loss,15,right,8,ITC_wait,0,undefined,0,0,847,51035,2136044
3,18,female,Belg,3,138,ITC,loss,15,right,8,ITC_collect,114,k,0,0,847,50919,2136160
3,18,female,Belg,3,138,ITC,loss,15,right,8,ITC_outcome,0,undefined,0,0,855,49914,2137165
3,18,female,Belg,3,139,guess,loss,15,left,9,guess_start,422,space,0,0,855,49488,2137591
3,18,female,Belg,3,139,guess,loss,15,left,9,guess_choice,729,j,0,0,855,48755,2138324
3,18,female,Belg,3,139,guess,loss,15,left,9,guess_outcome,0,undefined,0,0,840,47195,2139884
3,18,female,Belg,3,139,ITC,loss,15,left,9,ITC_start,318,space,0,0,840,46873,2140206
3,18,female,Belg,3,139,ITC,loss,15,left,9,ITC_wait,0,undefined,0,0,840,46254,2140825
3,18,female,Belg,3,139,ITC,loss,15,left,9,ITC_choice,612,j,0,0,840,46258,2140821
3,18,female,Belg,3,139,ITC,loss,15,left,9,ITC_collect,114,k,0,0,840,46139,2140940
3,18,female,Belg,3,139,ITC,loss,15,left,9,ITC_outcome,0,undefined,0,0,849,45130,2141949
3,18,female,Belg,3,140,guess,loss,30,left,2,guess_start,335,space,0,0,849,44792,2142287
3,18,female,Belg,3,140,guess,loss,30,left,2,guess_choice,663,f,0,0,849,44124,2142955
3,18,female,Belg,3,140,guess,loss,30,left,2,guess_outcome,0,undefined,0,0,834,42564,2144515
3,18,female,Belg,3,140,ITC,loss,30,left,2,ITC_start,319,space,0,0,834,42243,2144836
3,18,female,Belg,3,140,ITC,loss,30,left,2,ITC_choice,581,j,0,0,834,41659,2145420
3,18,female,Belg,3,140,ITC,loss,30,left,2,ITC_wait,0,undefined,0,0,834,41655,2145424
3,18,female,Belg,3,140,ITC,loss,30,left,2,ITC_collect,95,k,0,0,834,41559,2145520
3,18,female,Belg,3,140,ITC,loss,30,left,2,ITC_outcome,0,undefined,0,0,836,40555,2146524
3,18,female,Belg,3,141,guess,neutral,15,right,8,guess_start,90,space,0,0,836,40461,2146618
3,18,female,Belg,3,141,guess,neutral,15,right,8,guess_choice,581,j,0,0,836,39875,2147204
3,18,female,Belg,3,141,guess,neutral,15,right,8,guess_outcome,0,undefined,0,0,836,38315,2148764
3,18,female,Belg,3,141,ITC,neutral,15,right,8,ITC_start,307,space,0,0,836,38005,2149074
3,18,female,Belg,3,141,ITC,neutral,15,right,8,ITC_wait,0,undefined,0,0,836,36936,2150143
3,18,female,Belg,3,141,ITC,neutral,15,right,8,ITC_choice,1063,f,0,0,836,36940,2150139
3,18,female,Belg,3,141,ITC,neutral,15,right,8,ITC_collect,127,k,0,0,836,36808,2150271
3,18,female,Belg,3,141,ITC,neutral,15,right,8,ITC_outcome,0,undefined,0,0,844,35803,2151276
3,18,female,Belg,3,142,guess,neutral,5,right,11,guess_start,361,space,0,0,844,35437,2151642
3,18,female,Belg,3,142,guess,neutral,5,right,11,guess_choice,634,j,0,0,844,34798,2152281
3,18,female,Belg,3,142,guess,neutral,5,right,11,guess_outcome,0,undefined,0,0,844,33243,2153836
3,18,female,Belg,3,142,ITC,neutral,5,right,11,ITC_start,289,space,0,0,844,32951,2154128
3,18,female,Belg,3,142,ITC,neutral,5,right,11,ITC_choice,870,j,0,0,844,32078,2155001
3,18,female,Belg,3,142,ITC,neutral,5,right,11,ITC_wait,0,undefined,0,0,844,27070,2160009
3,18,female,Belg,3,142,ITC,neutral,5,right,11,ITC_collect,299,k,0,0,844,26767,2160312
3,18,female,Belg,3,142,ITC,neutral,5,right,11,ITC_outcome,0,undefined,0,0,864,25759,2161320
3,18,female,Belg,3,143,guess,loss,30,right,5,guess_start,345,space,0,0,864,25411,2161668
3,18,female,Belg,3,143,guess,loss,30,right,5,guess_choice,824,f,0,0,864,24582,2162497
3,18,female,Belg,3,143,guess,loss,30,right,5,guess_outcome,0,undefined,0,0,849,23023,2164056
3,18,female,Belg,3,143,ITC,loss,30,right,5,ITC_start,262,space,0,0,849,22757,2164322
3,18,female,Belg,3,143,ITC,loss,30,right,5,ITC_choice,1286,f,0,0,849,21469,2165610
3,18,female,Belg,3,143,ITC,loss,30,right,5,ITC_wait,0,undefined,0,0,849,21465,2165614
3,18,female,Belg,3,143,ITC,loss,30,right,5,ITC_collect,135,k,0,0,849,21329,2165750
3,18,female,Belg,3,143,ITC,loss,30,right,5,ITC_outcome,0,undefined,0,0,854,20324,2166755
3,18,female,Belg,3,144,guess,loss,15,right,7,guess_start,372,space,0,0,854,19948,2167131
3,18,female,Belg,3,144,guess,loss,15,right,7,guess_choice,770,j,0,0,854,19173,2167906
3,18,female,Belg,3,144,guess,loss,15,right,7,guess_outcome,0,undefined,0,0,839,17614,2169465
3,18,female,Belg,3,144,ITC,loss,15,right,7,ITC_start,400,space,0,0,839,17210,2169869
3,18,female,Belg,3,144,ITC,loss,15,right,7,ITC_choice,1177,f,0,0,839,16031,2171048
3,18,female,Belg,3,144,ITC,loss,15,right,7,ITC_wait,0,undefined,0,0,839,16027,2171052
3,18,female,Belg,3,144,ITC,loss,15,right,7,ITC_collect,118,k,0,0,839,15907,2171172
3,18,female,Belg,3,144,ITC,loss,15,right,7,ITC_outcome,0,undefined,0,0,846,14899,2172180
3,18,female,Belg,3,145,guess,loss,30,right,6,guess_start,648,space,0,0,846,14247,2172832
3,18,female,Belg,3,145,guess,loss,30,right,6,guess_choice,748,f,0,0,846,13495,2173584
3,18,female,Belg,3,145,guess,loss,30,right,6,guess_outcome,0,undefined,0,0,831,11935,2175144
3,18,female,Belg,3,145,ITC,loss,30,right,6,ITC_start,393,space,0,0,831,11538,2175541
