subjectID,age,gender,nationality,block_number,trial_number,trial_type,guess_outcome,delay_time,delay_pos,immediate_amount,stage,respRT,respKey,blur_count,focus_count,total_points,remaining_duration,time_elapsed
36,18,female,Belg,1,1,guess,neutral,5,left,9,guess_start,3293,space,0,0,0,476704,1378111
36,18,female,Belg,1,1,guess,neutral,5,left,9,guess_choice,1051,f,0,0,0,475645,1379170
36,18,female,Belg,1,1,ITC,neutral,5,left,9,ITC_start,3446,space,0,0,0,470627,1384188
36,18,female,Belg,1,1,guess,neutral,5,left,9,guess_outcome,0,undefined,0,0,0,474076,1380739
36,18,female,Belg,1,1,ITC,neutral,5,left,9,ITC_choice,4589,f,0,0,0,466037,1388778
36,18,female,Belg,1,1,ITC,neutral,5,left,9,ITC_wait,0,undefined,0,0,0,461028,1393787
36,18,female,Belg,1,1,ITC,neutral,5,left,9,ITC_collect,3209,k,0,0,0,457816,1396999
36,18,female,Belg,1,1,ITC,neutral,5,left,9,ITC_outcome,0,undefined,0,0,20,456806,1398009
36,18,female,Belg,1,2,guess,win,10,left,4,guess_start,8269,space,0,0,20,448532,1406283
36,18,female,Belg,1,2,guess,win,10,left,4,guess_choice,2751,j,0,0,20,445775,1409040
36,18,female,Belg,1,2,guess,win,10,left,4,guess_outcome,0,undefined,0,0,40,444198,1410617
36,18,female,Belg,1,2,ITC,win,10,left,4,ITC_choice,3349,f,0,0,40,436859,1417956
36,18,female,Belg,1,2,ITC,win,10,left,4,ITC_collect,701,k,0,0,40,426152,1428663
36,18,female,Belg,1,2,ITC,win,10,left,4,ITC_start,3984,space,0,0,40,440211,1414604
36,18,female,Belg,1,2,ITC,win,10,left,4,ITC_wait,0,undefined,0,0,40,426856,1427959
36,18,female,Belg,1,2,ITC,win,10,left,4,ITC_outcome,0,undefined,0,0,60,425130,1429685
36,18,female,Belg,1,3,guess,neutral,5,left,15,guess_start,1243,space,0,0,60,423883,1430932
36,18,female,Belg,1,3,guess,neutral,5,left,15,guess_choice,1006,j,0,0,60,422872,1431943
36,18,female,Belg,1,3,guess,neutral,5,left,15,guess_outcome,0,undefined,0,0,60,421300,1433515
36,18,female,Belg,1,3,ITC,neutral,5,left,15,ITC_start,1219,space,0,0,60,420078,1434737
36,18,female,Belg,1,3,ITC,neutral,5,left,15,ITC_wait,0,undefined,0,0,60,417883,1436932
36,18,female,Belg,1,3,ITC,neutral,5,left,15,ITC_collect,1408,k,0,0,60,416471,1438344
36,18,female,Belg,1,4,ITC,neutral,5,left,14,ITC_wait,0,undefined,0,0,75,408741,1446074
36,18,female,Belg,1,4,ITC,neutral,5,left,14,ITC_collect,712,k,0,0,75,408025,1446790
36,18,female,Belg,1,4,ITC,neutral,5,left,14,ITC_choice,2450,j,0,0,75,408746,1446069
36,18,female,Belg,1,4,ITC,neutral,5,left,14,ITC_outcome,0,undefined,0,0,89,407015,1447800
36,18,female,Belg,1,5,guess,neutral,5,left,11,guess_start,780,space,0,0,89,406232,1448583
36,18,female,Belg,1,5,guess,neutral,5,left,11,guess_choice,621,f,0,0,89,405605,1449210
36,18,female,Belg,1,5,guess,neutral,5,left,11,guess_outcome,0,undefined,0,0,89,404034,1450781
36,18,female,Belg,1,3,ITC,neutral,5,left,15,ITC_choice,2188,j,0,0,60,417887,1436928
36,18,female,Belg,1,5,ITC,neutral,5,left,11,ITC_start,1101,space,0,0,89,402932,1451883
36,18,female,Belg,1,3,ITC,neutral,5,left,15,ITC_outcome,0,undefined,0,0,75,415455,1439360
36,18,female,Belg,1,4,guess,neutral,5,left,14,guess_start,725,space,0,0,75,414727,1440088
36,18,female,Belg,1,4,guess,neutral,5,left,14,guess_choice,654,f,0,0,75,414068,1440747
36,18,female,Belg,1,4,guess,neutral,5,left,14,guess_outcome,0,undefined,0,0,75,412505,1442310
36,18,female,Belg,1,4,ITC,neutral,5,left,14,ITC_start,1304,space,0,0,75,411199,1443616
36,18,female,Belg,1,5,ITC,neutral,5,left,11,ITC_choice,2814,f,0,0,89,400115,1454700
36,18,female,Belg,1,5,ITC,neutral,5,left,11,ITC_wait,0,undefined,0,0,89,395101,1459714
36,18,female,Belg,1,5,ITC,neutral,5,left,11,ITC_collect,607,k,0,0,89,394492,1460323
36,18,female,Belg,1,6,guess,win,10,left,5,guess_start,691,space,0,0,109,392791,1462024
36,18,female,Belg,1,6,guess,win,10,left,5,guess_choice,1211,j,0,0,109,391574,1463241
36,18,female,Belg,1,6,guess,win,10,left,5,guess_outcome,0,undefined,0,0,129,390004,1464811
36,18,female,Belg,1,6,ITC,win,10,left,5,ITC_start,861,space,0,0,129,389141,1465674
36,18,female,Belg,1,5,ITC,neutral,5,left,11,ITC_outcome,0,undefined,0,0,109,393484,1461331
36,18,female,Belg,1,6,ITC,win,10,left,5,ITC_choice,3254,j,0,0,129,385884,1468931
36,18,female,Belg,1,6,ITC,win,10,left,5,ITC_wait,0,undefined,0,0,129,385880,1468935
36,18,female,Belg,1,6,ITC,win,10,left,5,ITC_collect,1015,k,0,0,129,384862,1469953
36,18,female,Belg,1,6,ITC,win,10,left,5,ITC_outcome,0,undefined,0,0,134,383840,1470975
36,18,female,Belg,1,7,guess,win,5,right,7,guess_start,755,space,0,0,134,383082,1471733
36,18,female,Belg,1,7,guess,win,5,right,7,guess_choice,1005,f,0,0,134,382070,1472745
36,18,female,Belg,1,7,guess,win,5,right,7,guess_outcome,0,undefined,0,0,154,380499,1474316
36,18,female,Belg,1,7,ITC,win,5,right,7,ITC_start,1769,space,0,0,154,378727,1476088
36,18,female,Belg,1,8,guess,win,5,left,10,guess_start,585,space,0,0,174,368444,1486371
36,18,female,Belg,1,7,ITC,win,5,right,7,ITC_wait,0,undefined,0,0,154,370669,1484146
36,18,female,Belg,1,7,ITC,win,5,right,7,ITC_choice,3043,j,0,0,154,375681,1479134
36,18,female,Belg,1,7,ITC,win,5,right,7,ITC_outcome,0,undefined,0,0,174,369035,1485780
36,18,female,Belg,1,8,guess,win,5,left,10,guess_choice,922,f,0,0,174,367517,1487298
36,18,female,Belg,1,8,guess,win,5,left,10,guess_outcome,0,undefined,0,0,194,365949,1488866
36,18,female,Belg,1,7,ITC,win,5,right,7,ITC_collect,616,k,0,0,154,370051,1484764
36,18,female,Belg,1,8,ITC,win,5,left,10,ITC_start,891,space,0,0,194,365052,1489763
36,18,female,Belg,1,8,ITC,win,5,left,10,ITC_choice,2298,j,0,0,194,362752,1492063
36,18,female,Belg,1,8,ITC,win,5,left,10,ITC_wait,0,undefined,0,0,194,362746,1492069
36,18,female,Belg,1,8,ITC,win,5,left,10,ITC_collect,1171,k,0,0,194,361572,1493243
36,18,female,Belg,1,8,ITC,win,5,left,10,ITC_outcome,0,undefined,0,0,204,360561,1494254
36,18,female,Belg,1,9,guess,loss,5,left,8,guess_start,926,space,0,0,204,359632,1495183
36,18,female,Belg,1,9,guess,loss,5,left,8,guess_choice,1924,j,0,0,204,357703,1497112
36,18,female,Belg,1,9,ITC,loss,5,left,8,ITC_start,989,space,0,0,189,355144,1499671
36,18,female,Belg,1,9,ITC,loss,5,left,8,ITC_choice,2286,f,0,0,189,352856,1501959
36,18,female,Belg,1,9,guess,loss,5,left,8,guess_outcome,0,undefined,0,0,189,356135,1498680
36,18,female,Belg,1,9,ITC,loss,5,left,8,ITC_wait,0,undefined,0,0,189,347835,1506980
36,18,female,Belg,1,9,ITC,loss,5,left,8,ITC_collect,503,k,0,0,189,347329,1507486
36,18,female,Belg,1,10,guess,neutral,5,left,7,guess_outcome,0,undefined,0,0,209,343091,1511724
36,18,female,Belg,1,10,ITC,neutral,5,left,7,ITC_start,1330,space,0,0,209,341759,1513056
36,18,female,Belg,1,10,ITC,neutral,5,left,7,ITC_choice,2224,f,0,0,209,339532,1515283
36,18,female,Belg,1,10,ITC,neutral,5,left,7,ITC_wait,0,undefined,0,0,209,334517,1520298
36,18,female,Belg,1,10,ITC,neutral,5,left,7,ITC_collect,1568,k,0,0,209,332946,1521869
36,18,female,Belg,1,10,ITC,neutral,5,left,7,ITC_outcome,0,undefined,0,0,229,331924,1522891
36,18,female,Belg,1,11,guess,neutral,10,left,3,guess_start,925,space,0,0,229,330996,1523819
36,18,female,Belg,1,9,ITC,loss,5,left,8,ITC_outcome,0,undefined,0,0,209,346320,1508495
36,18,female,Belg,1,10,guess,neutral,5,left,7,guess_start,658,space,0,0,209,345659,1509156
36,18,female,Belg,1,10,guess,neutral,5,left,7,guess_choice,995,f,0,0,209,344655,1510160
36,18,female,Belg,1,11,guess,neutral,10,left,3,guess_choice,784,f,0,0,229,330207,1524608
36,18,female,Belg,1,11,guess,neutral,10,left,3,guess_outcome,0,undefined,0,0,229,328645,1526170
36,18,female,Belg,1,11,ITC,neutral,10,left,3,ITC_start,1672,space,0,0,229,326970,1527845
36,18,female,Belg,1,11,ITC,neutral,10,left,3,ITC_choice,2128,j,0,0,229,324839,1529976
36,18,female,Belg,1,11,ITC,neutral,10,left,3,ITC_wait,0,undefined,0,0,229,324835,1529980
36,18,female,Belg,1,11,ITC,neutral,10,left,3,ITC_collect,1191,k,0,0,229,323641,1531174
36,18,female,Belg,1,11,ITC,neutral,10,left,3,ITC_outcome,0,undefined,0,0,232,322624,1532191
36,18,female,Belg,1,12,guess,win,5,right,2,guess_start,1565,space,0,0,232,321057,1533758
36,18,female,Belg,1,12,guess,win,5,right,2,guess_choice,1988,f,0,0,232,319063,1535752
36,18,female,Belg,1,12,guess,win,5,right,2,guess_outcome,0,undefined,0,0,252,317499,1537316
36,18,female,Belg,1,12,ITC,win,5,right,2,ITC_start,781,space,0,0,252,316716,1538099
36,18,female,Belg,1,12,ITC,win,5,right,2,ITC_choice,3151,j,0,0,252,313562,1541253
36,18,female,Belg,1,12,ITC,win,5,right,2,ITC_wait,0,undefined,0,0,252,308542,1546273
36,18,female,Belg,1,12,ITC,win,5,right,2,ITC_collect,467,k,0,0,252,308072,1546743
36,18,female,Belg,1,13,guess,win,10,right,3,guess_start,992,space,0,0,272,306064,1548751
36,18,female,Belg,1,13,guess,win,10,right,3,guess_choice,1131,j,0,0,272,304929,1549886
36,18,female,Belg,1,13,guess,win,10,right,3,guess_outcome,0,undefined,0,0,292,303355,1551460
36,18,female,Belg,1,13,ITC,win,10,right,3,ITC_start,734,space,0,0,292,302618,1552197
36,18,female,Belg,1,13,ITC,win,10,right,3,ITC_choice,1552,f,0,0,292,301063,1553752
36,18,female,Belg,1,14,guess,loss,5,right,16,guess_start,3197,space,0,0,295,295996,1558819
36,18,female,Belg,1,13,ITC,win,10,right,3,ITC_wait,0,undefined,0,0,292,301059,1553756
36,18,female,Belg,1,13,ITC,win,10,right,3,ITC_collect,845,k,0,0,292,300211,1554604
36,18,female,Belg,1,13,ITC,win,10,right,3,ITC_outcome,0,undefined,0,0,295,299195,1555620
36,18,female,Belg,1,14,ITC,loss,5,right,16,ITC_wait,0,undefined,0,0,280,290037,1564778
36,18,female,Belg,1,12,ITC,win,5,right,2,ITC_outcome,0,undefined,0,0,272,307060,1547755
36,18,female,Belg,1,14,ITC,loss,5,right,16,ITC_collect,1059,k,0,0,280,288974,1565841
36,18,female,Belg,1,14,ITC,loss,5,right,16,ITC_outcome,0,undefined,0,0,296,287960,1566855
36,18,female,Belg,1,15,guess,win,5,left,1,guess_choice,1335,j,0,0,296,285904,1568911
36,18,female,Belg,1,15,guess,win,5,left,1,guess_start,714,space,0,0,296,287244,1567571
36,18,female,Belg,1,15,guess,win,5,left,1,guess_outcome,0,undefined,0,0,316,284341,1570474
36,18,female,Belg,1,15,ITC,win,5,left,1,ITC_start,822,space,0,0,316,283517,1571298
36,18,female,Belg,1,15,ITC,win,5,left,1,ITC_choice,3228,f,0,0,316,280287,1574528
36,18,female,Belg,1,14,guess,loss,5,right,16,guess_choice,1121,j,0,0,295,294869,1559946
36,18,female,Belg,1,14,ITC,loss,5,right,16,ITC_choice,1577,f,0,0,280,290041,1564774
36,18,female,Belg,1,14,guess,loss,5,right,16,guess_outcome,0,undefined,0,0,280,293305,1561510
36,18,female,Belg,1,14,ITC,loss,5,right,16,ITC_start,1681,space,0,0,280,291622,1563193
36,18,female,Belg,1,15,ITC,win,5,left,1,ITC_wait,0,undefined,0,0,316,275284,1579531
36,18,female,Belg,1,15,ITC,win,5,left,1,ITC_collect,1017,k,0,0,316,274265,1580550
36,18,female,Belg,1,15,ITC,win,5,left,1,ITC_outcome,0,undefined,0,0,336,273258,1581557
36,18,female,Belg,1,16,guess,win,5,left,4,guess_start,1765,space,0,0,336,271491,1583324
36,18,female,Belg,1,16,guess,win,5,left,4,guess_choice,2445,f,0,0,336,269039,1585776
36,18,female,Belg,1,16,guess,win,5,left,4,guess_outcome,0,undefined,0,0,356,267463,1587352
36,18,female,Belg,1,16,ITC,win,5,left,4,ITC_start,135,space,0,0,356,267326,1587489
36,18,female,Belg,1,16,ITC,win,5,left,4,ITC_choice,3246,f,0,0,356,264078,1590737
36,18,female,Belg,1,16,ITC,win,5,left,4,ITC_wait,0,undefined,0,0,356,259073,1595742
36,18,female,Belg,1,16,ITC,win,5,left,4,ITC_outcome,0,undefined,0,0,376,257398,1597417
36,18,female,Belg,1,16,ITC,win,5,left,4,ITC_collect,654,k,0,0,356,258417,1596398
36,18,female,Belg,1,17,ITC,win,5,right,3,ITC_start,780,space,0,0,396,253104,1601711
36,18,female,Belg,1,17,ITC,win,5,right,3,ITC_choice,3086,j,0,0,396,250016,1604799
36,18,female,Belg,1,17,ITC,win,5,right,3,ITC_wait,0,undefined,0,0,396,244998,1609817
36,18,female,Belg,1,17,ITC,win,5,right,3,ITC_collect,407,k,0,0,396,244588,1610227
36,18,female,Belg,1,17,ITC,win,5,right,3,ITC_outcome,0,undefined,0,0,416,243573,1611242
36,18,female,Belg,1,18,guess,neutral,5,left,5,guess_start,1157,space,0,0,416,242413,1612402
36,18,female,Belg,1,18,guess,neutral,5,left,5,guess_choice,972,j,0,0,416,241436,1613379
36,18,female,Belg,1,17,guess,win,5,right,3,guess_start,765,space,0,0,376,256631,1598184
36,18,female,Belg,1,17,guess,win,5,right,3,guess_choice,1175,j,0,0,376,255450,1599365
36,18,female,Belg,1,17,guess,win,5,right,3,guess_outcome,0,undefined,0,0,396,253888,1600927
36,18,female,Belg,1,18,ITC,neutral,5,left,5,ITC_start,775,space,0,0,416,239096,1615719
36,18,female,Belg,1,18,guess,neutral,5,left,5,guess_outcome,0,undefined,0,0,416,239873,1614942
36,18,female,Belg,1,18,ITC,neutral,5,left,5,ITC_choice,2092,f,0,0,416,237002,1617813
36,18,female,Belg,1,18,ITC,neutral,5,left,5,ITC_wait,0,undefined,0,0,416,231990,1622825
36,18,female,Belg,1,18,ITC,neutral,5,left,5,ITC_collect,1002,k,0,0,416,230985,1623830
36,18,female,Belg,1,18,ITC,neutral,5,left,5,ITC_outcome,0,undefined,0,0,436,229976,1624839
36,18,female,Belg,1,19,guess,win,10,left,6,guess_start,725,space,0,0,436,229248,1625567
36,18,female,Belg,1,19,ITC,win,10,left,6,ITC_wait,0,undefined,0,0,456,223201,1631614
36,18,female,Belg,1,19,ITC,win,10,left,6,ITC_collect,614,k,0,0,456,222583,1632232
36,18,female,Belg,1,19,ITC,win,10,left,6,ITC_outcome,0,undefined,0,0,462,221570,1633245
36,18,female,Belg,1,20,guess,win,10,left,2,guess_start,754,space,0,0,462,220814,1634001
36,18,female,Belg,1,20,ITC,win,10,left,2,ITC_wait,0,undefined,0,0,482,214182,1640633
36,18,female,Belg,1,20,ITC,win,10,left,2,ITC_collect,938,k,0,0,482,213241,1641574
36,18,female,Belg,1,19,guess,win,10,left,6,guess_choice,1000,f,0,0,436,228242,1626573
36,18,female,Belg,1,19,guess,win,10,left,6,guess_outcome,0,undefined,0,0,456,226676,1628139
36,18,female,Belg,1,19,ITC,win,10,left,6,ITC_start,491,space,0,0,456,226183,1628632
36,18,female,Belg,1,19,ITC,win,10,left,6,ITC_choice,2973,j,0,0,456,223206,1631609
36,18,female,Belg,1,20,ITC,win,10,left,2,ITC_outcome,0,undefined,0,0,484,212220,1642595
36,18,female,Belg,1,21,guess,win,5,right,15,guess_start,593,space,0,0,484,211624,1643191
36,18,female,Belg,1,21,guess,win,5,right,15,guess_choice,941,f,0,0,484,210678,1644137
36,18,female,Belg,1,21,guess,win,5,right,15,guess_outcome,0,undefined,0,0,504,209120,1645695
36,18,female,Belg,1,21,ITC,win,5,right,15,ITC_start,1198,space,0,0,504,207920,1646895
36,18,female,Belg,1,21,ITC,win,5,right,15,ITC_choice,1657,f,0,0,504,206261,1648554
36,18,female,Belg,1,21,ITC,win,5,right,15,ITC_collect,991,k,0,0,504,205263,1649552
36,18,female,Belg,1,21,ITC,win,5,right,15,ITC_wait,0,undefined,0,0,504,206257,1648558
36,18,female,Belg,1,21,ITC,win,5,right,15,ITC_outcome,0,undefined,0,0,519,204240,1650575
36,18,female,Belg,1,22,guess,loss,5,right,1,guess_start,734,space,0,0,519,203503,1651312
36,18,female,Belg,1,22,guess,loss,5,right,1,guess_choice,1011,j,0,0,519,202488,1652327
36,18,female,Belg,1,22,ITC,loss,5,right,1,ITC_start,514,space,0,0,504,200414,1654401
36,18,female,Belg,1,22,guess,loss,5,right,1,guess_outcome,0,undefined,0,0,504,200930,1653885
36,18,female,Belg,1,22,ITC,loss,5,right,1,ITC_choice,2071,j,0,0,504,198341,1656474
36,18,female,Belg,1,20,guess,win,10,left,2,guess_choice,985,j,0,0,462,219824,1634991
36,18,female,Belg,1,20,ITC,win,10,left,2,ITC_choice,3252,j,0,0,482,214187,1640628
36,18,female,Belg,1,20,ITC,win,10,left,2,ITC_start,809,space,0,0,482,217441,1637374
36,18,female,Belg,1,20,guess,win,10,left,2,guess_outcome,0,undefined,0,0,482,218252,1636563
36,18,female,Belg,1,22,ITC,loss,5,right,1,ITC_outcome,0,undefined,0,0,524,191979,1662836
36,18,female,Belg,1,22,ITC,loss,5,right,1,ITC_wait,0,undefined,0,0,504,193324,1661491
36,18,female,Belg,1,23,guess,neutral,5,left,12,guess_start,583,space,0,0,524,191394,1663421
36,18,female,Belg,1,22,ITC,loss,5,right,1,ITC_collect,329,k,0,0,504,192992,1661823
36,18,female,Belg,1,23,ITC,neutral,5,left,12,ITC_start,2458,space,0,0,524,186554,1668261
36,18,female,Belg,1,23,guess,neutral,5,left,12,guess_choice,811,j,0,0,524,190576,1664239
36,18,female,Belg,1,23,guess,neutral,5,left,12,guess_outcome,0,undefined,0,0,524,189014,1665801
36,18,female,Belg,1,23,ITC,neutral,5,left,12,ITC_choice,2259,j,0,0,524,184292,1670523
36,18,female,Belg,1,23,ITC,neutral,5,left,12,ITC_collect,1661,k,0,0,524,182624,1672191
36,18,female,Belg,1,23,ITC,neutral,5,left,12,ITC_wait,0,undefined,0,0,524,184288,1670527
36,18,female,Belg,1,24,guess,neutral,5,left,1,guess_start,583,space,0,0,536,181017,1673798
36,18,female,Belg,1,23,ITC,neutral,5,left,12,ITC_outcome,0,undefined,0,0,536,181604,1673211
36,18,female,Belg,1,24,guess,neutral,5,left,1,guess_choice,760,j,0,0,536,180251,1674564
36,18,female,Belg,1,24,guess,neutral,5,left,1,guess_outcome,0,undefined,0,0,536,178694,1676121
36,18,female,Belg,1,24,ITC,neutral,5,left,1,ITC_start,826,space,0,0,536,177866,1676949
36,18,female,Belg,1,24,ITC,neutral,5,left,1,ITC_choice,1977,f,0,0,536,175887,1678928
36,18,female,Belg,1,25,guess,neutral,5,left,2,guess_start,893,space,0,0,556,168638,1686177
36,18,female,Belg,1,25,guess,neutral,5,left,2,guess_choice,689,j,0,0,556,167944,1686871
36,18,female,Belg,1,25,guess,neutral,5,left,2,guess_outcome,0,undefined,0,0,556,166369,1688446
36,18,female,Belg,1,25,ITC,neutral,5,left,2,ITC_start,2311,space,0,0,556,164053,1690762
36,18,female,Belg,1,25,ITC,neutral,5,left,2,ITC_choice,1538,f,0,0,556,162520,1692295
36,18,female,Belg,1,25,ITC,neutral,5,left,2,ITC_wait,0,undefined,0,0,556,157506,1697309
36,18,female,Belg,1,25,ITC,neutral,5,left,2,ITC_collect,780,k,0,0,556,156723,1698092
36,18,female,Belg,1,24,ITC,neutral,5,left,1,ITC_choice,1977,f,0,0,536,175887,1678928
36,18,female,Belg,1,25,ITC,neutral,5,left,2,ITC_outcome,0,undefined,0,0,576,155713,1699102
36,18,female,Belg,1,26,guess,loss,5,left,4,guess_start,515,space,0,0,576,155195,1699620
36,18,female,Belg,1,24,ITC,neutral,5,left,1,ITC_collect,337,k,0,0,536,170539,1684276
36,18,female,Belg,1,24,ITC,neutral,5,left,1,ITC_wait,0,undefined,0,0,536,170879,1683936
36,18,female,Belg,1,24,ITC,neutral,5,left,1,ITC_outcome,0,undefined,0,0,556,169534,1685281
36,18,female,Belg,1,26,guess,loss,5,left,4,guess_choice,1740,f,0,0,576,153448,1701367
36,18,female,Belg,1,26,guess,loss,5,left,4,guess_outcome,0,undefined,0,0,561,151889,1702926
36,18,female,Belg,1,26,ITC,loss,5,left,4,ITC_start,830,space,0,0,561,151056,1703759
36,18,female,Belg,1,26,ITC,loss,5,left,4,ITC_choice,3326,f,0,0,561,147728,1707087
36,18,female,Belg,1,26,ITC,loss,5,left,4,ITC_wait,0,undefined,0,0,561,142722,1712093
36,18,female,Belg,1,27,ITC,loss,5,right,11,ITC_choice,4237,f,0,0,566,130912,1723903
36,18,female,Belg,1,27,ITC,loss,5,right,11,ITC_wait,0,undefined,0,0,566,130908,1723907
36,18,female,Belg,1,27,guess,loss,5,right,11,guess_start,1474,space,0,0,581,139251,1715564
36,18,female,Belg,1,27,ITC,loss,5,right,11,ITC_outcome,0,undefined,0,0,577,129003,1725812
36,18,female,Belg,1,28,guess,neutral,10,left,4,guess_outcome,0,undefined,0,0,577,124642,1730173
36,18,female,Belg,1,28,ITC,neutral,10,left,4,ITC_start,591,space,0,0,577,124048,1730767
36,18,female,Belg,1,28,ITC,neutral,10,left,4,ITC_choice,2299,j,0,0,577,121746,1733069
36,18,female,Belg,1,28,ITC,neutral,10,left,4,ITC_wait,0,undefined,0,0,577,121742,1733073
36,18,female,Belg,1,28,ITC,neutral,10,left,4,ITC_collect,1897,k,0,0,577,119842,1734973
36,18,female,Belg,1,29,guess,neutral,5,right,6,guess_start,1784,space,0,0,581,117037,1737778
36,18,female,Belg,1,28,ITC,neutral,10,left,4,ITC_outcome,0,undefined,0,0,581,118824,1735991
36,18,female,Belg,1,29,guess,neutral,5,right,6,guess_choice,859,j,0,0,581,116172,1738643
36,18,female,Belg,1,29,guess,neutral,5,right,6,guess_outcome,0,undefined,0,0,581,114602,1740213
36,18,female,Belg,1,29,ITC,neutral,5,right,6,ITC_start,723,space,0,0,581,113877,1740938
36,18,female,Belg,1,29,ITC,neutral,5,right,6,ITC_choice,2694,j,0,0,581,111180,1743635
36,18,female,Belg,1,29,ITC,neutral,5,right,6,ITC_wait,0,undefined,0,0,581,106172,1748643
36,18,female,Belg,1,29,ITC,neutral,5,right,6,ITC_collect,944,k,0,0,581,105225,1749590
36,18,female,Belg,1,29,ITC,neutral,5,right,6,ITC_outcome,0,undefined,0,0,601,104207,1750608
36,18,female,Belg,1,30,guess,neutral,10,right,1,guess_choice,1219,f,0,0,601,102080,1752735
36,18,female,Belg,1,30,guess,neutral,10,right,1,guess_start,895,space,0,0,601,103309,1751506
36,18,female,Belg,1,30,guess,neutral,10,right,1,guess_outcome,0,undefined,0,0,601,100524,1754291
36,18,female,Belg,1,30,ITC,neutral,10,right,1,ITC_choice,2981,j,0,0,601,96849,1757966
36,18,female,Belg,1,30,ITC,neutral,10,right,1,ITC_start,689,space,0,0,601,99833,1754982
36,18,female,Belg,1,30,ITC,neutral,10,right,1,ITC_wait,0,undefined,0,0,601,86843,1767972
36,18,female,Belg,1,28,guess,neutral,10,left,4,guess_start,1798,space,0,0,577,127203,1727612
36,18,female,Belg,1,30,ITC,neutral,10,right,1,ITC_collect,821,k,0,0,601,86020,1768795
36,18,female,Belg,1,30,ITC,neutral,10,right,1,ITC_outcome,0,undefined,0,0,621,85003,1769812
36,18,female,Belg,1,28,guess,neutral,10,left,4,guess_choice,999,f,0,0,577,126199,1728616
36,18,female,Belg,1,31,guess,loss,5,right,14,guess_start,527,space,0,0,621,84474,1770341
36,18,female,Belg,1,31,guess,loss,5,right,14,guess_choice,1063,j,0,0,621,83406,1771409
36,18,female,Belg,1,31,guess,loss,5,right,14,guess_outcome,0,undefined,0,0,606,81849,1772966
36,18,female,Belg,1,31,ITC,loss,5,right,14,ITC_start,810,space,0,0,606,81037,1773778
36,18,female,Belg,1,31,ITC,loss,5,right,14,ITC_choice,2020,f,0,0,606,79014,1775801
36,18,female,Belg,1,31,ITC,loss,5,right,14,ITC_wait,0,undefined,0,0,606,79009,1775806
36,18,female,Belg,1,31,ITC,loss,5,right,14,ITC_collect,906,k,0,0,606,78100,1776715
36,18,female,Belg,1,31,ITC,loss,5,right,14,ITC_outcome,0,undefined,0,0,620,77079,1777736
36,18,female,Belg,1,32,guess,loss,5,right,2,guess_start,570,space,0,0,620,76506,1778309
36,18,female,Belg,1,32,guess,loss,5,right,2,guess_choice,1268,j,0,0,620,75233,1779582
36,18,female,Belg,1,32,guess,loss,5,right,2,guess_outcome,0,undefined,0,0,605,73669,1781146
36,18,female,Belg,1,32,ITC,loss,5,right,2,ITC_start,843,space,0,0,605,72823,1781992
36,18,female,Belg,1,32,ITC,loss,5,right,2,ITC_choice,2429,j,0,0,605,70391,1784424
36,18,female,Belg,1,32,ITC,loss,5,right,2,ITC_wait,0,undefined,0,0,605,65374,1789441
36,18,female,Belg,1,32,ITC,loss,5,right,2,ITC_outcome,0,undefined,0,0,625,63609,1791206
36,18,female,Belg,1,32,ITC,loss,5,right,2,ITC_collect,758,k,0,0,605,64614,1790201
36,18,female,Belg,1,33,guess,win,5,right,13,guess_choice,1536,j,0,0,625,61577,1793238
36,18,female,Belg,1,33,guess,win,5,right,13,guess_start,489,space,0,0,625,63118,1791697
36,18,female,Belg,1,33,guess,win,5,right,13,guess_outcome,0,undefined,0,0,645,60013,1794802
36,18,female,Belg,1,33,ITC,win,5,right,13,ITC_start,974,space,0,0,645,59037,1795778
36,18,female,Belg,1,33,ITC,win,5,right,13,ITC_choice,1911,f,0,0,645,57124,1797691
36,18,female,Belg,1,33,ITC,win,5,right,13,ITC_wait,0,undefined,0,0,645,57119,1797696
36,18,female,Belg,1,33,ITC,win,5,right,13,ITC_collect,884,k,0,0,645,56231,1798584
36,18,female,Belg,1,33,ITC,win,5,right,13,ITC_outcome,0,undefined,0,0,658,55219,1799596
36,18,female,Belg,1,34,guess,loss,5,right,7,guess_start,787,space,0,0,658,54431,1800384
36,18,female,Belg,1,34,guess,loss,5,right,7,guess_choice,937,f,0,0,658,53488,1801327
36,18,female,Belg,1,34,ITC,loss,5,right,7,ITC_start,728,space,0,0,643,51184,1803631
36,18,female,Belg,1,34,ITC,loss,5,right,7,ITC_choice,1708,j,0,0,643,49474,1805341
36,18,female,Belg,1,34,guess,loss,5,right,7,guess_outcome,0,undefined,0,0,643,51914,1802901
36,18,female,Belg,1,34,ITC,loss,5,right,7,ITC_outcome,0,undefined,0,0,663,42242,1812573
36,18,female,Belg,1,34,ITC,loss,5,right,7,ITC_wait,0,undefined,0,0,643,44459,1810356
36,18,female,Belg,1,34,ITC,loss,5,right,7,ITC_collect,1208,k,0,0,643,43249,1811566
36,18,female,Belg,1,35,guess,loss,10,left,3,guess_start,569,space,0,0,663,41678,1813137
36,18,female,Belg,1,35,guess,loss,10,left,3,guess_choice,1082,f,0,0,663,40591,1814224
36,18,female,Belg,1,35,guess,loss,10,left,3,guess_outcome,0,undefined,0,0,648,39021,1815794
36,18,female,Belg,1,35,ITC,loss,10,left,3,ITC_start,545,space,0,0,648,38474,1816341
36,18,female,Belg,1,35,ITC,loss,10,left,3,ITC_choice,2199,j,0,0,648,36272,1818543
36,18,female,Belg,1,35,ITC,loss,10,left,3,ITC_wait,0,undefined,0,0,648,36269,1818546
36,18,female,Belg,1,36,guess,loss,5,left,6,guess_start,733,space,0,0,651,33751,1821064
36,18,female,Belg,1,36,ITC,loss,5,left,6,ITC_wait,0,undefined,0,0,636,22521,1832294
36,18,female,Belg,1,36,ITC,loss,5,left,6,ITC_collect,821,k,0,0,636,21697,1833118
36,18,female,Belg,1,35,ITC,loss,10,left,3,ITC_outcome,0,undefined,0,0,651,34486,1820329
36,18,female,Belg,1,35,ITC,loss,10,left,3,ITC_collect,771,k,0,0,648,35494,1819321
36,18,female,Belg,1,36,guess,loss,5,left,6,guess_choice,2672,f,0,0,651,31072,1823743
36,18,female,Belg,1,36,ITC,loss,5,left,6,ITC_outcome,0,undefined,0,0,656,20686,1834129
36,18,female,Belg,1,36,guess,loss,5,left,6,guess_outcome,0,undefined,0,0,636,29501,1825314
36,18,female,Belg,1,36,ITC,loss,5,left,6,ITC_start,568,space,0,0,636,28931,1825884
36,18,female,Belg,1,36,ITC,loss,5,left,6,ITC_choice,1395,f,0,0,636,27533,1827282
36,18,female,Belg,1,37,guess,loss,5,left,3,guess_start,426,space,0,0,656,20257,1834558
36,18,female,Belg,1,37,guess,loss,5,left,3,guess_choice,1850,f,0,0,656,18402,1836413
36,18,female,Belg,1,37,guess,loss,5,left,3,guess_outcome,0,undefined,0,0,641,16846,1837969
36,18,female,Belg,1,37,ITC,loss,5,left,3,ITC_start,1269,space,0,0,641,15575,1839240
36,18,female,Belg,1,37,ITC,loss,5,left,3,ITC_choice,1303,f,0,0,641,14269,1840546
36,18,female,Belg,1,37,ITC,loss,5,left,3,ITC_wait,0,undefined,0,0,641,9266,1845549
36,18,female,Belg,1,37,ITC,loss,5,left,3,ITC_outcome,0,undefined,0,0,661,7581,1847234
36,18,female,Belg,1,38,guess,win,5,left,8,guess_start,1036,space,0,0,661,6543,1848272
36,18,female,Belg,1,38,guess,win,5,left,8,guess_choice,827,j,0,0,661,5711,1849104
36,18,female,Belg,1,38,guess,win,5,left,8,guess_outcome,0,undefined,0,0,681,4152,1850663
36,18,female,Belg,1,38,ITC,win,5,left,8,ITC_start,637,space,0,0,681,3512,1851303
36,18,female,Belg,1,38,ITC,win,5,left,8,ITC_choice,998,f,0,0,681,2512,1852303
36,18,female,Belg,1,38,ITC,win,5,left,8,ITC_wait,0,undefined,0,0,681,-13,1854828
36,18,female,Belg,1,37,ITC,loss,5,left,3,ITC_collect,662,k,0,0,641,8601,1846214
36,18,female,Belg,2,39,guess,win,5,left,6,guess_start,1601,space,0,0,0,478398,1936628
36,18,female,Belg,2,39,guess,win,5,left,6,guess_choice,918,j,0,0,0,477475,1937551
36,18,female,Belg,2,39,guess,win,5,left,6,guess_outcome,0,undefined,0,0,20,475905,1939121
36,18,female,Belg,2,39,ITC,win,5,left,6,ITC_start,1155,space,0,0,20,474748,1940278
36,18,female,Belg,2,39,ITC,win,5,left,6,ITC_choice,1614,f,0,0,20,473131,1941895
36,18,female,Belg,2,39,ITC,win,5,left,6,ITC_wait,0,undefined,0,0,20,468126,1946900
36,18,female,Belg,2,40,guess,loss,5,right,9,guess_start,2368,space,0,0,40,463325,1951701
36,18,female,Belg,2,39,ITC,win,5,left,6,ITC_outcome,0,undefined,0,0,40,465696,1949330
36,18,female,Belg,2,40,guess,loss,5,right,9,guess_choice,2019,f,0,0,40,461300,1953726
36,18,female,Belg,2,39,ITC,win,5,left,6,ITC_collect,1418,k,0,0,20,466705,1948321
36,18,female,Belg,2,40,guess,loss,5,right,9,guess_outcome,0,undefined,0,0,25,459736,1955290
36,18,female,Belg,2,40,ITC,loss,5,right,9,ITC_start,2472,space,0,0,25,457261,1957765
36,18,female,Belg,2,40,ITC,loss,5,right,9,ITC_choice,1716,j,0,0,25,455543,1959483
36,18,female,Belg,2,40,ITC,loss,5,right,9,ITC_wait,0,undefined,0,0,25,450529,1964497
36,18,female,Belg,2,40,ITC,loss,5,right,9,ITC_collect,865,k,0,0,25,449660,1965366
36,18,female,Belg,2,40,ITC,loss,5,right,9,ITC_outcome,0,undefined,0,0,45,448649,1966377
36,18,female,Belg,2,41,guess,neutral,10,left,5,guess_start,697,space,0,0,45,447950,1967076
36,18,female,Belg,2,41,guess,neutral,10,left,5,guess_choice,1344,j,0,0,45,446600,1968426
36,18,female,Belg,2,41,ITC,neutral,10,left,5,ITC_start,1109,space,0,0,45,443915,1971111
36,18,female,Belg,2,41,ITC,neutral,10,left,5,ITC_choice,2495,f,0,0,45,441417,1973609
36,18,female,Belg,2,41,guess,neutral,10,left,5,guess_outcome,0,undefined,0,0,45,445026,1970000
36,18,female,Belg,2,41,ITC,neutral,10,left,5,ITC_outcome,0,undefined,0,0,65,429263,1985763
36,18,female,Belg,2,42,guess,neutral,5,left,8,guess_start,654,space,0,0,65,428606,1986420
36,18,female,Belg,2,42,guess,neutral,5,left,8,guess_choice,902,f,0,0,65,427699,1987327
36,18,female,Belg,2,42,guess,neutral,5,left,8,guess_outcome,0,undefined,0,0,65,426138,1988888
36,18,female,Belg,2,42,ITC,neutral,5,left,8,ITC_start,906,space,0,0,65,425229,1989797
36,18,female,Belg,2,41,ITC,neutral,10,left,5,ITC_collect,1125,k,0,0,45,430279,1984747
36,18,female,Belg,2,41,ITC,neutral,10,left,5,ITC_wait,0,undefined,0,0,45,431407,1983619
36,18,female,Belg,2,42,ITC,neutral,5,left,8,ITC_choice,1951,f,0,0,65,423275,1991751
36,18,female,Belg,2,42,ITC,neutral,5,left,8,ITC_wait,0,undefined,0,0,65,418256,1996770
36,18,female,Belg,2,42,ITC,neutral,5,left,8,ITC_collect,348,k,0,0,65,417905,1997121
36,18,female,Belg,2,42,ITC,neutral,5,left,8,ITC_outcome,0,undefined,0,0,85,416881,1998145
36,18,female,Belg,2,43,guess,loss,5,left,5,guess_start,526,space,0,0,85,416352,1998674
36,18,female,Belg,2,43,guess,loss,5,left,5,guess_choice,841,j,0,0,85,415506,1999520
36,18,female,Belg,2,43,guess,loss,5,left,5,guess_outcome,0,undefined,0,0,70,413946,2001080
36,18,female,Belg,2,43,ITC,loss,5,left,5,ITC_start,513,space,0,0,70,413431,2001595
36,18,female,Belg,2,43,ITC,loss,5,left,5,ITC_choice,1535,f,0,0,70,411893,2003133
36,18,female,Belg,2,43,ITC,loss,5,left,5,ITC_wait,0,undefined,0,0,70,406885,2008141
36,18,female,Belg,2,43,ITC,loss,5,left,5,ITC_collect,509,k,0,0,70,406373,2008653
36,18,female,Belg,2,43,ITC,loss,5,left,5,ITC_outcome,0,undefined,0,0,90,405357,2009669
36,18,female,Belg,2,44,guess,loss,10,right,5,guess_start,860,space,0,0,90,404495,2010531
36,18,female,Belg,2,44,guess,loss,10,right,5,guess_choice,1631,j,0,0,90,402859,2012167
36,18,female,Belg,2,44,guess,loss,10,right,5,guess_outcome,0,undefined,0,0,75,401294,2013732
36,18,female,Belg,2,44,ITC,loss,10,right,5,ITC_start,1021,space,0,0,75,400272,2014754
36,18,female,Belg,2,44,ITC,loss,10,right,5,ITC_choice,2104,f,0,0,75,398166,2016860
36,18,female,Belg,2,44,ITC,loss,10,right,5,ITC_wait,0,undefined,0,0,75,398162,2016864
36,18,female,Belg,2,44,ITC,loss,10,right,5,ITC_collect,1192,k,0,0,75,396967,2018059
36,18,female,Belg,2,44,ITC,loss,10,right,5,ITC_outcome,0,undefined,0,0,80,395963,2019063
36,18,female,Belg,2,45,guess,neutral,5,right,3,guess_start,107,space,0,0,80,395853,2019173
36,18,female,Belg,2,45,guess,neutral,5,right,3,guess_choice,1100,f,0,0,80,394749,2020277
36,18,female,Belg,2,45,guess,neutral,5,right,3,guess_outcome,0,undefined,0,0,80,393189,2021837
36,18,female,Belg,2,45,ITC,neutral,5,right,3,ITC_start,1217,space,0,0,80,391969,2023057
36,18,female,Belg,2,45,ITC,neutral,5,right,3,ITC_choice,1990,j,0,0,80,389976,2025050
36,18,female,Belg,2,45,ITC,neutral,5,right,3,ITC_wait,0,undefined,0,0,80,384970,2030056
36,18,female,Belg,2,45,ITC,neutral,5,right,3,ITC_collect,528,k,0,0,80,384439,2030587
36,18,female,Belg,2,45,ITC,neutral,5,right,3,ITC_outcome,0,undefined,0,0,100,383430,2031596
36,18,female,Belg,2,46,guess,neutral,5,left,10,guess_start,728,space,0,0,100,382698,2032328
36,18,female,Belg,2,46,guess,neutral,5,left,10,guess_choice,912,f,0,0,100,381782,2033244
36,18,female,Belg,2,46,guess,neutral,5,left,10,guess_outcome,0,undefined,0,0,100,380225,2034801
36,18,female,Belg,2,46,ITC,neutral,5,left,10,ITC_start,613,space,0,0,100,379610,2035416
36,18,female,Belg,2,46,ITC,neutral,5,left,10,ITC_choice,1164,f,0,0,100,378443,2036583
36,18,female,Belg,2,46,ITC,neutral,5,left,10,ITC_wait,0,undefined,0,0,100,373428,2041598
36,18,female,Belg,2,46,ITC,neutral,5,left,10,ITC_collect,480,k,0,0,100,372944,2042082
36,18,female,Belg,2,46,ITC,neutral,5,left,10,ITC_outcome,0,undefined,0,0,120,371939,2043087
36,18,female,Belg,2,47,guess,neutral,10,right,6,guess_start,656,space,0,0,120,371280,2043746
36,18,female,Belg,2,47,guess,neutral,10,right,6,guess_choice,752,j,0,0,120,370523,2044503
36,18,female,Belg,2,47,ITC,neutral,10,right,6,ITC_start,943,space,0,0,120,368004,2047022
36,18,female,Belg,2,47,guess,neutral,10,right,6,guess_outcome,0,undefined,0,0,120,368950,2046076
36,18,female,Belg,2,47,ITC,neutral,10,right,6,ITC_wait,0,undefined,0,0,120,365689,2049337
36,18,female,Belg,2,47,ITC,neutral,10,right,6,ITC_collect,657,k,0,0,120,365028,2049998
36,18,female,Belg,2,47,ITC,neutral,10,right,6,ITC_outcome,0,undefined,0,0,126,364019,2051007
36,18,female,Belg,2,47,ITC,neutral,10,right,6,ITC_choice,2308,f,0,0,120,365693,2049333
36,18,female,Belg,2,48,guess,loss,5,right,13,guess_start,483,space,0,0,126,363533,2051493
36,18,female,Belg,2,48,guess,loss,5,right,13,guess_choice,985,f,0,0,126,362543,2052483
36,18,female,Belg,2,48,guess,loss,5,right,13,guess_outcome,0,undefined,0,0,111,360980,2054046
36,18,female,Belg,2,48,ITC,loss,5,right,13,ITC_start,764,space,0,0,111,360213,2054813
36,18,female,Belg,2,48,ITC,loss,5,right,13,ITC_choice,1815,f,0,0,111,358395,2056631
36,18,female,Belg,2,48,ITC,loss,5,right,13,ITC_wait,0,undefined,0,0,111,358391,2056635
36,18,female,Belg,2,48,ITC,loss,5,right,13,ITC_collect,713,k,0,0,111,357675,2057351
36,18,female,Belg,2,48,ITC,loss,5,right,13,ITC_outcome,0,undefined,0,0,124,356652,2058374
36,18,female,Belg,2,49,guess,loss,10,left,7,guess_start,673,space,0,0,124,355975,2059051
36,18,female,Belg,2,49,guess,loss,10,left,7,guess_choice,1583,f,0,0,124,354387,2060639
36,18,female,Belg,2,49,guess,loss,10,left,7,guess_outcome,0,undefined,0,0,109,352816,2062210
36,18,female,Belg,2,49,ITC,loss,10,left,7,ITC_start,590,space,0,0,109,352223,2062803
36,18,female,Belg,2,49,ITC,loss,10,left,7,ITC_choice,1698,j,0,0,109,350522,2064504
36,18,female,Belg,2,49,ITC,loss,10,left,7,ITC_wait,0,undefined,0,0,109,350515,2064511
36,18,female,Belg,2,49,ITC,loss,10,left,7,ITC_collect,469,k,0,0,109,350043,2064983
36,18,female,Belg,2,49,ITC,loss,10,left,7,ITC_outcome,0,undefined,0,0,116,349026,2066000
36,18,female,Belg,2,50,guess,win,5,right,16,guess_start,455,space,0,0,116,348568,2066458
36,18,female,Belg,2,50,guess,win,5,right,16,guess_choice,1277,f,0,0,116,347287,2067739
36,18,female,Belg,2,50,guess,win,5,right,16,guess_outcome,0,undefined,0,0,136,345717,2069309
36,18,female,Belg,2,50,ITC,win,5,right,16,ITC_start,576,space,0,0,136,345139,2069887
36,18,female,Belg,2,50,ITC,win,5,right,16,ITC_choice,1231,f,0,0,136,343906,2071120
36,18,female,Belg,2,50,ITC,win,5,right,16,ITC_wait,0,undefined,0,0,136,343901,2071125
36,18,female,Belg,2,50,ITC,win,5,right,16,ITC_collect,687,k,0,0,136,343210,2071816
36,18,female,Belg,2,50,ITC,win,5,right,16,ITC_outcome,0,undefined,0,0,152,342192,2072834
36,18,female,Belg,2,51,guess,loss,5,right,10,guess_start,574,space,0,0,152,341614,2073412
36,18,female,Belg,2,51,guess,loss,5,right,10,guess_choice,706,j,0,0,152,340902,2074124
36,18,female,Belg,2,51,guess,loss,5,right,10,guess_outcome,0,undefined,0,0,137,339336,2075690
36,18,female,Belg,2,51,ITC,loss,5,right,10,ITC_start,566,space,0,0,137,338768,2076258
36,18,female,Belg,2,51,ITC,loss,5,right,10,ITC_choice,1466,f,0,0,137,337299,2077727
36,18,female,Belg,2,51,ITC,loss,5,right,10,ITC_wait,0,undefined,0,0,137,337295,2077731
36,18,female,Belg,2,51,ITC,loss,5,right,10,ITC_collect,370,k,0,0,137,336922,2078104
36,18,female,Belg,2,51,ITC,loss,5,right,10,ITC_outcome,0,undefined,0,0,147,335906,2079120
36,18,female,Belg,2,52,guess,loss,10,left,8,guess_start,590,space,0,0,147,335313,2079713
36,18,female,Belg,2,52,guess,loss,10,left,8,guess_choice,634,f,0,0,147,334674,2080352
36,18,female,Belg,2,52,guess,loss,10,left,8,guess_outcome,0,undefined,0,0,132,333111,2081915
36,18,female,Belg,2,52,ITC,loss,10,left,8,ITC_start,457,space,0,0,132,332651,2082375
36,18,female,Belg,2,52,ITC,loss,10,left,8,ITC_choice,1887,j,0,0,132,330761,2084265
36,18,female,Belg,2,52,ITC,loss,10,left,8,ITC_wait,0,undefined,0,0,132,330756,2084270
36,18,female,Belg,2,52,ITC,loss,10,left,8,ITC_collect,830,k,0,0,132,329921,2085105
36,18,female,Belg,2,52,ITC,loss,10,left,8,ITC_outcome,0,undefined,0,0,140,328911,2086115
36,18,female,Belg,2,53,guess,neutral,10,right,2,guess_start,687,space,0,0,140,328220,2086806
36,18,female,Belg,2,53,guess,neutral,10,right,2,guess_choice,1082,f,0,0,140,327133,2087893
36,18,female,Belg,2,53,guess,neutral,10,right,2,guess_outcome,0,undefined,0,0,140,325556,2089470
36,18,female,Belg,2,53,ITC,neutral,10,right,2,ITC_start,1903,space,0,0,140,323650,2091376
36,18,female,Belg,2,53,ITC,neutral,10,right,2,ITC_choice,2536,f,0,0,140,321111,2093915
36,18,female,Belg,2,53,ITC,neutral,10,right,2,ITC_wait,0,undefined,0,0,140,321106,2093920
36,18,female,Belg,2,53,ITC,neutral,10,right,2,ITC_collect,310,k,0,0,140,320793,2094233
36,18,female,Belg,2,53,ITC,neutral,10,right,2,ITC_outcome,0,undefined,0,0,142,319759,2095267
36,18,female,Belg,2,54,guess,loss,10,left,4,guess_start,487,space,0,0,142,319246,2095780
36,18,female,Belg,2,54,guess,loss,10,left,4,guess_choice,1091,j,0,0,142,318150,2096876
36,18,female,Belg,2,54,guess,loss,10,left,4,guess_outcome,0,undefined,0,0,127,316576,2098450
36,18,female,Belg,2,54,ITC,loss,10,left,4,ITC_start,664,space,0,0,127,315909,2099117
36,18,female,Belg,2,54,ITC,loss,10,left,4,ITC_choice,1559,f,0,0,127,314347,2100679
36,18,female,Belg,2,54,ITC,loss,10,left,4,ITC_wait,0,undefined,0,0,127,304337,2110689
36,18,female,Belg,2,54,ITC,loss,10,left,4,ITC_collect,1341,k,0,0,127,302993,2112033
36,18,female,Belg,2,54,ITC,loss,10,left,4,ITC_outcome,0,undefined,0,0,147,301980,2113046
36,18,female,Belg,2,55,guess,neutral,5,left,13,guess_start,503,space,0,0,147,301474,2113552
36,18,female,Belg,2,55,guess,neutral,5,left,13,guess_choice,713,j,0,0,147,300755,2114271
36,18,female,Belg,2,55,guess,neutral,5,left,13,guess_outcome,0,undefined,0,0,147,299190,2115836
36,18,female,Belg,2,55,ITC,neutral,5,left,13,ITC_start,1202,space,0,0,147,297985,2117041
36,18,female,Belg,2,55,ITC,neutral,5,left,13,ITC_choice,1055,f,0,0,147,296926,2118100
36,18,female,Belg,2,55,ITC,neutral,5,left,13,ITC_wait,0,undefined,0,0,147,291918,2123108
36,18,female,Belg,2,55,ITC,neutral,5,left,13,ITC_collect,601,k,0,0,147,291314,2123712
36,18,female,Belg,2,55,ITC,neutral,5,left,13,ITC_outcome,0,undefined,0,0,167,290307,2124719
36,18,female,Belg,2,56,guess,neutral,10,left,8,guess_start,260,space,0,0,167,290045,2124981
36,18,female,Belg,2,56,guess,neutral,10,left,8,guess_choice,724,j,0,0,167,289316,2125710
36,18,female,Belg,2,56,guess,neutral,10,left,8,guess_outcome,0,undefined,0,0,167,287742,2127284
36,18,female,Belg,2,56,ITC,neutral,10,left,8,ITC_start,654,space,0,0,167,287086,2127940
36,18,female,Belg,2,56,ITC,neutral,10,left,8,ITC_choice,1634,j,0,0,167,285447,2129579
36,18,female,Belg,2,56,ITC,neutral,10,left,8,ITC_wait,0,undefined,0,0,167,285436,2129590
36,18,female,Belg,2,56,ITC,neutral,10,left,8,ITC_collect,324,k,0,0,167,285108,2129918
36,18,female,Belg,2,56,ITC,neutral,10,left,8,ITC_outcome,0,undefined,0,0,175,284098,2130928
36,18,female,Belg,2,57,guess,win,10,left,1,guess_start,497,space,0,0,175,283597,2131429
36,18,female,Belg,2,57,guess,win,10,left,1,guess_choice,1092,j,0,0,175,282500,2132526
36,18,female,Belg,2,57,guess,win,10,left,1,guess_outcome,0,undefined,0,0,195,280937,2134089
36,18,female,Belg,2,57,ITC,win,10,left,1,ITC_start,704,space,0,0,195,280232,2134794
36,18,female,Belg,2,57,ITC,win,10,left,1,ITC_choice,2428,j,0,0,195,277801,2137225
36,18,female,Belg,2,57,ITC,win,10,left,1,ITC_wait,0,undefined,0,0,195,277796,2137230
36,18,female,Belg,2,57,ITC,win,10,left,1,ITC_collect,359,k,0,0,195,277433,2137593
36,18,female,Belg,2,57,ITC,win,10,left,1,ITC_outcome,0,undefined,0,0,196,276418,2138608
36,18,female,Belg,2,58,guess,win,5,right,14,guess_start,409,space,0,0,196,276006,2139020
36,18,female,Belg,2,58,guess,win,5,right,14,guess_choice,842,f,0,0,196,275159,2139867
36,18,female,Belg,2,58,guess,win,5,right,14,guess_outcome,0,undefined,0,0,216,273597,2141429
36,18,female,Belg,2,58,ITC,win,5,right,14,ITC_start,750,space,0,0,216,272844,2142182
36,18,female,Belg,2,58,ITC,win,5,right,14,ITC_choice,2120,f,0,0,216,270721,2144305
36,18,female,Belg,2,58,ITC,win,5,right,14,ITC_wait,0,undefined,0,0,216,270715,2144311
36,18,female,Belg,2,58,ITC,win,5,right,14,ITC_collect,664,k,0,0,216,270049,2144977
36,18,female,Belg,2,58,ITC,win,5,right,14,ITC_outcome,0,undefined,0,0,230,269038,2145988
36,18,female,Belg,2,59,guess,loss,5,left,15,guess_start,361,space,0,0,230,268674,2146352
36,18,female,Belg,2,59,guess,loss,5,left,15,guess_choice,693,j,0,0,230,267976,2147050
36,18,female,Belg,2,59,guess,loss,5,left,15,guess_outcome,0,undefined,0,0,215,266417,2148609
36,18,female,Belg,2,59,ITC,loss,5,left,15,ITC_start,519,space,0,0,215,265895,2149131
36,18,female,Belg,2,59,ITC,loss,5,left,15,ITC_choice,2352,j,0,0,215,263540,2151486
36,18,female,Belg,2,59,ITC,loss,5,left,15,ITC_wait,0,undefined,0,0,215,263534,2151492
36,18,female,Belg,2,59,ITC,loss,5,left,15,ITC_collect,416,k,0,0,215,263115,2151911
36,18,female,Belg,2,59,ITC,loss,5,left,15,ITC_outcome,0,undefined,0,0,230,262102,2152924
36,18,female,Belg,2,60,guess,win,10,right,7,guess_start,384,space,0,0,230,261714,2153312
36,18,female,Belg,2,60,guess,win,10,right,7,guess_choice,1231,j,0,0,230,260478,2154548
36,18,female,Belg,2,60,guess,win,10,right,7,guess_outcome,0,undefined,0,0,250,258908,2156118
36,18,female,Belg,2,60,ITC,win,10,right,7,ITC_start,478,space,0,0,250,258427,2156599
36,18,female,Belg,2,60,ITC,win,10,right,7,ITC_choice,1756,f,0,0,250,256668,2158358
36,18,female,Belg,2,60,ITC,win,10,right,7,ITC_wait,0,undefined,0,0,250,256662,2158364
36,18,female,Belg,2,60,ITC,win,10,right,7,ITC_collect,527,k,0,0,250,256131,2158895
36,18,female,Belg,2,60,ITC,win,10,right,7,ITC_outcome,0,undefined,0,0,257,255118,2159908
36,18,female,Belg,2,61,guess,loss,10,right,6,guess_start,404,space,0,0,257,254710,2160316
36,18,female,Belg,2,61,guess,loss,10,right,6,guess_choice,940,f,0,0,257,253765,2161261
36,18,female,Belg,2,61,guess,loss,10,right,6,guess_outcome,0,undefined,0,0,242,252208,2162818
36,18,female,Belg,2,61,ITC,loss,10,right,6,ITC_start,449,space,0,0,242,251756,2163270
36,18,female,Belg,2,61,ITC,loss,10,right,6,ITC_choice,1755,f,0,0,242,249999,2165027
36,18,female,Belg,2,61,ITC,loss,10,right,6,ITC_wait,0,undefined,0,0,242,249995,2165031
36,18,female,Belg,2,61,ITC,loss,10,right,6,ITC_collect,337,k,0,0,242,249652,2165374
36,18,female,Belg,2,61,ITC,loss,10,right,6,ITC_outcome,0,undefined,0,0,248,248632,2166394
36,18,female,Belg,2,62,guess,loss,5,right,12,guess_start,435,space,0,0,248,248194,2166832
36,18,female,Belg,2,62,guess,loss,5,right,12,guess_choice,777,j,0,0,248,247413,2167613
36,18,female,Belg,2,62,guess,loss,5,right,12,guess_outcome,0,undefined,0,0,233,245847,2169179
36,18,female,Belg,2,62,ITC,loss,5,right,12,ITC_start,527,space,0,0,233,245318,2169708
36,18,female,Belg,2,62,ITC,loss,5,right,12,ITC_choice,2109,f,0,0,233,243207,2171819
36,18,female,Belg,2,62,ITC,loss,5,right,12,ITC_wait,0,undefined,0,0,233,243202,2171824
36,18,female,Belg,2,62,ITC,loss,5,right,12,ITC_collect,696,k,0,0,233,242504,2172522
36,18,female,Belg,2,62,ITC,loss,5,right,12,ITC_outcome,0,undefined,0,0,245,241482,2173544
36,18,female,Belg,2,63,guess,win,5,right,11,guess_start,421,space,0,0,245,241058,2173968
36,18,female,Belg,2,63,guess,win,5,right,11,guess_choice,1010,f,0,0,245,240043,2174983
36,18,female,Belg,2,63,guess,win,5,right,11,guess_outcome,0,undefined,0,0,265,238482,2176544
36,18,female,Belg,2,63,ITC,win,5,right,11,ITC_start,580,space,0,0,265,237900,2177126
36,18,female,Belg,2,63,ITC,win,5,right,11,ITC_choice,2033,f,0,0,265,235868,2179158
36,18,female,Belg,2,63,ITC,win,5,right,11,ITC_wait,0,undefined,0,0,265,235864,2179162
36,18,female,Belg,2,63,ITC,win,5,right,11,ITC_collect,355,k,0,0,265,235505,2179521
36,18,female,Belg,2,63,ITC,win,5,right,11,ITC_outcome,0,undefined,0,0,276,234497,2180529
36,18,female,Belg,2,64,guess,loss,10,right,2,guess_start,490,space,0,0,276,234004,2181022
36,18,female,Belg,2,64,guess,loss,10,right,2,guess_choice,806,j,0,0,276,233194,2181832
36,18,female,Belg,2,64,guess,loss,10,right,2,guess_outcome,0,undefined,0,0,261,231622,2183404
36,18,female,Belg,2,64,ITC,loss,10,right,2,ITC_start,487,space,0,0,261,231132,2183894
36,18,female,Belg,2,64,ITC,loss,10,right,2,ITC_choice,1775,j,0,0,261,229355,2185671
36,18,female,Belg,2,64,ITC,loss,10,right,2,ITC_wait,0,undefined,0,0,261,219349,2195677
36,18,female,Belg,2,64,ITC,loss,10,right,2,ITC_collect,450,k,0,0,261,218896,2196130
36,18,female,Belg,2,64,ITC,loss,10,right,2,ITC_outcome,0,undefined,0,0,281,217889,2197137
36,18,female,Belg,2,65,guess,neutral,10,left,7,guess_start,575,space,0,0,281,217312,2197714
36,18,female,Belg,2,65,guess,neutral,10,left,7,guess_choice,911,f,0,0,281,216397,2198629
36,18,female,Belg,2,65,guess,neutral,10,left,7,guess_outcome,0,undefined,0,0,281,214829,2200197
36,18,female,Belg,2,65,ITC,neutral,10,left,7,ITC_start,772,space,0,0,281,214055,2200971
36,18,female,Belg,2,65,ITC,neutral,10,left,7,ITC_choice,1518,j,0,0,281,212533,2202493
36,18,female,Belg,2,65,ITC,neutral,10,left,7,ITC_wait,0,undefined,0,0,281,212528,2202498
36,18,female,Belg,2,65,ITC,neutral,10,left,7,ITC_collect,454,k,0,0,281,212071,2202955
36,18,female,Belg,2,65,ITC,neutral,10,left,7,ITC_outcome,0,undefined,0,0,288,211054,2203972
36,18,female,Belg,2,66,guess,win,10,left,8,guess_start,481,space,0,0,288,210570,2204456
36,18,female,Belg,2,66,guess,win,10,left,8,guess_choice,700,j,0,0,288,209866,2205160
36,18,female,Belg,2,66,guess,win,10,left,8,guess_outcome,0,undefined,0,0,308,208304,2206722
36,18,female,Belg,2,66,ITC,win,10,left,8,ITC_start,475,space,0,0,308,207827,2207199
36,18,female,Belg,2,66,ITC,win,10,left,8,ITC_choice,1445,j,0,0,308,206378,2208648
36,18,female,Belg,2,66,ITC,win,10,left,8,ITC_wait,0,undefined,0,0,308,206373,2208653
36,18,female,Belg,2,66,ITC,win,10,left,8,ITC_collect,359,k,0,0,308,206012,2209014
36,18,female,Belg,2,66,ITC,win,10,left,8,ITC_outcome,0,undefined,0,0,316,204989,2210037
36,18,female,Belg,2,67,guess,win,5,left,12,guess_start,567,space,0,0,316,204420,2210606
36,18,female,Belg,2,67,guess,win,5,left,12,guess_choice,616,f,0,0,316,203799,2211227
36,18,female,Belg,2,67,guess,win,5,left,12,guess_outcome,0,undefined,0,0,336,202228,2212798
36,18,female,Belg,2,67,ITC,win,5,left,12,ITC_start,691,space,0,0,336,201535,2213491
36,18,female,Belg,2,67,ITC,win,5,left,12,ITC_choice,2147,j,0,0,336,199386,2215640
36,18,female,Belg,2,67,ITC,win,5,left,12,ITC_wait,0,undefined,0,0,336,199381,2215645
36,18,female,Belg,2,67,ITC,win,5,left,12,ITC_collect,326,k,0,0,336,199052,2215974
36,18,female,Belg,2,67,ITC,win,5,left,12,ITC_outcome,0,undefined,0,0,348,198029,2216997
36,18,female,Belg,2,68,guess,neutral,5,right,16,guess_start,134,space,0,0,348,197893,2217133
36,18,female,Belg,2,68,guess,neutral,5,right,16,guess_choice,700,f,0,0,348,197189,2217837
36,18,female,Belg,2,68,guess,neutral,5,right,16,guess_outcome,0,undefined,0,0,348,195614,2219412
36,18,female,Belg,2,68,ITC,neutral,5,right,16,ITC_start,471,space,0,0,348,195141,2219885
36,18,female,Belg,2,68,ITC,neutral,5,right,16,ITC_choice,1823,f,0,0,348,193316,2221710
36,18,female,Belg,2,68,ITC,neutral,5,right,16,ITC_wait,0,undefined,0,0,348,193311,2221715
36,18,female,Belg,2,68,ITC,neutral,5,right,16,ITC_collect,466,k,0,0,348,192841,2222185
36,18,female,Belg,2,68,ITC,neutral,5,right,16,ITC_outcome,0,undefined,0,0,364,191819,2223207
36,18,female,Belg,2,69,guess,neutral,5,left,4,guess_start,329,space,0,0,364,191488,2223538
36,18,female,Belg,2,69,guess,neutral,5,left,4,guess_choice,940,f,0,0,364,190541,2224485
36,18,female,Belg,2,69,guess,neutral,5,left,4,guess_outcome,0,undefined,0,0,364,188979,2226047
36,18,female,Belg,2,69,ITC,neutral,5,left,4,ITC_start,546,space,0,0,364,188431,2226595
36,18,female,Belg,2,69,ITC,neutral,5,left,4,ITC_choice,2159,f,0,0,364,186269,2228757
36,18,female,Belg,2,69,ITC,neutral,5,left,4,ITC_wait,0,undefined,0,0,364,181258,2233768
36,18,female,Belg,2,69,ITC,neutral,5,left,4,ITC_collect,469,k,0,0,364,180786,2234240
36,18,female,Belg,2,69,ITC,neutral,5,left,4,ITC_outcome,0,undefined,0,0,384,179768,2235258
36,18,female,Belg,2,70,guess,loss,10,right,1,guess_start,524,space,0,0,384,179240,2235786
36,18,female,Belg,2,70,guess,loss,10,right,1,guess_choice,802,j,0,0,384,178433,2236593
36,18,female,Belg,2,70,guess,loss,10,right,1,guess_outcome,0,undefined,0,0,369,176859,2238167
36,18,female,Belg,2,70,ITC,loss,10,right,1,ITC_start,473,space,0,0,369,176383,2238643
36,18,female,Belg,2,70,ITC,loss,10,right,1,ITC_choice,1667,j,0,0,369,174711,2240315
36,18,female,Belg,2,70,ITC,loss,10,right,1,ITC_wait,0,undefined,0,0,369,164703,2250323
36,18,female,Belg,2,70,ITC,loss,10,right,1,ITC_collect,441,k,0,0,369,164251,2250775
36,18,female,Belg,2,70,ITC,loss,10,right,1,ITC_outcome,0,undefined,0,0,389,163234,2251792
36,18,female,Belg,2,71,guess,win,5,left,9,guess_start,411,space,0,0,389,162820,2252206
36,18,female,Belg,2,71,guess,win,5,left,9,guess_choice,755,f,0,0,389,162059,2252967
36,18,female,Belg,2,71,guess,win,5,left,9,guess_outcome,0,undefined,0,0,409,160504,2254522
36,18,female,Belg,2,71,ITC,win,5,left,9,ITC_start,597,space,0,0,409,159901,2255125
36,18,female,Belg,2,71,ITC,win,5,left,9,ITC_choice,1860,f,0,0,409,158037,2256989
36,18,female,Belg,2,71,ITC,win,5,left,9,ITC_wait,0,undefined,0,0,409,153018,2262008
36,18,female,Belg,2,71,ITC,win,5,left,9,ITC_collect,964,k,0,0,409,152050,2262976
36,18,female,Belg,2,71,ITC,win,5,left,9,ITC_outcome,0,undefined,0,0,429,151044,2263982
36,18,female,Belg,2,72,guess,win,5,right,5,guess_start,504,space,0,0,429,150537,2264489
36,18,female,Belg,2,72,guess,win,5,right,5,guess_choice,750,j,0,0,429,149781,2265245
36,18,female,Belg,2,72,guess,win,5,right,5,guess_outcome,0,undefined,0,0,449,148225,2266801
36,18,female,Belg,2,72,ITC,win,5,right,5,ITC_start,444,space,0,0,449,147778,2267248
36,18,female,Belg,2,72,ITC,win,5,right,5,ITC_choice,1976,j,0,0,449,145798,2269228
36,18,female,Belg,2,72,ITC,win,5,right,5,ITC_wait,0,undefined,0,0,449,140789,2274237
36,18,female,Belg,2,72,ITC,win,5,right,5,ITC_collect,485,k,0,0,449,140302,2274724
36,18,female,Belg,2,72,ITC,win,5,right,5,ITC_outcome,0,undefined,0,0,469,139294,2275732
36,18,female,Belg,2,73,guess,loss,5,right,12,guess_start,452,space,0,0,469,138838,2276188
36,18,female,Belg,2,73,guess,loss,5,right,12,guess_choice,746,f,0,0,469,138086,2276940
36,18,female,Belg,2,73,guess,loss,5,right,12,guess_outcome,0,undefined,0,0,454,136524,2278502
36,18,female,Belg,2,73,ITC,loss,5,right,12,ITC_start,475,space,0,0,454,136046,2278980
36,18,female,Belg,2,73,ITC,loss,5,right,12,ITC_choice,2373,j,0,0,454,133670,2281356
36,18,female,Belg,2,73,ITC,loss,5,right,12,ITC_wait,0,undefined,0,0,454,128659,2286367
36,18,female,Belg,2,73,ITC,loss,5,right,12,ITC_collect,726,k,0,0,454,127930,2287096
36,18,female,Belg,2,73,ITC,loss,5,right,12,ITC_outcome,0,undefined,0,0,474,126903,2288123
36,18,female,Belg,2,74,guess,neutral,10,right,4,guess_start,531,space,0,0,474,126368,2288658
36,18,female,Belg,2,74,guess,neutral,10,right,4,guess_choice,623,j,0,0,474,125739,2289287
36,18,female,Belg,2,74,guess,neutral,10,right,4,guess_outcome,0,undefined,0,0,474,124169,2290857
36,18,female,Belg,2,74,ITC,neutral,10,right,4,ITC_start,508,space,0,0,474,123658,2291368
36,18,female,Belg,2,74,ITC,neutral,10,right,4,ITC_choice,2046,f,0,0,474,121610,2293416
36,18,female,Belg,2,74,ITC,neutral,10,right,4,ITC_wait,0,undefined,0,0,474,121605,2293421
36,18,female,Belg,2,74,ITC,neutral,10,right,4,ITC_collect,293,k,0,0,474,121307,2293719
36,18,female,Belg,2,74,ITC,neutral,10,right,4,ITC_outcome,0,undefined,0,0,478,120294,2294732
36,18,female,Belg,2,75,guess,loss,10,left,6,guess_start,327,space,0,0,478,119963,2295063
36,18,female,Belg,2,75,guess,loss,10,left,6,guess_choice,664,f,0,0,478,119294,2295732
36,18,female,Belg,2,75,guess,loss,10,left,6,guess_outcome,0,undefined,0,0,463,117724,2297302
36,18,female,Belg,2,75,ITC,loss,10,left,6,ITC_start,357,space,0,0,463,117364,2297662
36,18,female,Belg,2,75,ITC,loss,10,left,6,ITC_outcome,0,undefined,0,0,469,113899,2301127
36,18,female,Belg,2,75,ITC,loss,10,left,6,ITC_collect,307,k,0,0,463,114908,2300118
36,18,female,Belg,2,76,guess,win,5,right,10,guess_start,354,space,0,0,469,113541,2301485
36,18,female,Belg,2,76,guess,win,5,right,10,guess_choice,550,j,0,0,469,112985,2302041
36,18,female,Belg,2,76,guess,win,5,right,10,guess_outcome,0,undefined,0,0,489,111423,2303603
36,18,female,Belg,2,76,ITC,win,5,right,10,ITC_start,572,space,0,0,489,110848,2304178
36,18,female,Belg,2,76,ITC,win,5,right,10,ITC_wait,0,undefined,0,0,489,103483,2311543
36,18,female,Belg,2,76,ITC,win,5,right,10,ITC_choice,2337,j,0,0,489,108508,2306518
36,18,female,Belg,2,76,ITC,win,5,right,10,ITC_collect,688,k,0,0,489,102791,2312235
36,18,female,Belg,2,76,ITC,win,5,right,10,ITC_outcome,0,undefined,0,0,509,101770,2313256
36,18,female,Belg,2,77,guess,win,5,right,4,guess_start,533,space,0,0,509,101234,2313792
36,18,female,Belg,2,75,ITC,loss,10,left,6,ITC_wait,0,undefined,0,0,463,115216,2299810
36,18,female,Belg,2,75,ITC,loss,10,left,6,ITC_choice,2138,j,0,0,463,115223,2299803
36,18,female,Belg,2,77,guess,win,5,right,4,guess_choice,926,f,0,0,509,100302,2314724
36,18,female,Belg,2,77,ITC,win,5,right,4,ITC_start,585,space,0,0,529,98155,2316871
36,18,female,Belg,2,77,guess,win,5,right,4,guess_outcome,0,undefined,0,0,529,98743,2316283
36,18,female,Belg,2,77,ITC,win,5,right,4,ITC_choice,1308,j,0,0,529,96844,2318182
36,18,female,Belg,2,77,ITC,win,5,right,4,ITC_wait,0,undefined,0,0,529,91823,2323203
36,18,female,Belg,2,77,ITC,win,5,right,4,ITC_collect,1278,k,0,0,529,90540,2324486
36,18,female,Belg,2,77,ITC,win,5,right,4,ITC_outcome,0,undefined,0,0,549,89518,2325508
36,18,female,Belg,2,78,guess,neutral,5,left,3,guess_start,764,space,0,0,549,88750,2326276
36,18,female,Belg,2,78,guess,neutral,5,left,3,guess_choice,1321,f,0,0,549,87424,2327602
36,18,female,Belg,2,78,guess,neutral,5,left,3,guess_outcome,0,undefined,0,0,549,85856,2329170
36,18,female,Belg,2,78,ITC,neutral,5,left,3,ITC_start,1557,space,0,0,549,84294,2330732
36,18,female,Belg,2,78,ITC,neutral,5,left,3,ITC_choice,1183,f,0,0,549,83103,2331923
36,18,female,Belg,2,78,ITC,neutral,5,left,3,ITC_wait,0,undefined,0,0,549,78084,2336942
36,18,female,Belg,2,78,ITC,neutral,5,left,3,ITC_collect,506,k,0,0,549,77574,2337452
36,18,female,Belg,2,78,ITC,neutral,5,left,3,ITC_outcome,0,undefined,0,0,569,76566,2338460
36,18,female,Belg,2,79,guess,loss,5,left,10,guess_start,392,space,0,0,569,76167,2338859
36,18,female,Belg,2,79,guess,loss,5,left,10,guess_choice,952,j,0,0,569,75208,2339818
36,18,female,Belg,2,79,guess,loss,5,left,10,guess_outcome,0,undefined,0,0,554,73643,2341383
36,18,female,Belg,2,79,ITC,loss,5,left,10,ITC_start,617,space,0,0,554,73023,2342003
36,18,female,Belg,2,79,ITC,loss,5,left,10,ITC_wait,0,undefined,0,0,554,71028,2343998
36,18,female,Belg,2,79,ITC,loss,5,left,10,ITC_choice,1987,j,0,0,554,71033,2343993
36,18,female,Belg,2,79,ITC,loss,5,left,10,ITC_collect,593,k,0,0,554,70426,2344600
36,18,female,Belg,2,79,ITC,loss,5,left,10,ITC_outcome,0,undefined,0,0,564,69418,2345608
36,18,female,Belg,2,80,guess,neutral,5,right,15,guess_start,418,space,0,0,564,68992,2346034
36,18,female,Belg,2,80,guess,neutral,5,right,15,guess_choice,710,f,0,0,564,68276,2346750
36,18,female,Belg,2,80,guess,neutral,5,right,15,guess_outcome,0,undefined,0,0,564,66706,2348320
36,18,female,Belg,2,80,ITC,neutral,5,right,15,ITC_start,476,space,0,0,564,66227,2348799
36,18,female,Belg,2,80,ITC,neutral,5,right,15,ITC_choice,1525,j,0,0,564,64696,2350330
36,18,female,Belg,2,80,ITC,neutral,5,right,15,ITC_wait,0,undefined,0,0,564,59688,2355338
36,18,female,Belg,2,80,ITC,neutral,5,right,15,ITC_collect,874,k,0,0,564,58809,2356217
36,18,female,Belg,2,80,ITC,neutral,5,right,15,ITC_outcome,0,undefined,0,0,584,57804,2357222
36,18,female,Belg,2,81,guess,neutral,5,left,10,guess_start,968,space,0,0,584,56831,2358195
36,18,female,Belg,2,81,guess,neutral,5,left,10,guess_choice,1109,j,0,0,584,55717,2359309
36,18,female,Belg,2,81,guess,neutral,5,left,10,guess_outcome,0,undefined,0,0,584,54153,2360873
36,18,female,Belg,2,81,ITC,neutral,5,left,10,ITC_start,958,space,0,0,584,53194,2361832
36,18,female,Belg,2,81,ITC,neutral,5,left,10,ITC_wait,0,undefined,0,0,584,46236,2368790
36,18,female,Belg,2,81,ITC,neutral,5,left,10,ITC_outcome,0,undefined,0,0,604,44502,2370524
36,18,female,Belg,2,82,guess,win,5,left,5,guess_start,395,space,0,0,604,44098,2370928
36,18,female,Belg,2,81,ITC,neutral,5,left,10,ITC_collect,713,k,0,0,584,45518,2369508
36,18,female,Belg,2,82,guess,win,5,left,5,guess_choice,987,j,0,0,604,43106,2371920
36,18,female,Belg,2,82,guess,win,5,left,5,guess_outcome,0,undefined,0,0,624,41540,2373486
36,18,female,Belg,2,82,ITC,win,5,left,5,ITC_start,492,space,0,0,624,41045,2373981
36,18,female,Belg,2,82,ITC,win,5,left,5,ITC_choice,1591,f,0,0,624,39451,2375575
36,18,female,Belg,2,82,ITC,win,5,left,5,ITC_collect,507,k,0,0,624,33926,2381100
36,18,female,Belg,2,82,ITC,win,5,left,5,ITC_wait,0,undefined,0,0,624,34439,2380587
36,18,female,Belg,2,81,ITC,neutral,5,left,10,ITC_choice,1943,f,0,0,584,51246,2363780
36,18,female,Belg,2,82,ITC,win,5,left,5,ITC_outcome,0,undefined,0,0,644,32904,2382122
36,18,female,Belg,2,83,guess,loss,5,right,3,guess_start,450,space,0,0,644,32448,2382578
36,18,female,Belg,2,83,guess,loss,5,right,3,guess_choice,675,f,0,0,644,31763,2383263
36,18,female,Belg,2,83,guess,loss,5,right,3,guess_outcome,0,undefined,0,0,629,30190,2384836
36,18,female,Belg,2,83,ITC,loss,5,right,3,ITC_start,474,space,0,0,629,29712,2385314
36,18,female,Belg,2,83,ITC,loss,5,right,3,ITC_choice,1396,j,0,0,629,28312,2386714
36,18,female,Belg,2,83,ITC,loss,5,right,3,ITC_wait,0,undefined,0,0,629,23304,2391722
36,18,female,Belg,2,83,ITC,loss,5,right,3,ITC_collect,424,k,0,0,629,22875,2392151
36,18,female,Belg,2,83,ITC,loss,5,right,3,ITC_outcome,0,undefined,0,0,649,21863,2393163
36,18,female,Belg,2,84,guess,win,5,right,6,guess_start,385,space,0,0,649,21473,2393553
36,18,female,Belg,2,84,guess,win,5,right,6,guess_choice,884,j,0,0,649,20584,2394442
36,18,female,Belg,2,84,guess,win,5,right,6,guess_outcome,0,undefined,0,0,669,19015,2396011
36,18,female,Belg,2,84,ITC,win,5,right,6,ITC_start,574,space,0,0,669,18438,2396588
36,18,female,Belg,2,84,ITC,win,5,right,6,ITC_choice,1731,j,0,0,669,16705,2398321
36,18,female,Belg,2,84,ITC,win,5,right,6,ITC_wait,0,undefined,0,0,669,11689,2403337
36,18,female,Belg,2,84,ITC,win,5,right,6,ITC_outcome,0,undefined,0,0,689,10225,2404801
36,18,female,Belg,2,85,guess,win,10,right,8,guess_start,468,space,0,0,689,9754,2405272
36,18,female,Belg,2,85,guess,win,10,right,8,guess_choice,508,f,0,0,689,9241,2405785
36,18,female,Belg,2,85,guess,win,10,right,8,guess_outcome,0,undefined,0,0,709,7680,2407346
36,18,female,Belg,2,85,ITC,win,10,right,8,ITC_start,928,space,0,0,709,6749,2408277
36,18,female,Belg,2,85,ITC,win,10,right,8,ITC_choice,1285,j,0,0,709,5462,2409564
36,18,female,Belg,2,85,ITC,win,10,right,8,ITC_wait,0,undefined,0,0,709,-18,2415044
36,18,female,Belg,2,84,ITC,win,5,right,6,ITC_collect,456,k,0,0,669,11231,2403795
36,18,female,Belg,3,86,guess,win,5,right,8,guess_start,948,space,0,0,0,479049,2499203
36,18,female,Belg,3,86,guess,win,5,right,8,guess_choice,821,j,0,0,0,478223,2500029
36,18,female,Belg,3,86,guess,win,5,right,8,guess_outcome,0,undefined,0,0,20,476659,2501593
36,18,female,Belg,3,86,ITC,win,5,right,8,ITC_start,31,space,0,0,20,476626,2501626
36,18,female,Belg,3,86,ITC,win,5,right,8,ITC_choice,2878,j,0,0,20,473746,2504506
36,18,female,Belg,3,86,ITC,win,5,right,8,ITC_wait,0,undefined,0,0,20,468729,2509523
36,18,female,Belg,3,86,ITC,win,5,right,8,ITC_collect,468,k,0,0,20,468259,2509993
36,18,female,Belg,3,86,ITC,win,5,right,8,ITC_outcome,0,undefined,0,0,40,467244,2511008
36,18,female,Belg,3,87,guess,neutral,5,left,5,guess_start,2005,space,0,0,40,465235,2513017
36,18,female,Belg,3,87,guess,neutral,5,left,5,guess_choice,931,f,0,0,40,464296,2513956
36,18,female,Belg,3,87,guess,neutral,5,left,5,guess_outcome,0,undefined,0,0,40,462719,2515533
36,18,female,Belg,3,87,ITC,neutral,5,left,5,ITC_start,1022,space,0,0,40,461695,2516557
36,18,female,Belg,3,87,ITC,neutral,5,left,5,ITC_choice,1133,f,0,0,40,460560,2517692
36,18,female,Belg,3,87,ITC,neutral,5,left,5,ITC_wait,0,undefined,0,0,40,455550,2522702
36,18,female,Belg,3,87,ITC,neutral,5,left,5,ITC_collect,365,k,0,0,40,455182,2523070
36,18,female,Belg,3,87,ITC,neutral,5,left,5,ITC_outcome,0,undefined,0,0,60,454159,2524093
36,18,female,Belg,3,88,guess,win,10,left,6,guess_start,444,space,0,0,60,453712,2524540
36,18,female,Belg,3,88,guess,win,10,left,6,guess_choice,850,j,0,0,60,452857,2525395
36,18,female,Belg,3,88,guess,win,10,left,6,guess_outcome,0,undefined,0,0,80,451294,2526958
36,18,female,Belg,3,88,ITC,win,10,left,6,ITC_start,1221,space,0,0,80,450071,2528181
36,18,female,Belg,3,88,ITC,win,10,left,6,ITC_choice,1542,j,0,0,80,448527,2529725
36,18,female,Belg,3,88,ITC,win,10,left,6,ITC_wait,0,undefined,0,0,80,448522,2529730
36,18,female,Belg,3,88,ITC,win,10,left,6,ITC_collect,405,k,0,0,80,448113,2530139
36,18,female,Belg,3,88,ITC,win,10,left,6,ITC_outcome,0,undefined,0,0,86,447094,2531158
36,18,female,Belg,3,89,guess,neutral,5,left,14,guess_start,407,space,0,0,86,446684,2531568
36,18,female,Belg,3,89,guess,neutral,5,left,14,guess_choice,696,j,0,0,86,445982,2532270
36,18,female,Belg,3,89,guess,neutral,5,left,14,guess_outcome,0,undefined,0,0,86,444409,2533843
36,18,female,Belg,3,89,ITC,neutral,5,left,14,ITC_start,556,space,0,0,86,443850,2534402
36,18,female,Belg,3,89,ITC,neutral,5,left,14,ITC_choice,1194,j,0,0,86,442654,2535598
36,18,female,Belg,3,89,ITC,neutral,5,left,14,ITC_wait,0,undefined,0,0,86,442649,2535603
36,18,female,Belg,3,89,ITC,neutral,5,left,14,ITC_collect,867,k,0,0,86,441778,2536474
36,18,female,Belg,3,89,ITC,neutral,5,left,14,ITC_outcome,0,undefined,0,0,100,440769,2537483
36,18,female,Belg,3,90,guess,loss,5,right,2,guess_start,407,space,0,0,100,440360,2537892
36,18,female,Belg,3,90,guess,loss,5,right,2,guess_choice,693,f,0,0,100,439661,2538591
36,18,female,Belg,3,90,guess,loss,5,right,2,guess_outcome,0,undefined,0,0,85,438099,2540153
36,18,female,Belg,3,90,ITC,loss,5,right,2,ITC_start,402,space,0,0,85,437696,2540556
36,18,female,Belg,3,90,ITC,loss,5,right,2,ITC_choice,1527,j,0,0,85,436166,2542086
36,18,female,Belg,3,90,ITC,loss,5,right,2,ITC_wait,0,undefined,0,0,85,431154,2547098
36,18,female,Belg,3,90,ITC,loss,5,right,2,ITC_collect,465,k,0,0,85,430687,2547565
36,18,female,Belg,3,90,ITC,loss,5,right,2,ITC_outcome,0,undefined,0,0,105,429679,2548573
36,18,female,Belg,3,91,guess,neutral,10,left,7,guess_start,441,space,0,0,105,429235,2549017
36,18,female,Belg,3,91,guess,neutral,10,left,7,guess_choice,577,f,0,0,105,428652,2549600
36,18,female,Belg,3,91,guess,neutral,10,left,7,guess_outcome,0,undefined,0,0,105,427089,2551163
36,18,female,Belg,3,91,ITC,neutral,10,left,7,ITC_start,562,space,0,0,105,426525,2551727
36,18,female,Belg,3,91,ITC,neutral,10,left,7,ITC_choice,1424,j,0,0,105,425098,2553154
36,18,female,Belg,3,91,ITC,neutral,10,left,7,ITC_wait,0,undefined,0,0,105,425092,2553160
36,18,female,Belg,3,91,ITC,neutral,10,left,7,ITC_collect,347,k,0,0,105,424741,2553511
36,18,female,Belg,3,91,ITC,neutral,10,left,7,ITC_outcome,0,undefined,0,0,112,423734,2554518
36,18,female,Belg,3,92,guess,loss,5,left,5,guess_start,369,space,0,0,112,423362,2554890
36,18,female,Belg,3,92,guess,loss,5,left,5,guess_choice,703,j,0,0,112,422653,2555599
36,18,female,Belg,3,92,guess,loss,5,left,5,guess_outcome,0,undefined,0,0,97,421089,2557163
36,18,female,Belg,3,92,ITC,loss,5,left,5,ITC_start,488,space,0,0,97,420598,2557654
36,18,female,Belg,3,92,ITC,loss,5,left,5,ITC_choice,803,f,0,0,97,419783,2558469
36,18,female,Belg,3,92,ITC,loss,5,left,5,ITC_wait,0,undefined,0,0,97,414775,2563477
36,18,female,Belg,3,92,ITC,loss,5,left,5,ITC_collect,427,k,0,0,97,414345,2563907
36,18,female,Belg,3,92,ITC,loss,5,left,5,ITC_outcome,0,undefined,0,0,117,413334,2564918
36,18,female,Belg,3,93,guess,neutral,10,right,6,guess_start,507,space,0,0,117,412823,2565429
36,18,female,Belg,3,93,guess,neutral,10,right,6,guess_choice,667,f,0,0,117,412151,2566101
36,18,female,Belg,3,93,guess,neutral,10,right,6,guess_outcome,0,undefined,0,0,117,410594,2567658
36,18,female,Belg,3,93,ITC,neutral,10,right,6,ITC_start,680,space,0,0,117,409911,2568341
36,18,female,Belg,3,93,ITC,neutral,10,right,6,ITC_choice,2241,j,0,0,117,407667,2570585
36,18,female,Belg,3,93,ITC,neutral,10,right,6,ITC_wait,0,undefined,0,0,117,397660,2580592
36,18,female,Belg,3,93,ITC,neutral,10,right,6,ITC_collect,434,k,0,0,117,397224,2581028
36,18,female,Belg,3,93,ITC,neutral,10,right,6,ITC_outcome,0,undefined,0,0,137,396206,2582046
36,18,female,Belg,3,94,guess,neutral,5,left,1,guess_start,416,space,0,0,137,395788,2582464
36,18,female,Belg,3,94,guess,neutral,5,left,1,guess_choice,827,f,0,0,137,394956,2583296
36,18,female,Belg,3,94,guess,neutral,5,left,1,guess_outcome,0,undefined,0,0,137,393395,2584857
36,18,female,Belg,3,94,ITC,neutral,5,left,1,ITC_start,764,space,0,0,137,392629,2585623
36,18,female,Belg,3,94,ITC,neutral,5,left,1,ITC_choice,1566,f,0,0,137,391060,2587192
36,18,female,Belg,3,94,ITC,neutral,5,left,1,ITC_wait,0,undefined,0,0,137,386046,2592206
36,18,female,Belg,3,94,ITC,neutral,5,left,1,ITC_collect,412,k,0,0,137,385631,2592621
36,18,female,Belg,3,94,ITC,neutral,5,left,1,ITC_outcome,0,undefined,0,0,157,384620,2593632
36,18,female,Belg,3,95,guess,win,10,left,4,guess_start,361,space,0,0,157,384256,2593996
36,18,female,Belg,3,95,guess,win,10,left,4,guess_choice,702,j,0,0,157,383549,2594703
36,18,female,Belg,3,95,guess,win,10,left,4,guess_outcome,0,undefined,0,0,177,381991,2596261
36,18,female,Belg,3,95,ITC,win,10,left,4,ITC_start,367,space,0,0,177,381621,2596631
36,18,female,Belg,3,95,ITC,win,10,left,4,ITC_choice,1287,j,0,0,177,380331,2597921
36,18,female,Belg,3,95,ITC,win,10,left,4,ITC_wait,0,undefined,0,0,177,380327,2597925
36,18,female,Belg,3,95,ITC,win,10,left,4,ITC_collect,219,k,0,0,177,380104,2598148
36,18,female,Belg,3,95,ITC,win,10,left,4,ITC_outcome,0,undefined,0,0,181,379096,2599156
36,18,female,Belg,3,96,guess,neutral,5,right,11,guess_start,371,space,0,0,181,378722,2599530
36,18,female,Belg,3,96,guess,neutral,5,right,11,guess_choice,480,f,0,0,181,378239,2600013
36,18,female,Belg,3,96,guess,neutral,5,right,11,guess_outcome,0,undefined,0,0,181,376682,2601570
36,18,female,Belg,3,96,ITC,neutral,5,right,11,ITC_start,646,space,0,0,181,376033,2602219
36,18,female,Belg,3,96,ITC,neutral,5,right,11,ITC_choice,1425,f,0,0,181,374605,2603647
36,18,female,Belg,3,96,ITC,neutral,5,right,11,ITC_wait,0,undefined,0,0,181,374601,2603651
36,18,female,Belg,3,96,ITC,neutral,5,right,11,ITC_collect,341,k,0,0,181,374256,2603996
36,18,female,Belg,3,96,ITC,neutral,5,right,11,ITC_outcome,0,undefined,0,0,192,373236,2605016
36,18,female,Belg,3,97,guess,loss,10,left,3,guess_start,257,space,0,0,192,372977,2605275
36,18,female,Belg,3,97,guess,loss,10,left,3,guess_choice,801,j,0,0,192,372172,2606080
36,18,female,Belg,3,97,guess,loss,10,left,3,guess_outcome,0,undefined,0,0,177,370606,2607646
36,18,female,Belg,3,97,ITC,loss,10,left,3,ITC_start,368,space,0,0,177,370236,2608016
36,18,female,Belg,3,97,ITC,loss,10,left,3,ITC_choice,1349,j,0,0,177,368885,2609367
36,18,female,Belg,3,97,ITC,loss,10,left,3,ITC_wait,0,undefined,0,0,177,368881,2609371
36,18,female,Belg,3,97,ITC,loss,10,left,3,ITC_collect,265,k,0,0,177,368613,2609639
36,18,female,Belg,3,97,ITC,loss,10,left,3,ITC_outcome,0,undefined,0,0,180,367601,2610651
36,18,female,Belg,3,98,guess,win,10,left,7,guess_start,324,space,0,0,180,367274,2610978
36,18,female,Belg,3,98,guess,win,10,left,7,guess_choice,486,f,0,0,180,366784,2611468
36,18,female,Belg,3,98,guess,win,10,left,7,guess_outcome,0,undefined,0,0,200,365217,2613035
36,18,female,Belg,3,98,ITC,win,10,left,7,ITC_start,480,space,0,0,200,364732,2613520
36,18,female,Belg,3,98,ITC,win,10,left,7,ITC_choice,1249,j,0,0,200,363481,2614771
36,18,female,Belg,3,98,ITC,win,10,left,7,ITC_wait,0,undefined,0,0,200,363476,2614776
36,18,female,Belg,3,98,ITC,win,10,left,7,ITC_collect,309,k,0,0,200,363164,2615088
36,18,female,Belg,3,98,ITC,win,10,left,7,ITC_outcome,0,undefined,0,0,207,362157,2616095
36,18,female,Belg,3,99,guess,win,5,left,15,guess_start,122,space,0,0,207,362032,2616220
36,18,female,Belg,3,99,guess,win,5,left,15,guess_choice,1531,j,0,0,207,360495,2617757
36,18,female,Belg,3,99,guess,win,5,left,15,guess_outcome,0,undefined,0,0,227,358925,2619327
36,18,female,Belg,3,99,ITC,win,5,left,15,ITC_start,622,space,0,0,227,358299,2619953
36,18,female,Belg,3,99,ITC,win,5,left,15,ITC_choice,935,f,0,0,227,357361,2620891
36,18,female,Belg,3,99,ITC,win,5,left,15,ITC_wait,0,undefined,0,0,227,352350,2625902
36,18,female,Belg,3,99,ITC,win,5,left,15,ITC_collect,508,k,0,0,227,351839,2626413
36,18,female,Belg,3,99,ITC,win,5,left,15,ITC_outcome,0,undefined,0,0,247,350824,2627428
36,18,female,Belg,3,100,guess,neutral,5,right,6,guess_start,654,space,0,0,247,350167,2628085
36,18,female,Belg,3,100,guess,neutral,5,right,6,guess_choice,659,j,0,0,247,349503,2628749
36,18,female,Belg,3,100,guess,neutral,5,right,6,guess_outcome,0,undefined,0,0,247,347939,2630313
36,18,female,Belg,3,100,ITC,neutral,5,right,6,ITC_start,819,space,0,0,247,347118,2631134
36,18,female,Belg,3,100,ITC,neutral,5,right,6,ITC_choice,1362,j,0,0,247,345753,2632499
36,18,female,Belg,3,100,ITC,neutral,5,right,6,ITC_wait,0,undefined,0,0,247,340740,2637512
36,18,female,Belg,3,100,ITC,neutral,5,right,6,ITC_collect,316,k,0,0,247,340421,2637831
36,18,female,Belg,3,100,ITC,neutral,5,right,6,ITC_outcome,0,undefined,0,0,267,339412,2638840
36,18,female,Belg,3,101,guess,neutral,10,right,1,guess_start,505,space,0,0,267,338902,2639350
36,18,female,Belg,3,101,guess,neutral,10,right,1,guess_choice,861,j,0,0,267,338036,2640216
36,18,female,Belg,3,101,guess,neutral,10,right,1,guess_outcome,0,undefined,0,0,267,336464,2641788
36,18,female,Belg,3,101,ITC,neutral,10,right,1,ITC_start,553,space,0,0,267,335910,2642342
36,18,female,Belg,3,101,ITC,neutral,10,right,1,ITC_choice,1665,j,0,0,267,334242,2644010
36,18,female,Belg,3,101,ITC,neutral,10,right,1,ITC_wait,0,undefined,0,0,267,324239,2654013
36,18,female,Belg,3,101,ITC,neutral,10,right,1,ITC_collect,851,k,0,0,267,323385,2654867
36,18,female,Belg,3,101,ITC,neutral,10,right,1,ITC_outcome,0,undefined,0,0,287,322378,2655874
36,18,female,Belg,3,102,guess,win,10,right,2,guess_start,404,space,0,0,287,321971,2656281
36,18,female,Belg,3,102,guess,win,10,right,2,guess_choice,943,f,0,0,287,321019,2657233
36,18,female,Belg,3,102,guess,win,10,right,2,guess_outcome,0,undefined,0,0,307,319444,2658808
36,18,female,Belg,3,102,ITC,win,10,right,2,ITC_start,632,space,0,0,307,318809,2659443
36,18,female,Belg,3,102,ITC,win,10,right,2,ITC_choice,1785,f,0,0,307,317021,2661231
36,18,female,Belg,3,102,ITC,win,10,right,2,ITC_wait,0,undefined,0,0,307,317015,2661237
36,18,female,Belg,3,102,ITC,win,10,right,2,ITC_collect,394,k,0,0,307,316617,2661635
36,18,female,Belg,3,102,ITC,win,10,right,2,ITC_outcome,0,undefined,0,0,309,315604,2662648
36,18,female,Belg,3,103,guess,win,5,left,12,guess_start,407,space,0,0,309,315193,2663059
36,18,female,Belg,3,103,guess,win,5,left,12,guess_choice,712,j,0,0,309,314476,2663776
36,18,female,Belg,3,103,guess,win,5,left,12,guess_outcome,0,undefined,0,0,329,312913,2665339
36,18,female,Belg,3,103,ITC,win,5,left,12,ITC_start,938,space,0,0,329,311973,2666279
36,18,female,Belg,3,103,ITC,win,5,left,12,ITC_choice,1413,f,0,0,329,310557,2667695
36,18,female,Belg,3,103,ITC,win,5,left,12,ITC_wait,0,undefined,0,0,329,305544,2672708
36,18,female,Belg,3,103,ITC,win,5,left,12,ITC_collect,438,k,0,0,329,305103,2673149
36,18,female,Belg,3,103,ITC,win,5,left,12,ITC_outcome,0,undefined,0,0,349,304099,2674153
36,18,female,Belg,3,104,guess,win,5,right,2,guess_start,603,space,0,0,349,303493,2674759
36,18,female,Belg,3,104,guess,win,5,right,2,guess_choice,657,j,0,0,349,302830,2675422
36,18,female,Belg,3,104,guess,win,5,right,2,guess_outcome,0,undefined,0,0,369,301264,2676988
36,18,female,Belg,3,104,ITC,win,5,right,2,ITC_start,605,space,0,0,369,300656,2677596
36,18,female,Belg,3,104,ITC,win,5,right,2,ITC_choice,1219,j,0,0,369,299435,2678817
36,18,female,Belg,3,104,ITC,win,5,right,2,ITC_wait,0,undefined,0,0,369,294420,2683832
36,18,female,Belg,3,104,ITC,win,5,right,2,ITC_collect,489,k,0,0,369,293926,2684326
36,18,female,Belg,3,104,ITC,win,5,right,2,ITC_outcome,0,undefined,0,0,389,292904,2685348
36,18,female,Belg,3,105,guess,win,5,right,9,guess_start,435,space,0,0,389,292465,2685787
36,18,female,Belg,3,105,guess,win,5,right,9,guess_choice,600,f,0,0,389,291860,2686392
36,18,female,Belg,3,105,guess,win,5,right,9,guess_outcome,0,undefined,0,0,409,290294,2687958
36,18,female,Belg,3,105,ITC,win,5,right,9,ITC_start,525,space,0,0,409,289766,2688486
36,18,female,Belg,3,105,ITC,win,5,right,9,ITC_choice,1199,j,0,0,409,288564,2689688
36,18,female,Belg,3,105,ITC,win,5,right,9,ITC_wait,0,undefined,0,0,409,283554,2694698
36,18,female,Belg,3,105,ITC,win,5,right,9,ITC_collect,595,k,0,0,409,282955,2695297
36,18,female,Belg,3,105,ITC,win,5,right,9,ITC_outcome,0,undefined,0,0,429,281936,2696316
36,18,female,Belg,3,106,guess,win,5,right,16,guess_start,578,space,0,0,429,281350,2696902
36,18,female,Belg,3,106,guess,win,5,right,16,guess_choice,845,f,0,0,429,280501,2697751
36,18,female,Belg,3,106,guess,win,5,right,16,guess_outcome,0,undefined,0,0,449,278939,2699313
36,18,female,Belg,3,106,ITC,win,5,right,16,ITC_start,835,space,0,0,449,278102,2700150
36,18,female,Belg,3,106,ITC,win,5,right,16,ITC_choice,1943,f,0,0,449,276157,2702095
36,18,female,Belg,3,106,ITC,win,5,right,16,ITC_wait,0,undefined,0,0,449,276151,2702101
36,18,female,Belg,3,106,ITC,win,5,right,16,ITC_collect,708,k,0,0,449,275439,2702813
36,18,female,Belg,3,106,ITC,win,5,right,16,ITC_outcome,0,undefined,0,0,465,274419,2703833
36,18,female,Belg,3,107,guess,win,10,left,3,guess_start,379,space,0,0,465,274037,2704215
36,18,female,Belg,3,107,guess,win,10,left,3,guess_choice,1264,j,0,0,465,272767,2705485
36,18,female,Belg,3,107,guess,win,10,left,3,guess_outcome,0,undefined,0,0,485,271200,2707052
36,18,female,Belg,3,107,ITC,win,10,left,3,ITC_start,692,space,0,0,485,270505,2707747
36,18,female,Belg,3,107,ITC,win,10,left,3,ITC_choice,2149,j,0,0,485,268352,2709900
36,18,female,Belg,3,107,ITC,win,10,left,3,ITC_wait,0,undefined,0,0,485,268348,2709904
36,18,female,Belg,3,107,ITC,win,10,left,3,ITC_collect,401,k,0,0,485,267942,2710310
36,18,female,Belg,3,107,ITC,win,10,left,3,ITC_outcome,0,undefined,0,0,488,266929,2711323
36,18,female,Belg,3,108,guess,neutral,10,right,3,guess_start,650,space,0,0,488,266277,2711975
36,18,female,Belg,3,108,guess,neutral,10,right,3,guess_choice,836,f,0,0,488,265436,2712816
36,18,female,Belg,3,108,guess,neutral,10,right,3,guess_outcome,0,undefined,0,0,488,263880,2714372
36,18,female,Belg,3,108,ITC,neutral,10,right,3,ITC_start,588,space,0,0,488,263289,2714963
36,18,female,Belg,3,108,ITC,neutral,10,right,3,ITC_choice,2100,f,0,0,488,261186,2717066
36,18,female,Belg,3,108,ITC,neutral,10,right,3,ITC_wait,0,undefined,0,0,488,261181,2717071
36,18,female,Belg,3,108,ITC,neutral,10,right,3,ITC_collect,280,k,0,0,488,260895,2717357
36,18,female,Belg,3,108,ITC,neutral,10,right,3,ITC_outcome,0,undefined,0,0,491,259879,2718373
36,18,female,Belg,3,109,guess,neutral,5,right,2,guess_start,547,space,0,0,491,259328,2718924
36,18,female,Belg,3,109,guess,neutral,5,right,2,guess_choice,923,f,0,0,491,258400,2719852
36,18,female,Belg,3,109,guess,neutral,5,right,2,guess_outcome,0,undefined,0,0,491,256839,2721413
36,18,female,Belg,3,109,ITC,neutral,5,right,2,ITC_start,480,space,0,0,491,256357,2721895
36,18,female,Belg,3,109,ITC,neutral,5,right,2,ITC_choice,1229,j,0,0,491,255125,2723127
36,18,female,Belg,3,109,ITC,neutral,5,right,2,ITC_wait,0,undefined,0,0,491,250119,2728133
36,18,female,Belg,3,109,ITC,neutral,5,right,2,ITC_collect,814,k,0,0,491,249302,2728950
36,18,female,Belg,3,109,ITC,neutral,5,right,2,ITC_outcome,0,undefined,0,0,511,248281,2729971
36,18,female,Belg,3,110,guess,neutral,5,right,4,guess_start,552,space,0,0,511,247727,2730525
36,18,female,Belg,3,110,guess,neutral,5,right,4,guess_choice,1116,f,0,0,511,246606,2731646
36,18,female,Belg,3,110,guess,neutral,5,right,4,guess_outcome,0,undefined,0,0,511,245044,2733208
36,18,female,Belg,3,110,ITC,neutral,5,right,4,ITC_start,582,space,0,0,511,244460,2733792
36,18,female,Belg,3,110,ITC,neutral,5,right,4,ITC_wait,0,undefined,0,0,511,242997,2735255
36,18,female,Belg,3,110,ITC,neutral,5,right,4,ITC_choice,1456,f,0,0,511,243002,2735250
36,18,female,Belg,3,110,ITC,neutral,5,right,4,ITC_collect,611,k,0,0,511,242380,2735872
36,18,female,Belg,3,110,ITC,neutral,5,right,4,ITC_outcome,0,undefined,0,0,515,241359,2736893
36,18,female,Belg,3,111,guess,neutral,10,left,2,guess_start,385,space,0,0,515,240970,2737282
36,18,female,Belg,3,111,guess,neutral,10,left,2,guess_choice,637,j,0,0,515,240329,2737923
36,18,female,Belg,3,111,guess,neutral,10,left,2,guess_outcome,0,undefined,0,0,515,238773,2739479
36,18,female,Belg,3,111,ITC,neutral,10,left,2,ITC_start,451,space,0,0,515,238320,2739932
36,18,female,Belg,3,111,ITC,neutral,10,left,2,ITC_choice,1473,j,0,0,515,236845,2741407
36,18,female,Belg,3,111,ITC,neutral,10,left,2,ITC_wait,0,undefined,0,0,515,236840,2741412
36,18,female,Belg,3,111,ITC,neutral,10,left,2,ITC_collect,193,k,0,0,515,236642,2741610
36,18,female,Belg,3,111,ITC,neutral,10,left,2,ITC_outcome,0,undefined,0,0,517,235634,2742618
36,18,female,Belg,3,112,guess,loss,5,right,9,guess_start,614,space,0,0,517,235016,2743236
36,18,female,Belg,3,112,guess,loss,5,right,9,guess_choice,709,j,0,0,517,234301,2743951
36,18,female,Belg,3,112,guess,loss,5,right,9,guess_outcome,0,undefined,0,0,502,232744,2745508
36,18,female,Belg,3,112,ITC,loss,5,right,9,ITC_start,454,space,0,0,502,232287,2745965
36,18,female,Belg,3,112,ITC,loss,5,right,9,ITC_choice,1239,j,0,0,502,231045,2747207
36,18,female,Belg,3,112,ITC,loss,5,right,9,ITC_wait,0,undefined,0,0,502,226033,2752219
36,18,female,Belg,3,112,ITC,loss,5,right,9,ITC_collect,477,k,0,0,502,225553,2752699
36,18,female,Belg,3,112,ITC,loss,5,right,9,ITC_outcome,0,undefined,0,0,522,224543,2753709
36,18,female,Belg,3,113,guess,loss,10,left,8,guess_start,430,space,0,0,522,224109,2754143
36,18,female,Belg,3,113,guess,loss,10,left,8,guess_choice,720,f,0,0,522,223384,2754868
36,18,female,Belg,3,113,guess,loss,10,left,8,guess_outcome,0,undefined,0,0,507,221825,2756427
36,18,female,Belg,3,113,ITC,loss,10,left,8,ITC_start,469,space,0,0,507,221353,2756899
36,18,female,Belg,3,113,ITC,loss,10,left,8,ITC_choice,1156,f,0,0,507,220195,2758057
36,18,female,Belg,3,113,ITC,loss,10,left,8,ITC_wait,0,undefined,0,0,507,210182,2768070
36,18,female,Belg,3,113,ITC,loss,10,left,8,ITC_collect,449,k,0,0,507,209729,2768523
36,18,female,Belg,3,113,ITC,loss,10,left,8,ITC_outcome,0,undefined,0,0,527,208722,2769530
36,18,female,Belg,3,114,guess,loss,5,left,16,guess_start,408,space,0,0,527,208311,2769941
36,18,female,Belg,3,114,guess,loss,5,left,16,guess_choice,631,j,0,0,527,207674,2770578
36,18,female,Belg,3,114,guess,loss,5,left,16,guess_outcome,0,undefined,0,0,512,206102,2772150
36,18,female,Belg,3,114,ITC,loss,5,left,16,ITC_start,546,space,0,0,512,205554,2772698
36,18,female,Belg,3,114,ITC,loss,5,left,16,ITC_choice,814,f,0,0,512,204737,2773515
36,18,female,Belg,3,114,ITC,loss,5,left,16,ITC_wait,0,undefined,0,0,512,199730,2778522
36,18,female,Belg,3,114,ITC,loss,5,left,16,ITC_collect,430,k,0,0,512,199297,2778955
36,18,female,Belg,3,114,ITC,loss,5,left,16,ITC_outcome,0,undefined,0,0,532,198277,2779975
36,18,female,Belg,3,115,guess,loss,10,right,7,guess_start,663,space,0,0,532,197611,2780641
36,18,female,Belg,3,115,guess,loss,10,right,7,guess_choice,632,f,0,0,532,196974,2781278
36,18,female,Belg,3,115,guess,loss,10,right,7,guess_outcome,0,undefined,0,0,517,195407,2782845
36,18,female,Belg,3,115,ITC,loss,10,right,7,ITC_start,838,space,0,0,517,194566,2783686
36,18,female,Belg,3,115,ITC,loss,10,right,7,ITC_choice,1528,f,0,0,517,193035,2785217
36,18,female,Belg,3,115,ITC,loss,10,right,7,ITC_wait,0,undefined,0,0,517,193031,2785221
36,18,female,Belg,3,115,ITC,loss,10,right,7,ITC_collect,354,k,0,0,517,192674,2785578
36,18,female,Belg,3,115,ITC,loss,10,right,7,ITC_outcome,0,undefined,0,0,524,191661,2786591
36,18,female,Belg,3,116,guess,loss,5,right,11,guess_start,517,space,0,0,524,191141,2787111
36,18,female,Belg,3,116,guess,loss,5,right,11,guess_choice,385,j,0,0,524,190752,2787500
36,18,female,Belg,3,116,guess,loss,5,right,11,guess_outcome,0,undefined,0,0,509,189187,2789065
36,18,female,Belg,3,116,ITC,loss,5,right,11,ITC_start,1774,space,0,0,509,187410,2790842
36,18,female,Belg,3,116,ITC,loss,5,right,11,ITC_choice,1746,f,0,0,509,185662,2792590
36,18,female,Belg,3,116,ITC,loss,5,right,11,ITC_wait,0,undefined,0,0,509,185658,2792594
36,18,female,Belg,3,116,ITC,loss,5,right,11,ITC_collect,379,k,0,0,509,185276,2792976
36,18,female,Belg,3,116,ITC,loss,5,right,11,ITC_outcome,0,undefined,0,0,520,184266,2793986
36,18,female,Belg,3,117,guess,loss,5,left,1,guess_start,694,space,0,0,520,183568,2794684
36,18,female,Belg,3,117,guess,loss,5,left,1,guess_choice,1191,f,0,0,520,182370,2795882
36,18,female,Belg,3,117,guess,loss,5,left,1,guess_outcome,0,undefined,0,0,505,180796,2797456
36,18,female,Belg,3,117,ITC,loss,5,left,1,ITC_start,705,space,0,0,505,180089,2798163
36,18,female,Belg,3,117,ITC,loss,5,left,1,ITC_choice,3466,f,0,0,505,176619,2801633
36,18,female,Belg,3,117,ITC,loss,5,left,1,ITC_wait,0,undefined,0,0,505,171607,2806645
36,18,female,Belg,3,117,ITC,loss,5,left,1,ITC_collect,473,k,0,0,505,171131,2807121
36,18,female,Belg,3,117,ITC,loss,5,left,1,ITC_outcome,0,undefined,0,0,525,170125,2808127
36,18,female,Belg,3,118,guess,neutral,5,left,13,guess_start,363,space,0,0,525,169759,2808493
36,18,female,Belg,3,118,guess,neutral,5,left,13,guess_choice,951,f,0,0,525,168803,2809449
36,18,female,Belg,3,118,guess,neutral,5,left,13,guess_outcome,0,undefined,0,0,525,167235,2811017
36,18,female,Belg,3,118,ITC,neutral,5,left,13,ITC_start,530,space,0,0,525,166703,2811549
36,18,female,Belg,3,118,ITC,neutral,5,left,13,ITC_choice,959,f,0,0,525,165741,2812511
36,18,female,Belg,3,118,ITC,neutral,5,left,13,ITC_wait,0,undefined,0,0,525,160721,2817531
36,18,female,Belg,3,118,ITC,neutral,5,left,13,ITC_collect,324,k,0,0,525,160395,2817857
36,18,female,Belg,3,118,ITC,neutral,5,left,13,ITC_outcome,0,undefined,0,0,545,159377,2818875
36,18,female,Belg,3,119,guess,neutral,5,left,7,guess_start,242,space,0,0,545,159132,2819120
36,18,female,Belg,3,119,guess,neutral,5,left,7,guess_choice,717,j,0,0,545,158410,2819842
36,18,female,Belg,3,119,guess,neutral,5,left,7,guess_outcome,0,undefined,0,0,545,156846,2821406
36,18,female,Belg,3,119,ITC,neutral,5,left,7,ITC_start,767,space,0,0,545,156077,2822175
36,18,female,Belg,3,119,ITC,neutral,5,left,7,ITC_choice,1352,f,0,0,545,154722,2823530
36,18,female,Belg,3,119,ITC,neutral,5,left,7,ITC_wait,0,undefined,0,0,545,149716,2828536
36,18,female,Belg,3,119,ITC,neutral,5,left,7,ITC_collect,452,k,0,0,545,149262,2828990
36,18,female,Belg,3,119,ITC,neutral,5,left,7,ITC_outcome,0,undefined,0,0,565,148257,2829995
36,18,female,Belg,3,120,guess,loss,10,left,5,guess_start,442,space,0,0,565,147811,2830441
36,18,female,Belg,3,120,guess,loss,10,left,5,guess_choice,583,f,0,0,565,147223,2831029
36,18,female,Belg,3,120,guess,loss,10,left,5,guess_outcome,0,undefined,0,0,550,145667,2832585
36,18,female,Belg,3,120,ITC,loss,10,left,5,ITC_start,468,space,0,0,550,145195,2833057
36,18,female,Belg,3,120,ITC,loss,10,left,5,ITC_choice,1539,j,0,0,550,143654,2834598
36,18,female,Belg,3,120,ITC,loss,10,left,5,ITC_wait,0,undefined,0,0,550,143650,2834602
36,18,female,Belg,3,120,ITC,loss,10,left,5,ITC_collect,269,k,0,0,550,143374,2834878
36,18,female,Belg,3,120,ITC,loss,10,left,5,ITC_outcome,0,undefined,0,0,555,142357,2835895
36,18,female,Belg,3,121,guess,neutral,5,left,16,guess_start,373,space,0,0,555,141980,2836272
36,18,female,Belg,3,121,guess,neutral,5,left,16,guess_choice,871,j,0,0,555,141105,2837147
36,18,female,Belg,3,121,guess,neutral,5,left,16,guess_outcome,0,undefined,0,0,555,139547,2838705
36,18,female,Belg,3,121,ITC,neutral,5,left,16,ITC_start,431,space,0,0,555,139113,2839139
36,18,female,Belg,3,121,ITC,neutral,5,left,16,ITC_choice,846,f,0,0,555,138265,2839987
36,18,female,Belg,3,121,ITC,neutral,5,left,16,ITC_wait,0,undefined,0,0,555,133252,2845000
36,18,female,Belg,3,121,ITC,neutral,5,left,16,ITC_collect,385,k,0,0,555,132865,2845387
36,18,female,Belg,3,121,ITC,neutral,5,left,16,ITC_outcome,0,undefined,0,0,575,131857,2846395
36,18,female,Belg,3,122,guess,loss,5,left,7,guess_start,737,space,0,0,575,131117,2847135
36,18,female,Belg,3,122,guess,loss,5,left,7,guess_choice,714,f,0,0,575,130396,2847856
36,18,female,Belg,3,122,guess,loss,5,left,7,guess_outcome,0,undefined,0,0,560,128827,2849425
36,18,female,Belg,3,122,ITC,loss,5,left,7,ITC_start,390,space,0,0,560,128434,2849818
36,18,female,Belg,3,122,ITC,loss,5,left,7,ITC_choice,1059,f,0,0,560,127372,2850880
36,18,female,Belg,3,122,ITC,loss,5,left,7,ITC_wait,0,undefined,0,0,560,122343,2855909
36,18,female,Belg,3,122,ITC,loss,5,left,7,ITC_collect,565,k,0,0,560,121774,2856478
36,18,female,Belg,3,122,ITC,loss,5,left,7,ITC_outcome,0,undefined,0,0,580,120767,2857485
36,18,female,Belg,3,123,guess,win,5,left,14,guess_start,530,space,0,0,580,120234,2858018
36,18,female,Belg,3,123,guess,win,5,left,14,guess_choice,1174,f,0,0,580,119054,2859198
36,18,female,Belg,3,123,guess,win,5,left,14,guess_outcome,0,undefined,0,0,600,117487,2860765
36,18,female,Belg,3,123,ITC,win,5,left,14,ITC_start,550,space,0,0,600,116934,2861318
36,18,female,Belg,3,123,ITC,win,5,left,14,ITC_choice,798,f,0,0,600,116133,2862119
36,18,female,Belg,3,123,ITC,win,5,left,14,ITC_wait,0,undefined,0,0,600,111121,2867131
36,18,female,Belg,3,123,ITC,win,5,left,14,ITC_collect,1030,k,0,0,600,110089,2868163
36,18,female,Belg,3,123,ITC,win,5,left,14,ITC_outcome,0,undefined,0,0,620,109077,2869175
36,18,female,Belg,3,124,guess,loss,10,left,4,guess_start,387,space,0,0,620,108688,2869564
36,18,female,Belg,3,124,guess,loss,10,left,4,guess_choice,920,j,0,0,620,107763,2870489
36,18,female,Belg,3,124,guess,loss,10,left,4,guess_outcome,0,undefined,0,0,605,106197,2872055
36,18,female,Belg,3,124,ITC,loss,10,left,4,ITC_start,368,space,0,0,605,105826,2872426
36,18,female,Belg,3,124,ITC,loss,10,left,4,ITC_choice,2176,j,0,0,605,103647,2874605
36,18,female,Belg,3,124,ITC,loss,10,left,4,ITC_wait,0,undefined,0,0,605,103643,2874609
36,18,female,Belg,3,124,ITC,loss,10,left,4,ITC_collect,258,k,0,0,605,103381,2874871
36,18,female,Belg,3,124,ITC,loss,10,left,4,ITC_outcome,0,undefined,0,0,609,102367,2875885
36,18,female,Belg,3,125,guess,loss,5,left,4,guess_start,331,space,0,0,609,102033,2876219
36,18,female,Belg,3,125,guess,loss,5,left,4,guess_choice,610,j,0,0,609,101418,2876834
36,18,female,Belg,3,125,guess,loss,5,left,4,guess_outcome,0,undefined,0,0,594,99858,2878394
36,18,female,Belg,3,125,ITC,loss,5,left,4,ITC_start,402,space,0,0,594,99453,2878799
36,18,female,Belg,3,125,ITC,loss,5,left,4,ITC_choice,697,f,0,0,594,98753,2879499
36,18,female,Belg,3,125,ITC,loss,5,left,4,ITC_wait,0,undefined,0,0,594,93737,2884515
36,18,female,Belg,3,125,ITC,loss,5,left,4,ITC_collect,323,k,0,0,594,93412,2884840
36,18,female,Belg,3,125,ITC,loss,5,left,4,ITC_outcome,0,undefined,0,0,614,92402,2885850
36,18,female,Belg,3,126,guess,loss,10,left,2,guess_start,688,space,0,0,614,91710,2886542
36,18,female,Belg,3,126,guess,loss,10,left,2,guess_choice,823,j,0,0,614,90881,2887371
36,18,female,Belg,3,126,guess,loss,10,left,2,guess_outcome,0,undefined,0,0,599,89322,2888930
36,18,female,Belg,3,126,ITC,loss,10,left,2,ITC_start,384,space,0,0,599,88936,2889316
36,18,female,Belg,3,126,ITC,loss,10,left,2,ITC_choice,1692,j,0,0,599,87241,2891011
36,18,female,Belg,3,126,ITC,loss,10,left,2,ITC_wait,0,undefined,0,0,599,87237,2891015
36,18,female,Belg,3,126,ITC,loss,10,left,2,ITC_collect,187,k,0,0,599,87045,2891207
36,18,female,Belg,3,126,ITC,loss,10,left,2,ITC_outcome,0,undefined,0,0,601,86015,2892237
36,18,female,Belg,3,127,guess,loss,5,right,15,guess_start,409,space,0,0,601,85602,2892650
36,18,female,Belg,3,127,guess,loss,5,right,15,guess_choice,461,f,0,0,601,85136,2893116
36,18,female,Belg,3,127,guess,loss,5,right,15,guess_outcome,0,undefined,0,0,586,83572,2894680
36,18,female,Belg,3,127,ITC,loss,5,right,15,ITC_start,463,space,0,0,586,83106,2895146
36,18,female,Belg,3,127,ITC,loss,5,right,15,ITC_choice,1588,f,0,0,586,81515,2896737
36,18,female,Belg,3,127,ITC,loss,5,right,15,ITC_wait,0,undefined,0,0,586,81508,2896744
36,18,female,Belg,3,127,ITC,loss,5,right,15,ITC_collect,266,k,0,0,586,81239,2897013
36,18,female,Belg,3,127,ITC,loss,5,right,15,ITC_outcome,0,undefined,0,0,601,80227,2898025
36,18,female,Belg,3,128,guess,win,5,left,7,guess_start,462,space,0,0,601,79762,2898490
36,18,female,Belg,3,128,guess,win,5,left,7,guess_choice,807,j,0,0,601,78950,2899302
36,18,female,Belg,3,128,guess,win,5,left,7,guess_outcome,0,undefined,0,0,621,77375,2900877
36,18,female,Belg,3,128,ITC,win,5,left,7,ITC_start,519,space,0,0,621,76852,2901400
36,18,female,Belg,3,128,ITC,win,5,left,7,ITC_choice,957,f,0,0,621,75892,2902360
36,18,female,Belg,3,128,ITC,win,5,left,7,ITC_wait,0,undefined,0,0,621,70887,2907365
36,18,female,Belg,3,128,ITC,win,5,left,7,ITC_collect,382,k,0,0,621,70502,2907750
36,18,female,Belg,3,128,ITC,win,5,left,7,ITC_outcome,0,undefined,0,0,641,69485,2908767
36,18,female,Belg,3,129,guess,neutral,5,right,12,guess_start,356,space,0,0,641,69122,2909130
36,18,female,Belg,3,129,guess,neutral,5,right,12,guess_choice,818,j,0,0,641,68298,2909954
36,18,female,Belg,3,129,guess,neutral,5,right,12,guess_outcome,0,undefined,0,0,641,66737,2911515
36,18,female,Belg,3,129,ITC,neutral,5,right,12,ITC_start,687,space,0,0,641,66047,2912205
36,18,female,Belg,3,129,ITC,neutral,5,right,12,ITC_choice,1343,f,0,0,641,64701,2913551
36,18,female,Belg,3,129,ITC,neutral,5,right,12,ITC_wait,0,undefined,0,0,641,64696,2913556
36,18,female,Belg,3,129,ITC,neutral,5,right,12,ITC_collect,222,k,0,0,641,64470,2913782
36,18,female,Belg,3,129,ITC,neutral,5,right,12,ITC_outcome,0,undefined,0,0,653,63452,2914800
36,18,female,Belg,3,130,guess,win,5,left,3,guess_start,489,space,0,0,653,62960,2915292
36,18,female,Belg,3,130,guess,win,5,left,3,guess_choice,694,f,0,0,653,62258,2915994
36,18,female,Belg,3,130,guess,win,5,left,3,guess_outcome,0,undefined,0,0,673,60672,2917580
36,18,female,Belg,3,130,ITC,win,5,left,3,ITC_start,626,space,0,0,673,60042,2918210
36,18,female,Belg,3,130,ITC,win,5,left,3,ITC_choice,1499,f,0,0,673,58539,2919713
36,18,female,Belg,3,130,ITC,win,5,left,3,ITC_wait,0,undefined,0,0,673,53527,2924725
36,18,female,Belg,3,130,ITC,win,5,left,3,ITC_collect,314,k,0,0,673,53209,2925043
36,18,female,Belg,3,130,ITC,win,5,left,3,ITC_outcome,0,undefined,0,0,693,52187,2926065
36,18,female,Belg,3,131,guess,loss,5,right,6,guess_start,534,space,0,0,693,51650,2926602
36,18,female,Belg,3,131,guess,loss,5,right,6,guess_choice,1930,j,0,0,693,49714,2928538
36,18,female,Belg,3,131,guess,loss,5,right,6,guess_outcome,0,undefined,0,0,678,48147,2930105
36,18,female,Belg,3,131,ITC,loss,5,right,6,ITC_start,404,space,0,0,678,47741,2930511
36,18,female,Belg,3,131,ITC,loss,5,right,6,ITC_choice,1672,j,0,0,678,46066,2932186
36,18,female,Belg,3,131,ITC,loss,5,right,6,ITC_wait,0,undefined,0,0,678,41062,2937190
36,18,female,Belg,3,131,ITC,loss,5,right,6,ITC_collect,318,k,0,0,678,40740,2937512
36,18,female,Belg,3,131,ITC,loss,5,right,6,ITC_outcome,0,undefined,0,0,698,39717,2938535
36,18,female,Belg,3,132,guess,neutral,5,left,8,guess_start,536,space,0,0,698,39176,2939076
36,18,female,Belg,3,132,guess,neutral,5,left,8,guess_choice,814,j,0,0,698,38355,2939897
36,18,female,Belg,3,132,guess,neutral,5,left,8,guess_outcome,0,undefined,0,0,698,36782,2941470
36,18,female,Belg,3,132,ITC,neutral,5,left,8,ITC_start,474,space,0,0,698,36305,2941947
36,18,female,Belg,3,132,ITC,neutral,5,left,8,ITC_choice,1180,j,0,0,698,35122,2943130
36,18,female,Belg,3,132,ITC,neutral,5,left,8,ITC_wait,0,undefined,0,0,698,35117,2943135
36,18,female,Belg,3,132,ITC,neutral,5,left,8,ITC_collect,500,k,0,0,698,34615,2943637
36,18,female,Belg,3,132,ITC,neutral,5,left,8,ITC_outcome,0,undefined,0,0,706,33595,2944657
36,18,female,Belg,3,133,guess,win,10,right,1,guess_start,780,space,0,0,706,32813,2945439
36,18,female,Belg,3,133,guess,win,10,right,1,guess_choice,583,f,0,0,706,32225,2946027
36,18,female,Belg,3,133,guess,win,10,right,1,guess_outcome,0,undefined,0,0,726,30661,2947591
36,18,female,Belg,3,133,ITC,win,10,right,1,ITC_start,552,space,0,0,726,30107,2948145
36,18,female,Belg,3,133,ITC,win,10,right,1,ITC_choice,1311,j,0,0,726,28794,2949458
36,18,female,Belg,3,133,ITC,win,10,right,1,ITC_wait,0,undefined,0,0,726,18788,2959464
36,18,female,Belg,3,133,ITC,win,10,right,1,ITC_collect,422,k,0,0,726,18363,2959889
36,18,female,Belg,3,133,ITC,win,10,right,1,ITC_outcome,0,undefined,0,0,746,17357,2960895
36,18,female,Belg,3,134,guess,win,5,left,13,guess_start,648,space,0,0,746,16705,2961547
36,18,female,Belg,3,134,guess,win,5,left,13,guess_choice,928,f,0,0,746,15773,2962479
36,18,female,Belg,3,134,guess,win,5,left,13,guess_outcome,0,undefined,0,0,766,14213,2964039
36,18,female,Belg,3,134,ITC,win,5,left,13,ITC_start,742,space,0,0,766,13465,2964787
36,18,female,Belg,3,134,ITC,win,5,left,13,ITC_choice,1148,f,0,0,766,12313,2965939
36,18,female,Belg,3,134,ITC,win,5,left,13,ITC_wait,0,undefined,0,0,766,7294,2970958
36,18,female,Belg,3,134,ITC,win,5,left,13,ITC_collect,372,k,0,0,766,6919,2971333
36,18,female,Belg,3,134,ITC,win,5,left,13,ITC_outcome,0,undefined,0,0,786,5903,2972349
36,18,female,Belg,3,135,guess,win,10,left,5,guess_start,594,space,0,0,786,5307,2972945
36,18,female,Belg,3,135,guess,win,10,left,5,guess_choice,647,j,0,0,786,4654,2973598
36,18,female,Belg,3,135,guess,win,10,left,5,guess_outcome,0,undefined,0,0,806,3089,2975163
36,18,female,Belg,3,135,ITC,win,10,left,5,ITC_start,546,space,0,0,806,2540,2975712
36,18,female,Belg,3,135,ITC,win,10,left,5,ITC_choice,1557,j,0,0,806,979,2977273
36,18,female,Belg,3,135,ITC,win,10,left,5,ITC_wait,0,undefined,0,0,806,975,2977277
36,18,female,Belg,3,135,ITC,win,10,left,5,ITC_collect,199,k,0,0,806,771,2977481
36,18,female,Belg,3,135,ITC,win,10,left,5,ITC_outcome,0,undefined,0,0,811,-17,2978269
36,18,female,Belg,4,136,guess,neutral,10,right,8,guess_start,757,space,0,0,0,479240,3060162
36,18,female,Belg,4,136,guess,neutral,10,right,8,guess_choice,787,j,0,0,0,478448,3060954
36,18,female,Belg,4,136,guess,neutral,10,right,8,guess_outcome,0,undefined,0,0,0,476891,3062511
36,18,female,Belg,4,136,ITC,neutral,10,right,8,ITC_start,771,space,0,0,0,476118,3063284
36,18,female,Belg,4,136,ITC,neutral,10,right,8,ITC_choice,1545,f,0,0,0,474569,3064833
36,18,female,Belg,4,136,ITC,neutral,10,right,8,ITC_wait,0,undefined,0,0,0,474565,3064837
36,18,female,Belg,4,136,ITC,neutral,10,right,8,ITC_collect,449,k,0,0,0,474111,3065291
36,18,female,Belg,4,136,ITC,neutral,10,right,8,ITC_outcome,0,undefined,0,0,8,473091,3066311
36,18,female,Belg,4,137,guess,loss,5,right,13,guess_start,443,space,0,0,8,472644,3066758
36,18,female,Belg,4,137,guess,loss,5,right,13,guess_choice,469,f,0,0,8,472170,3067232
36,18,female,Belg,4,137,guess,loss,5,right,13,guess_outcome,0,undefined,0,0,-7,470601,3068801
36,18,female,Belg,4,137,ITC,loss,5,right,13,ITC_start,1783,space,0,0,-7,468816,3070586
36,18,female,Belg,4,137,ITC,loss,5,right,13,ITC_choice,2163,f,0,0,-7,466650,3072752
36,18,female,Belg,4,137,ITC,loss,5,right,13,ITC_wait,0,undefined,0,0,-7,466644,3072758
36,18,female,Belg,4,137,ITC,loss,5,right,13,ITC_collect,226,k,0,0,-7,466415,3072987
36,18,female,Belg,4,137,ITC,loss,5,right,13,ITC_outcome,0,undefined,0,0,6,465396,3074006
36,18,female,Belg,4,138,guess,loss,5,left,8,guess_start,765,space,0,0,6,464628,3074774
36,18,female,Belg,4,138,guess,loss,5,left,8,guess_choice,743,j,0,0,6,463879,3075523
36,18,female,Belg,4,138,guess,loss,5,left,8,guess_outcome,0,undefined,0,0,-9,462321,3077081
36,18,female,Belg,4,138,ITC,loss,5,left,8,ITC_start,1355,space,0,0,-9,460963,3078439
36,18,female,Belg,4,138,ITC,loss,5,left,8,ITC_choice,1530,f,0,0,-9,459430,3079972
36,18,female,Belg,4,138,ITC,loss,5,left,8,ITC_wait,0,undefined,0,0,-9,454416,3084986
36,18,female,Belg,4,138,ITC,loss,5,left,8,ITC_collect,494,k,0,0,-9,453920,3085482
36,18,female,Belg,4,138,ITC,loss,5,left,8,ITC_outcome,0,undefined,0,0,11,452911,3086491
36,18,female,Belg,4,139,guess,neutral,5,right,9,guess_start,686,space,0,0,11,452222,3087180
36,18,female,Belg,4,139,guess,neutral,5,right,9,guess_choice,702,j,0,0,11,451514,3087888
36,18,female,Belg,4,139,guess,neutral,5,right,9,guess_outcome,0,undefined,0,0,11,449956,3089446
36,18,female,Belg,4,139,ITC,neutral,5,right,9,ITC_start,606,space,0,0,11,449347,3090055
36,18,female,Belg,4,139,ITC,neutral,5,right,9,ITC_choice,1351,j,0,0,11,447993,3091409
36,18,female,Belg,4,139,ITC,neutral,5,right,9,ITC_wait,0,undefined,0,0,11,442971,3096431
36,18,female,Belg,4,139,ITC,neutral,5,right,9,ITC_collect,465,k,0,0,11,442504,3096898
36,18,female,Belg,4,139,ITC,neutral,5,right,9,ITC_outcome,0,undefined,0,0,31,441494,3097908
36,18,female,Belg,4,140,guess,win,5,left,1,guess_start,481,space,0,0,31,441010,3098392
36,18,female,Belg,4,140,guess,win,5,left,1,guess_choice,524,f,0,0,31,440481,3098921
36,18,female,Belg,4,140,guess,win,5,left,1,guess_outcome,0,undefined,0,0,51,438924,3100478
36,18,female,Belg,4,140,ITC,win,5,left,1,ITC_start,462,space,0,0,51,438459,3100943
36,18,female,Belg,4,140,ITC,win,5,left,1,ITC_choice,692,f,0,0,51,437765,3101637
36,18,female,Belg,4,140,ITC,win,5,left,1,ITC_wait,0,undefined,0,0,51,432756,3106646
36,18,female,Belg,4,140,ITC,win,5,left,1,ITC_collect,379,k,0,0,51,432373,3107029
36,18,female,Belg,4,140,ITC,win,5,left,1,ITC_outcome,0,undefined,0,0,71,431361,3108041
36,18,female,Belg,4,141,guess,win,5,right,11,guess_start,437,space,0,0,71,430921,3108481
36,18,female,Belg,4,141,guess,win,5,right,11,guess_choice,723,j,0,0,71,430191,3109211
36,18,female,Belg,4,141,guess,win,5,right,11,guess_outcome,0,undefined,0,0,91,428631,3110771
36,18,female,Belg,4,141,ITC,win,5,right,11,ITC_start,454,space,0,0,91,428174,3111228
36,18,female,Belg,4,141,ITC,win,5,right,11,ITC_choice,869,f,0,0,91,427301,3112101
36,18,female,Belg,4,141,ITC,win,5,right,11,ITC_wait,0,undefined,0,0,91,427296,3112106
36,18,female,Belg,4,141,ITC,win,5,right,11,ITC_collect,757,k,0,0,91,426537,3112865
36,18,female,Belg,4,141,ITC,win,5,right,11,ITC_outcome,0,undefined,0,0,102,425531,3113871
36,18,female,Belg,4,142,guess,loss,5,right,14,guess_start,403,space,0,0,102,425124,3114278
36,18,female,Belg,4,142,guess,loss,5,right,14,guess_choice,925,j,0,0,102,424195,3115207
36,18,female,Belg,4,142,guess,loss,5,right,14,guess_outcome,0,undefined,0,0,87,422636,3116766
36,18,female,Belg,4,142,ITC,loss,5,right,14,ITC_start,501,space,0,0,87,422132,3117270
36,18,female,Belg,4,142,ITC,loss,5,right,14,ITC_choice,1304,f,0,0,87,420826,3118576
36,18,female,Belg,4,142,ITC,loss,5,right,14,ITC_wait,0,undefined,0,0,87,420819,3118583
36,18,female,Belg,4,142,ITC,loss,5,right,14,ITC_collect,182,k,0,0,87,420634,3118768
36,18,female,Belg,4,142,ITC,loss,5,right,14,ITC_outcome,0,undefined,0,0,101,419613,3119789
36,18,female,Belg,4,143,guess,loss,10,right,1,guess_start,427,space,0,0,101,419182,3120220
36,18,female,Belg,4,143,guess,loss,10,right,1,guess_choice,933,f,0,0,101,418245,3121157
36,18,female,Belg,4,143,guess,loss,10,right,1,guess_outcome,0,undefined,0,0,86,416678,3122724
36,18,female,Belg,4,143,ITC,loss,10,right,1,ITC_start,558,space,0,0,86,416118,3123284
36,18,female,Belg,4,143,ITC,loss,10,right,1,ITC_choice,1397,j,0,0,86,414718,3124684
36,18,female,Belg,4,143,ITC,loss,10,right,1,ITC_collect,427,k,0,0,86,404274,3135128
36,18,female,Belg,4,143,ITC,loss,10,right,1,ITC_wait,0,undefined,0,0,86,404703,3134699
36,18,female,Belg,4,143,ITC,loss,10,right,1,ITC_outcome,0,undefined,0,0,106,403262,3136140
36,18,female,Belg,4,144,guess,neutral,10,left,5,guess_start,464,space,0,0,106,402795,3136607
36,18,female,Belg,4,144,guess,neutral,10,left,5,guess_choice,923,f,0,0,106,401868,3137534
36,18,female,Belg,4,144,guess,neutral,10,left,5,guess_outcome,0,undefined,0,0,106,400307,3139095
36,18,female,Belg,4,144,ITC,neutral,10,left,5,ITC_start,552,space,0,0,106,399752,3139650
36,18,female,Belg,4,144,ITC,neutral,10,left,5,ITC_choice,1353,f,0,0,106,398396,3141006
36,18,female,Belg,4,144,ITC,neutral,10,left,5,ITC_wait,0,undefined,0,0,106,388390,3151012
