subjectID,age,gender,nationality,block_number,trial_number,trial_type,guess_outcome,delay_time,delay_pos,immediate_amount,stage,respRT,respKey,blur_count,focus_count,total_points,remaining_duration,time_elapsed
45,27,female,Israeli,1,1,guess,neutral,5,left,15,guess_start,2767,space,0,0,0,477227,251710
45,27,female,Israeli,1,1,guess,neutral,5,left,15,guess_choice,2695,f,0,0,0,474487,254450
45,27,female,Israeli,1,1,guess,neutral,5,left,15,guess_outcome,0,undefined,0,0,0,472900,256037
45,27,female,Israeli,1,1,ITC,neutral,5,left,15,ITC_start,1600,space,0,0,0,471293,257644
45,27,female,Israeli,1,1,ITC,neutral,5,left,15,ITC_choice,2924,f,0,0,0,468362,260575
45,27,female,Israeli,1,1,ITC,neutral,5,left,15,ITC_wait,0,undefined,0,0,0,463354,265583
45,27,female,Israeli,1,1,ITC,neutral,5,left,15,ITC_collect,1100,k,0,0,0,462247,266690
45,27,female,Israeli,1,1,ITC,neutral,5,left,15,ITC_outcome,0,undefined,0,0,20,461206,267731
45,27,female,Israeli,1,2,guess,win,5,left,15,guess_start,1922,space,0,0,20,459278,269659
45,27,female,Israeli,1,2,guess,win,5,left,15,guess_choice,1680,j,0,0,20,457593,271344
45,27,female,Israeli,1,2,guess,win,5,left,15,guess_outcome,0,undefined,0,0,40,456038,272899
45,27,female,Israeli,1,2,ITC,win,5,left,15,ITC_start,1552,space,0,0,40,454484,274453
45,27,female,Israeli,1,2,ITC,win,5,left,15,ITC_choice,2510,f,0,0,40,451972,276965
45,27,female,Israeli,1,2,ITC,win,5,left,15,ITC_wait,0,undefined,0,0,40,446969,281968
45,27,female,Israeli,1,2,ITC,win,5,left,15,ITC_collect,1196,k,0,0,40,445770,283167
45,27,female,Israeli,1,2,ITC,win,5,left,15,ITC_outcome,0,undefined,0,0,60,444764,284173
45,27,female,Israeli,1,3,guess,win,5,right,7,guess_start,1036,space,0,0,60,443726,285211
45,27,female,Israeli,1,3,guess,win,5,right,7,guess_choice,2176,j,0,0,60,441543,287394
45,27,female,Israeli,1,3,guess,win,5,right,7,guess_outcome,0,undefined,0,0,80,439985,288952
45,27,female,Israeli,1,3,ITC,win,5,right,7,ITC_start,1974,space,0,0,80,438009,290928
45,27,female,Israeli,1,3,ITC,win,5,right,7,ITC_choice,1918,j,0,0,80,436088,292849
45,27,female,Israeli,1,3,ITC,win,5,right,7,ITC_wait,0,undefined,0,0,80,431084,297853
45,27,female,Israeli,1,3,ITC,win,5,right,7,ITC_collect,1455,k,0,0,80,429626,299311
45,27,female,Israeli,1,3,ITC,win,5,right,7,ITC_outcome,0,undefined,0,0,100,428617,300320
45,27,female,Israeli,1,4,guess,loss,10,right,6,guess_start,1268,space,0,0,100,427346,301591
45,27,female,Israeli,1,4,guess,loss,10,right,6,guess_choice,1150,f,0,0,100,426185,302752
45,27,female,Israeli,1,4,guess,loss,10,right,6,guess_outcome,0,undefined,0,0,85,424624,304313
45,27,female,Israeli,1,4,ITC,loss,10,right,6,ITC_start,1538,space,0,0,85,423084,305853
45,27,female,Israeli,1,4,ITC,loss,10,right,6,ITC_choice,1436,j,0,0,85,421644,307293
45,27,female,Israeli,1,4,ITC,loss,10,right,6,ITC_wait,0,undefined,0,0,85,411640,317297
45,27,female,Israeli,1,4,ITC,loss,10,right,6,ITC_collect,563,k,0,0,85,411074,317863
45,27,female,Israeli,1,4,ITC,loss,10,right,6,ITC_outcome,0,undefined,0,0,105,410064,318873
45,27,female,Israeli,1,5,guess,win,10,right,2,guess_start,1052,space,0,0,105,409008,319929
45,27,female,Israeli,1,5,guess,win,10,right,2,guess_choice,844,j,0,0,105,408152,320785
45,27,female,Israeli,1,5,guess,win,10,right,2,guess_outcome,0,undefined,0,0,125,406588,322349
45,27,female,Israeli,1,5,ITC,win,10,right,2,ITC_start,1312,space,0,0,125,405273,323664
45,27,female,Israeli,1,5,ITC,win,10,right,2,ITC_choice,1726,j,0,0,125,403542,325395
45,27,female,Israeli,1,5,ITC,win,10,right,2,ITC_wait,0,undefined,0,0,125,393536,335401
45,27,female,Israeli,1,5,ITC,win,10,right,2,ITC_collect,970,k,0,0,125,392529,336408
45,27,female,Israeli,1,5,ITC,win,10,right,2,ITC_outcome,0,undefined,0,0,145,391516,337421
45,27,female,Israeli,1,6,guess,win,5,right,10,guess_start,740,space,0,0,145,390772,338165
45,27,female,Israeli,1,6,guess,win,5,right,10,guess_choice,1064,j,0,0,145,389697,339240
45,27,female,Israeli,1,6,guess,win,5,right,10,guess_outcome,0,undefined,0,0,165,388134,340803
45,27,female,Israeli,1,6,ITC,win,5,right,10,ITC_start,1479,space,0,0,165,386646,342291
45,27,female,Israeli,1,6,ITC,win,5,right,10,ITC_choice,2006,j,0,0,165,384605,344332
45,27,female,Israeli,1,6,ITC,win,5,right,10,ITC_wait,0,undefined,0,0,165,379601,349336
45,27,female,Israeli,1,6,ITC,win,5,right,10,ITC_collect,940,k,0,0,165,378650,350287
45,27,female,Israeli,1,6,ITC,win,5,right,10,ITC_outcome,0,undefined,0,0,185,377613,351324
45,27,female,Israeli,1,7,guess,win,10,right,1,guess_start,1104,space,0,0,185,376505,352432
45,27,female,Israeli,1,7,guess,win,10,right,1,guess_choice,1061,j,0,0,185,375429,353508
45,27,female,Israeli,1,7,guess,win,10,right,1,guess_outcome,0,undefined,0,0,205,373862,355075
45,27,female,Israeli,1,7,ITC,win,10,right,1,ITC_start,1067,space,0,0,205,372792,356145
45,27,female,Israeli,1,7,ITC,win,10,right,1,ITC_choice,1589,j,0,0,205,371199,357738
45,27,female,Israeli,1,7,ITC,win,10,right,1,ITC_wait,0,undefined,0,0,205,361189,367748
45,27,female,Israeli,1,7,ITC,win,10,right,1,ITC_collect,852,k,0,0,205,360317,368620
45,27,female,Israeli,1,7,ITC,win,10,right,1,ITC_outcome,0,undefined,0,0,225,359293,369644
45,27,female,Israeli,1,8,guess,neutral,10,left,3,guess_start,765,space,0,0,225,358524,370413
45,27,female,Israeli,1,8,guess,neutral,10,left,3,guess_choice,1449,f,0,0,225,357058,371879
45,27,female,Israeli,1,8,guess,neutral,10,left,3,guess_outcome,0,undefined,0,0,225,355490,373447
45,27,female,Israeli,1,8,ITC,neutral,10,left,3,ITC_start,1023,space,0,0,225,354463,374474
45,27,female,Israeli,1,8,ITC,neutral,10,left,3,ITC_choice,1485,f,0,0,225,352975,375962
45,27,female,Israeli,1,8,ITC,neutral,10,left,3,ITC_wait,0,undefined,0,0,225,342968,385969
45,27,female,Israeli,1,8,ITC,neutral,10,left,3,ITC_collect,961,k,0,0,225,342004,386933
45,27,female,Israeli,1,8,ITC,neutral,10,left,3,ITC_outcome,0,undefined,0,0,245,340999,387938
45,27,female,Israeli,1,9,guess,win,10,right,4,guess_start,983,space,0,0,245,340013,388924
45,27,female,Israeli,1,9,guess,win,10,right,4,guess_choice,745,j,0,0,245,339264,389673
45,27,female,Israeli,1,9,guess,win,10,right,4,guess_outcome,0,undefined,0,0,265,337705,391232
45,27,female,Israeli,1,9,ITC,win,10,right,4,ITC_start,973,space,0,0,265,336730,392207
45,27,female,Israeli,1,9,ITC,win,10,right,4,ITC_choice,2127,j,0,0,265,334601,394336
45,27,female,Israeli,1,9,ITC,win,10,right,4,ITC_wait,0,undefined,0,0,265,324598,404339
45,27,female,Israeli,1,9,ITC,win,10,right,4,ITC_collect,844,k,0,0,265,323751,405186
45,27,female,Israeli,1,9,ITC,win,10,right,4,ITC_outcome,0,undefined,0,0,285,322743,406194
45,27,female,Israeli,1,10,guess,neutral,5,right,3,guess_start,837,space,0,0,285,321903,407034
45,27,female,Israeli,1,10,guess,neutral,5,right,3,guess_choice,815,f,0,0,285,321080,407857
45,27,female,Israeli,1,10,guess,neutral,5,right,3,guess_outcome,0,undefined,0,0,285,319524,409413
45,27,female,Israeli,1,10,ITC,neutral,5,right,3,ITC_start,986,space,0,0,285,318536,410401
45,27,female,Israeli,1,10,ITC,neutral,5,right,3,ITC_choice,1497,j,0,0,285,317037,411900
45,27,female,Israeli,1,10,ITC,neutral,5,right,3,ITC_wait,0,undefined,0,0,285,312033,416904
45,27,female,Israeli,1,10,ITC,neutral,5,right,3,ITC_collect,667,k,0,0,285,311362,417575
45,27,female,Israeli,1,10,ITC,neutral,5,right,3,ITC_outcome,0,undefined,0,0,305,310352,418585
45,27,female,Israeli,1,11,guess,win,10,right,5,guess_start,550,space,0,0,305,309799,419138
45,27,female,Israeli,1,11,guess,win,10,right,5,guess_choice,872,j,0,0,305,308917,420020
45,27,female,Israeli,1,11,guess,win,10,right,5,guess_outcome,0,undefined,0,0,325,307357,421580
45,27,female,Israeli,1,11,ITC,win,10,right,5,ITC_start,898,space,0,0,325,306456,422481
45,27,female,Israeli,1,11,ITC,win,10,right,5,ITC_choice,4689,j,0,0,325,301764,427173
45,27,female,Israeli,1,11,ITC,win,10,right,5,ITC_wait,0,undefined,0,0,325,291759,437178
45,27,female,Israeli,1,11,ITC,win,10,right,5,ITC_collect,433,k,0,0,325,291323,437614
45,27,female,Israeli,1,11,ITC,win,10,right,5,ITC_outcome,0,undefined,0,0,345,290312,438625
45,27,female,Israeli,1,12,guess,neutral,10,left,6,guess_start,953,space,0,0,345,289356,439581
45,27,female,Israeli,1,12,guess,neutral,10,left,6,guess_choice,834,f,0,0,345,288511,440426
45,27,female,Israeli,1,12,guess,neutral,10,left,6,guess_outcome,0,undefined,0,0,345,286948,441989
45,27,female,Israeli,1,12,ITC,neutral,10,left,6,ITC_start,604,space,0,0,345,286341,442596
45,27,female,Israeli,1,12,ITC,neutral,10,left,6,ITC_choice,1632,f,0,0,345,284706,444231
45,27,female,Israeli,1,12,ITC,neutral,10,left,6,ITC_wait,0,undefined,0,0,345,274702,454235
45,27,female,Israeli,1,12,ITC,neutral,10,left,6,ITC_collect,882,k,0,0,345,273816,455121
45,27,female,Israeli,1,12,ITC,neutral,10,left,6,ITC_outcome,0,undefined,0,0,365,272798,456139
45,27,female,Israeli,1,13,guess,neutral,5,left,2,guess_start,827,space,0,0,365,271968,456969
45,27,female,Israeli,1,13,guess,neutral,5,left,2,guess_choice,1032,j,0,0,365,270922,458015
45,27,female,Israeli,1,13,guess,neutral,5,left,2,guess_outcome,0,undefined,0,0,365,269358,459579
45,27,female,Israeli,1,13,ITC,neutral,5,left,2,ITC_start,787,space,0,0,365,268567,460370
45,27,female,Israeli,1,13,ITC,neutral,5,left,2,ITC_choice,1963,f,0,0,365,266601,462336
45,27,female,Israeli,1,13,ITC,neutral,5,left,2,ITC_wait,0,undefined,0,0,365,261596,467341
45,27,female,Israeli,1,13,ITC,neutral,5,left,2,ITC_collect,571,k,0,0,365,261022,467915
45,27,female,Israeli,1,13,ITC,neutral,5,left,2,ITC_outcome,0,undefined,0,0,385,260007,468930
45,27,female,Israeli,1,14,guess,neutral,5,right,7,guess_start,619,space,0,0,385,259384,469553
45,27,female,Israeli,1,14,guess,neutral,5,right,7,guess_choice,736,j,0,0,385,258633,470304
45,27,female,Israeli,1,14,guess,neutral,5,right,7,guess_outcome,0,undefined,0,0,385,257068,471869
45,27,female,Israeli,1,14,ITC,neutral,5,right,7,ITC_start,376,space,0,0,385,256689,472248
45,27,female,Israeli,1,14,ITC,neutral,5,right,7,ITC_choice,1612,f,0,0,385,255073,473864
45,27,female,Israeli,1,14,ITC,neutral,5,right,7,ITC_wait,0,undefined,0,0,385,255068,473869
45,27,female,Israeli,1,14,ITC,neutral,5,right,7,ITC_collect,1424,k,0,0,385,253640,475297
45,27,female,Israeli,1,14,ITC,neutral,5,right,7,ITC_outcome,0,undefined,0,0,392,252620,476317
45,27,female,Israeli,1,15,guess,win,5,right,12,guess_start,555,space,0,0,392,252060,476877
45,27,female,Israeli,1,15,guess,win,5,right,12,guess_choice,1126,j,0,0,392,250919,478018
45,27,female,Israeli,1,15,guess,win,5,right,12,guess_outcome,0,undefined,0,0,412,249351,479586
45,27,female,Israeli,1,15,ITC,win,5,right,12,ITC_start,975,space,0,0,412,248373,480564
45,27,female,Israeli,1,15,ITC,win,5,right,12,ITC_choice,1800,f,0,0,412,246568,482369
45,27,female,Israeli,1,15,ITC,win,5,right,12,ITC_wait,0,undefined,0,0,412,246563,482374
45,27,female,Israeli,1,15,ITC,win,5,right,12,ITC_collect,1133,k,0,0,412,245427,483510
45,27,female,Israeli,1,15,ITC,win,5,right,12,ITC_outcome,0,undefined,0,0,424,244410,484527
45,27,female,Israeli,1,16,guess,loss,10,right,8,guess_start,568,space,0,0,424,243838,485099
45,27,female,Israeli,1,16,guess,loss,10,right,8,guess_choice,1002,j,0,0,424,242819,486118
45,27,female,Israeli,1,16,guess,loss,10,right,8,guess_outcome,0,undefined,0,0,409,241253,487684
45,27,female,Israeli,1,16,ITC,loss,10,right,8,ITC_start,575,space,0,0,409,240676,488261
45,27,female,Israeli,1,16,ITC,loss,10,right,8,ITC_choice,1359,f,0,0,409,239314,489623
45,27,female,Israeli,1,16,ITC,loss,10,right,8,ITC_wait,0,undefined,0,0,409,239311,489626
45,27,female,Israeli,1,16,ITC,loss,10,right,8,ITC_collect,1154,k,0,0,409,238155,490782
45,27,female,Israeli,1,16,ITC,loss,10,right,8,ITC_outcome,0,undefined,0,0,417,237151,491786
45,27,female,Israeli,1,17,guess,loss,10,left,2,guess_start,430,space,0,0,417,236718,492219
45,27,female,Israeli,1,17,guess,loss,10,left,2,guess_choice,999,f,0,0,417,235714,493223
45,27,female,Israeli,1,17,guess,loss,10,left,2,guess_outcome,0,undefined,0,0,402,234159,494778
45,27,female,Israeli,1,17,ITC,loss,10,left,2,ITC_start,850,space,0,0,402,233306,495631
45,27,female,Israeli,1,17,ITC,loss,10,left,2,ITC_choice,2671,j,0,0,402,230633,498304
45,27,female,Israeli,1,17,ITC,loss,10,left,2,ITC_wait,0,undefined,0,0,402,230630,498307
45,27,female,Israeli,1,17,ITC,loss,10,left,2,ITC_collect,1041,k,0,0,402,229587,499350
45,27,female,Israeli,1,17,ITC,loss,10,left,2,ITC_outcome,0,undefined,0,0,404,228582,500355
45,27,female,Israeli,1,18,guess,win,5,left,1,guess_start,624,space,0,0,404,227956,500981
45,27,female,Israeli,1,18,guess,win,5,left,1,guess_choice,1516,f,0,0,404,226434,502503
45,27,female,Israeli,1,18,guess,win,5,left,1,guess_outcome,0,undefined,0,0,424,224875,504062
45,27,female,Israeli,1,18,ITC,win,5,left,1,ITC_start,802,space,0,0,424,224071,504866
45,27,female,Israeli,1,18,ITC,win,5,left,1,ITC_choice,1322,f,0,0,424,222747,506190
45,27,female,Israeli,1,18,ITC,win,5,left,1,ITC_wait,0,undefined,0,0,424,217744,511193
45,27,female,Israeli,1,18,ITC,win,5,left,1,ITC_collect,697,k,0,0,424,217044,511893
45,27,female,Israeli,1,18,ITC,win,5,left,1,ITC_outcome,0,undefined,0,0,444,216036,512901
45,27,female,Israeli,1,19,guess,loss,5,right,12,guess_start,583,space,0,0,444,215450,513487
45,27,female,Israeli,1,19,guess,loss,5,right,12,guess_choice,1239,j,0,0,444,214202,514735
45,27,female,Israeli,1,19,guess,loss,5,right,12,guess_outcome,0,undefined,0,0,429,212644,516293
45,27,female,Israeli,1,19,ITC,loss,5,right,12,ITC_start,871,space,0,0,429,211771,517166
45,27,female,Israeli,1,19,ITC,loss,5,right,12,ITC_choice,1477,j,0,0,429,210292,518645
45,27,female,Israeli,1,19,ITC,loss,5,right,12,ITC_wait,0,undefined,0,0,429,205289,523648
45,27,female,Israeli,1,19,ITC,loss,5,right,12,ITC_collect,657,k,0,0,429,204629,524308
45,27,female,Israeli,1,19,ITC,loss,5,right,12,ITC_outcome,0,undefined,0,0,449,203618,525319
45,27,female,Israeli,1,20,guess,loss,5,left,14,guess_start,559,space,0,0,449,203057,525880
45,27,female,Israeli,1,20,guess,loss,5,left,14,guess_choice,1269,j,0,0,449,201777,527160
45,27,female,Israeli,1,20,guess,loss,5,left,14,guess_outcome,0,undefined,0,0,434,200216,528721
45,27,female,Israeli,1,20,ITC,loss,5,left,14,ITC_start,689,space,0,0,434,199524,529413
45,27,female,Israeli,1,20,ITC,loss,5,left,14,ITC_choice,1300,f,0,0,434,198220,530717
45,27,female,Israeli,1,20,ITC,loss,5,left,14,ITC_wait,0,undefined,0,0,434,193215,535722
45,27,female,Israeli,1,20,ITC,loss,5,left,14,ITC_collect,566,k,0,0,434,192646,536291
45,27,female,Israeli,1,20,ITC,loss,5,left,14,ITC_outcome,0,undefined,0,0,454,191638,537299
45,27,female,Israeli,1,21,guess,win,5,right,13,guess_start,438,space,0,0,454,191196,537741
45,27,female,Israeli,1,21,guess,win,5,right,13,guess_choice,1287,f,0,0,454,189899,539038
45,27,female,Israeli,1,21,guess,win,5,right,13,guess_outcome,0,undefined,0,0,474,188336,540601
45,27,female,Israeli,1,21,ITC,win,5,right,13,ITC_start,625,space,0,0,474,187708,541229
45,27,female,Israeli,1,21,ITC,win,5,right,13,ITC_choice,1784,j,0,0,474,185921,543016
45,27,female,Israeli,1,21,ITC,win,5,right,13,ITC_wait,0,undefined,0,0,474,180915,548022
45,27,female,Israeli,1,21,ITC,win,5,right,13,ITC_collect,570,k,0,0,474,180342,548595
45,27,female,Israeli,1,21,ITC,win,5,right,13,ITC_outcome,0,undefined,0,0,494,179330,549607
45,27,female,Israeli,1,22,guess,win,10,right,8,guess_start,531,space,0,0,494,178796,550141
45,27,female,Israeli,1,22,guess,win,10,right,8,guess_choice,966,f,0,0,494,177817,551120
45,27,female,Israeli,1,22,guess,win,10,right,8,guess_outcome,0,undefined,0,0,514,176253,552684
45,27,female,Israeli,1,22,ITC,win,10,right,8,ITC_start,917,space,0,0,514,175332,553605
45,27,female,Israeli,1,22,ITC,win,10,right,8,ITC_choice,1343,f,0,0,514,173986,554951
45,27,female,Israeli,1,22,ITC,win,10,right,8,ITC_wait,0,undefined,0,0,514,173980,554957
45,27,female,Israeli,1,22,ITC,win,10,right,8,ITC_collect,1261,k,0,0,514,172716,556221
45,27,female,Israeli,1,22,ITC,win,10,right,8,ITC_outcome,0,undefined,0,0,522,171702,557235
45,27,female,Israeli,1,23,guess,loss,5,left,9,guess_start,587,space,0,0,522,171111,557826
45,27,female,Israeli,1,23,guess,loss,5,left,9,guess_choice,1176,f,0,0,522,169922,559015
45,27,female,Israeli,1,23,guess,loss,5,left,9,guess_outcome,0,undefined,0,0,507,168359,560578
45,27,female,Israeli,1,23,ITC,loss,5,left,9,ITC_start,1219,space,0,0,507,167136,561801
45,27,female,Israeli,1,23,ITC,loss,5,left,9,ITC_choice,1535,f,0,0,507,165597,563340
45,27,female,Israeli,1,23,ITC,loss,5,left,9,ITC_wait,0,undefined,0,0,507,160591,568346
45,27,female,Israeli,1,23,ITC,loss,5,left,9,ITC_collect,324,k,0,0,507,160264,568673
45,27,female,Israeli,1,23,ITC,loss,5,left,9,ITC_outcome,0,undefined,0,0,527,159245,569692
45,27,female,Israeli,1,24,guess,win,5,left,16,guess_start,513,space,0,0,527,158728,570209
45,27,female,Israeli,1,24,guess,win,5,left,16,guess_choice,1883,f,0,0,527,156831,572106
45,27,female,Israeli,1,24,guess,win,5,left,16,guess_outcome,0,undefined,0,0,547,155266,573671
45,27,female,Israeli,1,24,ITC,win,5,left,16,ITC_start,503,space,0,0,547,154759,574178
45,27,female,Israeli,1,24,ITC,win,5,left,16,ITC_choice,1565,j,0,0,547,153190,575747
45,27,female,Israeli,1,24,ITC,win,5,left,16,ITC_wait,0,undefined,0,0,547,153184,575753
45,27,female,Israeli,1,24,ITC,win,5,left,16,ITC_collect,1018,k,0,0,547,152162,576775
45,27,female,Israeli,1,24,ITC,win,5,left,16,ITC_outcome,0,undefined,0,0,563,151146,577791
45,27,female,Israeli,1,25,guess,loss,10,right,1,guess_start,502,space,0,0,563,150642,578295
45,27,female,Israeli,1,25,guess,loss,10,right,1,guess_choice,1667,f,0,0,563,148970,579967
45,27,female,Israeli,1,25,guess,loss,10,right,1,guess_outcome,0,undefined,0,0,548,147415,581522
45,27,female,Israeli,1,25,ITC,loss,10,right,1,ITC_start,660,space,0,0,548,146754,582183
45,27,female,Israeli,1,25,ITC,loss,10,right,1,ITC_choice,1728,f,0,0,548,145024,583913
45,27,female,Israeli,1,25,ITC,loss,10,right,1,ITC_wait,0,undefined,0,0,548,145021,583916
45,27,female,Israeli,1,25,ITC,loss,10,right,1,ITC_collect,1019,k,0,0,548,144000,584937
45,27,female,Israeli,1,25,ITC,loss,10,right,1,ITC_outcome,0,undefined,0,0,549,142996,585941
45,27,female,Israeli,1,26,guess,loss,5,left,16,guess_start,517,space,0,0,549,142477,586460
45,27,female,Israeli,1,26,guess,loss,5,left,16,guess_choice,1464,j,0,0,549,141007,587930
45,27,female,Israeli,1,26,guess,loss,5,left,16,guess_outcome,0,undefined,0,0,534,139452,589485
45,27,female,Israeli,1,26,ITC,loss,5,left,16,ITC_start,641,space,0,0,534,138808,590129
45,27,female,Israeli,1,26,ITC,loss,5,left,16,ITC_choice,1575,j,0,0,534,137231,591706
45,27,female,Israeli,1,26,ITC,loss,5,left,16,ITC_wait,0,undefined,0,0,534,137228,591709
45,27,female,Israeli,1,26,ITC,loss,5,left,16,ITC_collect,676,k,0,0,534,136550,592387
45,27,female,Israeli,1,26,ITC,loss,5,left,16,ITC_outcome,0,undefined,0,0,550,135545,593392
45,27,female,Israeli,1,27,guess,loss,10,left,4,guess_start,482,space,0,0,550,135060,593877
45,27,female,Israeli,1,27,guess,loss,10,left,4,guess_choice,803,f,0,0,550,134250,594687
45,27,female,Israeli,1,27,guess,loss,10,left,4,guess_outcome,0,undefined,0,0,535,132690,596247
45,27,female,Israeli,1,27,ITC,loss,10,left,4,ITC_start,516,space,0,0,535,132172,596765
45,27,female,Israeli,1,27,ITC,loss,10,left,4,ITC_choice,2126,j,0,0,535,130043,598894
45,27,female,Israeli,1,27,ITC,loss,10,left,4,ITC_wait,0,undefined,0,0,535,130040,598897
45,27,female,Israeli,1,27,ITC,loss,10,left,4,ITC_collect,718,k,0,0,535,129320,599617
45,27,female,Israeli,1,27,ITC,loss,10,left,4,ITC_outcome,0,undefined,0,0,539,128312,600625
45,27,female,Israeli,1,28,guess,loss,5,right,5,guess_start,413,space,0,0,539,127896,601041
45,27,female,Israeli,1,28,guess,loss,5,right,5,guess_choice,957,f,0,0,539,126932,602005
45,27,female,Israeli,1,28,guess,loss,5,right,5,guess_outcome,0,undefined,0,0,524,125374,603563
45,27,female,Israeli,1,28,ITC,loss,5,right,5,ITC_start,99,space,0,0,524,125273,603664
45,27,female,Israeli,1,28,ITC,loss,5,right,5,ITC_choice,2761,j,0,0,524,122509,606428
45,27,female,Israeli,1,28,ITC,loss,5,right,5,ITC_wait,0,undefined,0,0,524,117506,611431
45,27,female,Israeli,1,28,ITC,loss,5,right,5,ITC_collect,767,k,0,0,524,116736,612201
45,27,female,Israeli,1,28,ITC,loss,5,right,5,ITC_outcome,0,undefined,0,0,544,115726,613211
45,27,female,Israeli,1,29,guess,neutral,10,left,2,guess_start,403,space,0,0,544,115321,613616
45,27,female,Israeli,1,29,guess,neutral,10,left,2,guess_choice,1004,f,0,0,544,114307,614630
45,27,female,Israeli,1,29,guess,neutral,10,left,2,guess_outcome,0,undefined,0,0,544,112747,616190
45,27,female,Israeli,1,29,ITC,neutral,10,left,2,ITC_start,315,space,0,0,544,112429,616508
45,27,female,Israeli,1,29,ITC,neutral,10,left,2,ITC_choice,1780,j,0,0,544,110646,618291
45,27,female,Israeli,1,29,ITC,neutral,10,left,2,ITC_wait,0,undefined,0,0,544,110642,618295
45,27,female,Israeli,1,29,ITC,neutral,10,left,2,ITC_collect,558,k,0,0,544,110082,618855
45,27,female,Israeli,1,29,ITC,neutral,10,left,2,ITC_outcome,0,undefined,0,0,546,109072,619865
45,27,female,Israeli,1,30,guess,neutral,5,left,11,guess_start,505,space,0,0,546,108564,620373
45,27,female,Israeli,1,30,guess,neutral,5,left,11,guess_choice,879,j,0,0,546,107675,621262
45,27,female,Israeli,1,30,guess,neutral,5,left,11,guess_outcome,0,undefined,0,0,546,106112,622825
45,27,female,Israeli,1,30,ITC,neutral,5,left,11,ITC_start,394,space,0,0,546,105715,623222
45,27,female,Israeli,1,30,ITC,neutral,5,left,11,ITC_choice,1727,f,0,0,546,103986,624951
45,27,female,Israeli,1,30,ITC,neutral,5,left,11,ITC_wait,0,undefined,0,0,546,98982,629955
45,27,female,Israeli,1,30,ITC,neutral,5,left,11,ITC_collect,1051,k,0,0,546,97928,631009
45,27,female,Israeli,1,30,ITC,neutral,5,left,11,ITC_outcome,0,undefined,0,0,566,96916,632021
45,27,female,Israeli,1,31,guess,loss,5,left,15,guess_start,527,space,0,0,566,96386,632551
45,27,female,Israeli,1,31,guess,loss,5,left,15,guess_choice,1828,j,0,0,566,94548,634389
45,27,female,Israeli,1,31,guess,loss,5,left,15,guess_outcome,0,undefined,0,0,551,92985,635952
45,27,female,Israeli,1,31,ITC,loss,5,left,15,ITC_start,162,space,0,0,551,92820,636117
45,27,female,Israeli,1,31,ITC,loss,5,left,15,ITC_choice,1774,f,0,0,551,91043,637894
45,27,female,Israeli,1,31,ITC,loss,5,left,15,ITC_wait,0,undefined,0,0,551,86037,642900
45,27,female,Israeli,1,31,ITC,loss,5,left,15,ITC_collect,368,k,0,0,551,85665,643272
45,27,female,Israeli,1,31,ITC,loss,5,left,15,ITC_outcome,0,undefined,0,0,571,84653,644284
45,27,female,Israeli,1,32,guess,loss,5,left,3,guess_start,659,space,0,0,571,83991,644946
45,27,female,Israeli,1,32,guess,loss,5,left,3,guess_choice,1496,f,0,0,571,82483,646454
45,27,female,Israeli,1,32,guess,loss,5,left,3,guess_outcome,0,undefined,0,0,556,80917,648020
45,27,female,Israeli,1,32,ITC,loss,5,left,3,ITC_start,932,space,0,0,556,79982,648955
45,27,female,Israeli,1,32,ITC,loss,5,left,3,ITC_choice,1975,f,0,0,556,78003,650934
45,27,female,Israeli,1,32,ITC,loss,5,left,3,ITC_wait,0,undefined,0,0,556,73000,655937
45,27,female,Israeli,1,32,ITC,loss,5,left,3,ITC_collect,464,k,0,0,556,72532,656405
45,27,female,Israeli,1,32,ITC,loss,5,left,3,ITC_outcome,0,undefined,0,0,576,71518,657419
45,27,female,Israeli,1,33,guess,win,5,right,8,guess_start,500,space,0,0,576,71014,657923
45,27,female,Israeli,1,33,guess,win,5,right,8,guess_choice,1241,f,0,0,576,69760,659177
45,27,female,Israeli,1,33,guess,win,5,right,8,guess_outcome,0,undefined,0,0,596,68194,660743
45,27,female,Israeli,1,33,ITC,win,5,right,8,ITC_start,829,space,0,0,596,67361,661576
45,27,female,Israeli,1,33,ITC,win,5,right,8,ITC_choice,1661,j,0,0,596,65697,663240
45,27,female,Israeli,1,33,ITC,win,5,right,8,ITC_wait,0,undefined,0,0,596,60692,668245
45,27,female,Israeli,1,33,ITC,win,5,right,8,ITC_collect,797,k,0,0,596,59893,669044
45,27,female,Israeli,1,33,ITC,win,5,right,8,ITC_outcome,0,undefined,0,0,616,58889,670048
45,27,female,Israeli,1,34,guess,win,5,right,11,guess_start,549,space,0,0,616,58337,670600
45,27,female,Israeli,1,34,guess,win,5,right,11,guess_choice,884,f,0,0,616,57446,671491
45,27,female,Israeli,1,34,guess,win,5,right,11,guess_outcome,0,undefined,0,0,636,55889,673048
45,27,female,Israeli,1,34,ITC,win,5,right,11,ITC_start,569,space,0,0,636,55317,673620
45,27,female,Israeli,1,34,ITC,win,5,right,11,ITC_choice,2463,j,0,0,636,52852,676085
45,27,female,Israeli,1,34,ITC,win,5,right,11,ITC_wait,0,undefined,0,0,636,47849,681088
45,27,female,Israeli,1,34,ITC,win,5,right,11,ITC_collect,457,k,0,0,636,47389,681548
45,27,female,Israeli,1,34,ITC,win,5,right,11,ITC_outcome,0,undefined,0,0,656,46383,682554
45,27,female,Israeli,1,35,guess,neutral,5,right,16,guess_start,466,space,0,0,656,45914,683023
45,27,female,Israeli,1,35,guess,neutral,5,right,16,guess_choice,843,j,0,0,656,45064,683873
45,27,female,Israeli,1,35,guess,neutral,5,right,16,guess_outcome,0,undefined,0,0,656,43505,685432
45,27,female,Israeli,1,35,ITC,neutral,5,right,16,ITC_start,270,space,0,0,656,43233,685704
45,27,female,Israeli,1,35,ITC,neutral,5,right,16,ITC_choice,1574,j,0,0,656,41657,687280
45,27,female,Israeli,1,35,ITC,neutral,5,right,16,ITC_wait,0,undefined,0,0,656,36199,692738
45,27,female,Israeli,1,35,ITC,neutral,5,right,16,ITC_collect,487,k,0,0,656,35709,693228
45,27,female,Israeli,1,35,ITC,neutral,5,right,16,ITC_outcome,0,undefined,0,0,676,34701,694236
45,27,female,Israeli,1,36,guess,win,5,left,2,guess_start,442,space,0,0,676,34257,694680
45,27,female,Israeli,1,36,guess,win,5,left,2,guess_choice,1047,f,0,0,676,33201,695736
45,27,female,Israeli,1,36,guess,win,5,left,2,guess_outcome,0,undefined,0,0,696,31642,697295
45,27,female,Israeli,1,36,ITC,win,5,left,2,ITC_start,516,space,0,0,696,31124,697813
45,27,female,Israeli,1,36,ITC,win,5,left,2,ITC_choice,1328,f,0,0,696,29793,699144
45,27,female,Israeli,1,36,ITC,win,5,left,2,ITC_wait,0,undefined,0,0,696,24790,704147
45,27,female,Israeli,1,36,ITC,win,5,left,2,ITC_collect,876,k,0,0,696,23912,705025
45,27,female,Israeli,1,36,ITC,win,5,left,2,ITC_outcome,0,undefined,0,0,716,22900,706037
45,27,female,Israeli,1,37,guess,neutral,5,left,1,guess_start,484,space,0,0,716,22413,706524
45,27,female,Israeli,1,37,guess,neutral,5,left,1,guess_choice,706,j,0,0,716,21700,707237
45,27,female,Israeli,1,37,guess,neutral,5,left,1,guess_outcome,0,undefined,0,0,716,20142,708795
45,27,female,Israeli,1,37,ITC,neutral,5,left,1,ITC_start,515,space,0,0,716,19625,709312
45,27,female,Israeli,1,37,ITC,neutral,5,left,1,ITC_choice,1492,f,0,0,716,18131,710806
45,27,female,Israeli,1,37,ITC,neutral,5,left,1,ITC_wait,0,undefined,0,0,716,13121,715816
45,27,female,Israeli,1,37,ITC,neutral,5,left,1,ITC_collect,635,k,0,0,716,12415,716522
45,27,female,Israeli,1,37,ITC,neutral,5,left,1,ITC_outcome,0,undefined,0,0,736,11401,717536
45,27,female,Israeli,1,38,guess,win,5,left,5,guess_start,471,space,0,0,736,10927,718010
45,27,female,Israeli,1,38,guess,win,5,left,5,guess_choice,1252,j,0,0,736,9663,719274
45,27,female,Israeli,1,38,guess,win,5,left,5,guess_outcome,0,undefined,0,0,756,8102,720835
45,27,female,Israeli,1,38,ITC,win,5,left,5,ITC_start,419,space,0,0,756,7680,721257
45,27,female,Israeli,1,38,ITC,win,5,left,5,ITC_choice,1405,f,0,0,756,6272,722665
45,27,female,Israeli,1,38,ITC,win,5,left,5,ITC_wait,0,undefined,0,0,756,1268,727669
45,27,female,Israeli,1,38,ITC,win,5,left,5,ITC_collect,1063,k,0,0,756,201,728736
45,27,female,Israeli,1,38,ITC,win,5,left,5,ITC_outcome,0,undefined,0,0,776,-13,728950
45,27,female,Israeli,2,39,guess,loss,5,right,10,guess_start,3039,space,0,0,0,476956,896513
45,27,female,Israeli,2,39,guess,loss,5,right,10,guess_choice,1311,j,0,0,0,475623,897846
45,27,female,Israeli,2,39,guess,loss,5,right,10,guess_outcome,0,undefined,0,0,-15,474055,899414
45,27,female,Israeli,2,39,ITC,loss,5,right,10,ITC_start,1375,space,0,0,-15,472677,900792
45,27,female,Israeli,2,39,ITC,loss,5,right,10,ITC_choice,1246,j,0,0,-15,471427,902042
45,27,female,Israeli,2,39,ITC,loss,5,right,10,ITC_wait,0,undefined,0,0,-15,466422,907047
45,27,female,Israeli,2,39,ITC,loss,5,right,10,ITC_collect,518,k,0,0,-15,465900,907569
45,27,female,Israeli,2,39,ITC,loss,5,right,10,ITC_outcome,0,undefined,0,0,5,464886,908583
45,27,female,Israeli,2,40,guess,win,5,right,9,guess_start,516,space,0,0,5,464365,909104
45,27,female,Israeli,2,40,guess,win,5,right,9,guess_choice,1966,f,0,0,5,462384,911085
45,27,female,Israeli,2,40,guess,win,5,right,9,guess_outcome,0,undefined,0,0,25,460819,912650
45,27,female,Israeli,2,40,ITC,win,5,right,9,ITC_start,863,space,0,0,25,459952,913517
45,27,female,Israeli,2,40,ITC,win,5,right,9,ITC_choice,1453,j,0,0,25,458495,914974
45,27,female,Israeli,2,40,ITC,win,5,right,9,ITC_wait,0,undefined,0,0,25,453490,919979
45,27,female,Israeli,2,40,ITC,win,5,right,9,ITC_collect,425,k,0,0,25,453061,920408
45,27,female,Israeli,2,40,ITC,win,5,right,9,ITC_outcome,0,undefined,0,0,45,452043,921426
45,27,female,Israeli,2,41,guess,neutral,10,left,1,guess_start,554,space,0,0,45,451484,921985
45,27,female,Israeli,2,41,guess,neutral,10,left,1,guess_choice,991,f,0,0,45,450477,922992
45,27,female,Israeli,2,41,guess,neutral,10,left,1,guess_outcome,0,undefined,0,0,45,448907,924562
45,27,female,Israeli,2,41,ITC,neutral,10,left,1,ITC_start,389,space,0,0,45,448514,924955
45,27,female,Israeli,2,41,ITC,neutral,10,left,1,ITC_choice,1458,j,0,0,45,447051,926418
45,27,female,Israeli,2,41,ITC,neutral,10,left,1,ITC_wait,0,undefined,0,0,45,447045,926424
45,27,female,Israeli,2,41,ITC,neutral,10,left,1,ITC_collect,782,k,0,0,45,446260,927209
45,27,female,Israeli,2,41,ITC,neutral,10,left,1,ITC_outcome,0,undefined,0,0,46,445242,928227
45,27,female,Israeli,2,42,guess,win,10,left,6,guess_start,310,space,0,0,46,444928,928541
45,27,female,Israeli,2,42,guess,win,10,left,6,guess_choice,912,f,0,0,46,444000,929469
45,27,female,Israeli,2,42,guess,win,10,left,6,guess_outcome,0,undefined,0,0,66,442432,931037
45,27,female,Israeli,2,42,ITC,win,10,left,6,ITC_start,312,space,0,0,66,442116,931353
45,27,female,Israeli,2,42,ITC,win,10,left,6,ITC_choice,1213,j,0,0,66,440900,932569
45,27,female,Israeli,2,42,ITC,win,10,left,6,ITC_wait,0,undefined,0,0,66,440896,932573
45,27,female,Israeli,2,42,ITC,win,10,left,6,ITC_collect,825,k,0,0,66,440068,933401
45,27,female,Israeli,2,42,ITC,win,10,left,6,ITC_outcome,0,undefined,0,0,72,439042,934427
45,27,female,Israeli,2,43,guess,loss,5,left,13,guess_start,716,space,0,0,72,438301,935168
45,27,female,Israeli,2,43,guess,loss,5,left,13,guess_choice,1064,f,0,0,72,437211,936258
45,27,female,Israeli,2,43,guess,loss,5,left,13,guess_outcome,0,undefined,0,0,57,435641,937828
45,27,female,Israeli,2,43,ITC,loss,5,left,13,ITC_start,390,space,0,0,57,435247,938222
45,27,female,Israeli,2,43,ITC,loss,5,left,13,ITC_choice,1576,j,0,0,57,433666,939803
45,27,female,Israeli,2,43,ITC,loss,5,left,13,ITC_wait,0,undefined,0,0,57,433661,939808
45,27,female,Israeli,2,43,ITC,loss,5,left,13,ITC_collect,898,k,0,0,57,432759,940710
45,27,female,Israeli,2,43,ITC,loss,5,left,13,ITC_outcome,0,undefined,0,0,70,431735,941734
45,27,female,Israeli,2,44,guess,neutral,5,right,12,guess_start,652,space,0,0,70,431077,942392
45,27,female,Israeli,2,44,guess,neutral,5,right,12,guess_choice,786,f,0,0,70,430266,943203
45,27,female,Israeli,2,44,guess,neutral,5,right,12,guess_outcome,0,undefined,0,0,70,428697,944772
45,27,female,Israeli,2,44,ITC,neutral,5,right,12,ITC_start,360,space,0,0,70,428332,945137
45,27,female,Israeli,2,44,ITC,neutral,5,right,12,ITC_choice,1217,f,0,0,70,427110,946359
45,27,female,Israeli,2,44,ITC,neutral,5,right,12,ITC_wait,0,undefined,0,0,70,427105,946364
45,27,female,Israeli,2,44,ITC,neutral,5,right,12,ITC_collect,1064,k,0,0,70,426038,947431
45,27,female,Israeli,2,44,ITC,neutral,5,right,12,ITC_outcome,0,undefined,0,0,82,425021,948448
45,27,female,Israeli,2,45,guess,loss,5,right,2,guess_start,427,space,0,0,82,424589,948880
45,27,female,Israeli,2,45,guess,loss,5,right,2,guess_choice,1174,j,0,0,82,423396,950073
45,27,female,Israeli,2,45,guess,loss,5,right,2,guess_outcome,0,undefined,0,0,67,421840,951629
45,27,female,Israeli,2,45,ITC,loss,5,right,2,ITC_start,371,space,0,0,67,421467,952002
45,27,female,Israeli,2,45,ITC,loss,5,right,2,ITC_choice,1194,f,0,0,67,420271,953198
45,27,female,Israeli,2,45,ITC,loss,5,right,2,ITC_wait,0,undefined,0,0,67,420267,953202
45,27,female,Israeli,2,45,ITC,loss,5,right,2,ITC_collect,924,k,0,0,67,419341,954128
45,27,female,Israeli,2,45,ITC,loss,5,right,2,ITC_outcome,0,undefined,0,0,69,418337,955132
45,27,female,Israeli,2,46,guess,loss,5,right,7,guess_start,360,space,0,0,69,417975,955494
45,27,female,Israeli,2,46,guess,loss,5,right,7,guess_choice,1099,f,0,0,69,416869,956600
45,27,female,Israeli,2,46,guess,loss,5,right,7,guess_outcome,0,undefined,0,0,54,415312,958157
45,27,female,Israeli,2,46,ITC,loss,5,right,7,ITC_start,46,space,0,0,54,415264,958205
45,27,female,Israeli,2,46,ITC,loss,5,right,7,ITC_choice,1828,j,0,0,54,413435,960034
45,27,female,Israeli,2,46,ITC,loss,5,right,7,ITC_wait,0,undefined,0,0,54,408432,965037
45,27,female,Israeli,2,46,ITC,loss,5,right,7,ITC_collect,652,k,0,0,54,407777,965692
45,27,female,Israeli,2,46,ITC,loss,5,right,7,ITC_outcome,0,undefined,0,0,74,406770,966699
45,27,female,Israeli,2,47,guess,loss,10,right,3,guess_start,402,space,0,0,74,406365,967104
45,27,female,Israeli,2,47,guess,loss,10,right,3,guess_choice,1413,j,0,0,74,404945,968524
45,27,female,Israeli,2,47,guess,loss,10,right,3,guess_outcome,0,undefined,0,0,59,403386,970083
45,27,female,Israeli,2,47,ITC,loss,10,right,3,ITC_start,718,space,0,0,59,402665,970804
45,27,female,Israeli,2,47,ITC,loss,10,right,3,ITC_choice,1145,f,0,0,59,401517,971952
45,27,female,Israeli,2,47,ITC,loss,10,right,3,ITC_wait,0,undefined,0,0,59,401513,971956
45,27,female,Israeli,2,47,ITC,loss,10,right,3,ITC_collect,661,k,0,0,59,400849,972620
45,27,female,Israeli,2,47,ITC,loss,10,right,3,ITC_outcome,0,undefined,0,0,62,399840,973629
45,27,female,Israeli,2,48,guess,win,5,right,6,guess_start,347,space,0,0,62,399490,973979
45,27,female,Israeli,2,48,guess,win,5,right,6,guess_choice,999,f,0,0,62,398483,974986
45,27,female,Israeli,2,48,guess,win,5,right,6,guess_outcome,0,undefined,0,0,82,396922,976547
45,27,female,Israeli,2,48,ITC,win,5,right,6,ITC_start,486,space,0,0,82,396434,977035
45,27,female,Israeli,2,48,ITC,win,5,right,6,ITC_wait,0,undefined,0,0,82,394910,978559
45,27,female,Israeli,2,48,ITC,win,5,right,6,ITC_choice,1517,f,0,0,82,394914,978555
45,27,female,Israeli,2,48,ITC,win,5,right,6,ITC_collect,714,k,0,0,82,394194,979275
45,27,female,Israeli,2,48,ITC,win,5,right,6,ITC_outcome,0,undefined,0,0,88,393185,980284
45,27,female,Israeli,2,49,guess,neutral,10,right,8,guess_start,376,space,0,0,88,392806,980663
45,27,female,Israeli,2,49,guess,neutral,10,right,8,guess_choice,678,f,0,0,88,392119,981350
45,27,female,Israeli,2,49,guess,neutral,10,right,8,guess_outcome,0,undefined,0,0,88,390559,982910
45,27,female,Israeli,2,49,ITC,neutral,10,right,8,ITC_start,422,space,0,0,88,390135,983334
45,27,female,Israeli,2,49,ITC,neutral,10,right,8,ITC_choice,1166,f,0,0,88,388967,984502
45,27,female,Israeli,2,49,ITC,neutral,10,right,8,ITC_wait,0,undefined,0,0,88,388963,984506
45,27,female,Israeli,2,49,ITC,neutral,10,right,8,ITC_collect,551,k,0,0,88,388410,985059
45,27,female,Israeli,2,49,ITC,neutral,10,right,8,ITC_outcome,0,undefined,0,0,96,387400,986069
45,27,female,Israeli,2,50,guess,neutral,10,left,4,guess_start,328,space,0,0,96,387069,986400
45,27,female,Israeli,2,50,guess,neutral,10,left,4,guess_choice,872,j,0,0,96,386188,987281
45,27,female,Israeli,2,50,guess,neutral,10,left,4,guess_outcome,0,undefined,0,0,96,384629,988840
45,27,female,Israeli,2,50,ITC,neutral,10,left,4,ITC_start,323,space,0,0,96,384303,989166
45,27,female,Israeli,2,50,ITC,neutral,10,left,4,ITC_choice,1214,f,0,0,96,383086,990383
45,27,female,Israeli,2,50,ITC,neutral,10,left,4,ITC_wait,0,undefined,0,0,96,373083,1000386
45,27,female,Israeli,2,50,ITC,neutral,10,left,4,ITC_collect,565,k,0,0,96,372515,1000954
45,27,female,Israeli,2,50,ITC,neutral,10,left,4,ITC_outcome,0,undefined,0,0,116,371504,1001965
45,27,female,Israeli,2,51,guess,loss,5,right,11,guess_start,352,space,0,0,116,371148,1002321
45,27,female,Israeli,2,51,guess,loss,5,right,11,guess_choice,1100,f,0,0,116,370036,1003433
45,27,female,Israeli,2,51,guess,loss,5,right,11,guess_outcome,0,undefined,0,0,101,368473,1004996
45,27,female,Israeli,2,51,ITC,loss,5,right,11,ITC_start,227,space,0,0,101,368243,1005226
45,27,female,Israeli,2,51,ITC,loss,5,right,11,ITC_choice,1622,f,0,0,101,366616,1006853
45,27,female,Israeli,2,51,ITC,loss,5,right,11,ITC_wait,0,undefined,0,0,101,366611,1006858
45,27,female,Israeli,2,51,ITC,loss,5,right,11,ITC_collect,695,k,0,0,101,365913,1007556
45,27,female,Israeli,2,51,ITC,loss,5,right,11,ITC_outcome,0,undefined,0,0,112,364900,1008569
45,27,female,Israeli,2,52,guess,neutral,5,right,13,guess_start,384,space,0,0,112,364513,1008956
45,27,female,Israeli,2,52,guess,neutral,5,right,13,guess_choice,698,j,0,0,112,363806,1009663
45,27,female,Israeli,2,52,guess,neutral,5,right,13,guess_outcome,0,undefined,0,0,112,362243,1011226
45,27,female,Israeli,2,52,ITC,neutral,5,right,13,ITC_start,343,space,0,0,112,361897,1011572
45,27,female,Israeli,2,52,ITC,neutral,5,right,13,ITC_choice,1185,j,0,0,112,360710,1012759
45,27,female,Israeli,2,52,ITC,neutral,5,right,13,ITC_wait,0,undefined,0,0,112,355704,1017765
45,27,female,Israeli,2,52,ITC,neutral,5,right,13,ITC_collect,346,k,0,0,112,355354,1018115
45,27,female,Israeli,2,52,ITC,neutral,5,right,13,ITC_outcome,0,undefined,0,0,132,354341,1019128
45,27,female,Israeli,2,53,guess,loss,5,right,4,guess_start,385,space,0,0,132,353952,1019517
45,27,female,Israeli,2,53,guess,loss,5,right,4,guess_choice,990,f,0,0,132,352949,1020520
45,27,female,Israeli,2,53,guess,loss,5,right,4,guess_outcome,0,undefined,0,0,117,351381,1022088
45,27,female,Israeli,2,53,ITC,loss,5,right,4,ITC_start,726,space,0,0,117,350652,1022817
45,27,female,Israeli,2,53,ITC,loss,5,right,4,ITC_choice,1463,j,0,0,117,349183,1024286
45,27,female,Israeli,2,53,ITC,loss,5,right,4,ITC_wait,0,undefined,0,0,117,344179,1029290
45,27,female,Israeli,2,53,ITC,loss,5,right,4,ITC_collect,477,k,0,0,117,343698,1029771
45,27,female,Israeli,2,53,ITC,loss,5,right,4,ITC_outcome,0,undefined,0,0,137,342684,1030785
45,27,female,Israeli,2,54,guess,neutral,5,right,4,guess_start,357,space,0,0,137,342324,1031145
45,27,female,Israeli,2,54,guess,neutral,5,right,4,guess_choice,787,f,0,0,137,341532,1031937
45,27,female,Israeli,2,54,guess,neutral,5,right,4,guess_outcome,0,undefined,0,0,137,339977,1033492
45,27,female,Israeli,2,54,ITC,neutral,5,right,4,ITC_start,946,space,0,0,137,339029,1034440
45,27,female,Israeli,2,54,ITC,neutral,5,right,4,ITC_choice,1295,j,0,0,137,337732,1035737
45,27,female,Israeli,2,54,ITC,neutral,5,right,4,ITC_wait,0,undefined,0,0,137,332730,1040739
45,27,female,Israeli,2,54,ITC,neutral,5,right,4,ITC_collect,399,k,0,0,137,332329,1041140
45,27,female,Israeli,2,54,ITC,neutral,5,right,4,ITC_outcome,0,undefined,0,0,157,331324,1042145
45,27,female,Israeli,2,55,guess,neutral,5,left,9,guess_start,610,space,0,0,157,330711,1042758
45,27,female,Israeli,2,55,guess,neutral,5,left,9,guess_choice,784,f,0,0,157,329921,1043548
45,27,female,Israeli,2,55,guess,neutral,5,left,9,guess_outcome,0,undefined,0,0,157,328364,1045105
45,27,female,Israeli,2,55,ITC,neutral,5,left,9,ITC_start,512,space,0,0,157,327849,1045620
45,27,female,Israeli,2,55,ITC,neutral,5,left,9,ITC_choice,1345,f,0,0,157,326501,1046968
45,27,female,Israeli,2,55,ITC,neutral,5,left,9,ITC_wait,0,undefined,0,0,157,321497,1051972
45,27,female,Israeli,2,55,ITC,neutral,5,left,9,ITC_collect,458,k,0,0,157,321037,1052432
45,27,female,Israeli,2,55,ITC,neutral,5,left,9,ITC_outcome,0,undefined,0,0,177,320029,1053440
45,27,female,Israeli,2,56,guess,neutral,10,left,5,guess_start,628,space,0,0,177,319398,1054071
45,27,female,Israeli,2,56,guess,neutral,10,left,5,guess_choice,679,f,0,0,177,318712,1054757
45,27,female,Israeli,2,56,guess,neutral,10,left,5,guess_outcome,0,undefined,0,0,177,317153,1056316
45,27,female,Israeli,2,56,ITC,neutral,10,left,5,ITC_start,495,space,0,0,177,316656,1056813
45,27,female,Israeli,2,56,ITC,neutral,10,left,5,ITC_choice,1318,j,0,0,177,315335,1058134
45,27,female,Israeli,2,56,ITC,neutral,10,left,5,ITC_wait,0,undefined,0,0,177,315332,1058137
45,27,female,Israeli,2,56,ITC,neutral,10,left,5,ITC_collect,928,k,0,0,177,314402,1059067
45,27,female,Israeli,2,56,ITC,neutral,10,left,5,ITC_outcome,0,undefined,0,0,182,313394,1060075
45,27,female,Israeli,2,57,guess,neutral,5,right,8,guess_start,382,space,0,0,182,313008,1060461
45,27,female,Israeli,2,57,guess,neutral,5,right,8,guess_choice,720,j,0,0,182,312279,1061190
45,27,female,Israeli,2,57,guess,neutral,5,right,8,guess_outcome,0,undefined,0,0,182,310720,1062749
45,27,female,Israeli,2,57,ITC,neutral,5,right,8,ITC_start,570,space,0,0,182,310149,1063320
45,27,female,Israeli,2,57,ITC,neutral,5,right,8,ITC_choice,923,j,0,0,182,309223,1064246
45,27,female,Israeli,2,57,ITC,neutral,5,right,8,ITC_wait,0,undefined,0,0,182,304219,1069250
45,27,female,Israeli,2,57,ITC,neutral,5,right,8,ITC_collect,625,k,0,0,182,303591,1069878
45,27,female,Israeli,2,57,ITC,neutral,5,right,8,ITC_outcome,0,undefined,0,0,202,302580,1070889
45,27,female,Israeli,2,58,guess,neutral,5,left,14,guess_start,423,space,0,0,202,302153,1071316
45,27,female,Israeli,2,58,guess,neutral,5,left,14,guess_choice,600,j,0,0,202,301543,1071926
45,27,female,Israeli,2,58,guess,neutral,5,left,14,guess_outcome,0,undefined,0,0,202,299985,1073484
45,27,female,Israeli,2,58,ITC,neutral,5,left,14,ITC_start,901,space,0,0,202,299081,1074388
45,27,female,Israeli,2,58,ITC,neutral,5,left,14,ITC_choice,988,f,0,0,202,298090,1075379
45,27,female,Israeli,2,58,ITC,neutral,5,left,14,ITC_wait,0,undefined,0,0,202,293087,1080382
45,27,female,Israeli,2,58,ITC,neutral,5,left,14,ITC_collect,481,k,0,0,202,292603,1080866
45,27,female,Israeli,2,58,ITC,neutral,5,left,14,ITC_outcome,0,undefined,0,0,222,291593,1081876
45,27,female,Israeli,2,59,guess,neutral,10,right,7,guess_start,648,space,0,0,222,290942,1082527
45,27,female,Israeli,2,59,guess,neutral,10,right,7,guess_choice,658,f,0,0,222,290272,1083197
45,27,female,Israeli,2,59,guess,neutral,10,right,7,guess_outcome,0,undefined,0,0,222,288711,1084758
45,27,female,Israeli,2,59,ITC,neutral,10,right,7,ITC_start,574,space,0,0,222,288134,1085335
45,27,female,Israeli,2,59,ITC,neutral,10,right,7,ITC_choice,1586,j,0,0,222,286545,1086924
45,27,female,Israeli,2,59,ITC,neutral,10,right,7,ITC_wait,0,undefined,0,0,222,276541,1096928
45,27,female,Israeli,2,59,ITC,neutral,10,right,7,ITC_collect,556,k,0,0,222,275982,1097487
45,27,female,Israeli,2,59,ITC,neutral,10,right,7,ITC_outcome,0,undefined,0,0,242,274970,1098499
45,27,female,Israeli,2,60,guess,win,10,left,7,guess_start,677,space,0,0,242,274290,1099179
45,27,female,Israeli,2,60,guess,win,10,left,7,guess_choice,964,f,0,0,242,273312,1100157
45,27,female,Israeli,2,60,guess,win,10,left,7,guess_outcome,0,undefined,0,0,262,271747,1101722
45,27,female,Israeli,2,60,ITC,win,10,left,7,ITC_start,518,space,0,0,262,271226,1102243
45,27,female,Israeli,2,60,ITC,win,10,left,7,ITC_choice,1191,f,0,0,262,270030,1103439
45,27,female,Israeli,2,60,ITC,win,10,left,7,ITC_wait,0,undefined,0,0,262,260026,1113443
45,27,female,Israeli,2,60,ITC,win,10,left,7,ITC_collect,754,k,0,0,262,259268,1114201
45,27,female,Israeli,2,60,ITC,win,10,left,7,ITC_outcome,0,undefined,0,0,282,258255,1115214
45,27,female,Israeli,2,61,guess,neutral,5,left,10,guess_start,579,space,0,0,282,257672,1115797
45,27,female,Israeli,2,61,guess,neutral,5,left,10,guess_choice,672,f,0,0,282,256985,1116484
45,27,female,Israeli,2,61,guess,neutral,5,left,10,guess_outcome,0,undefined,0,0,282,255419,1118050
45,27,female,Israeli,2,61,ITC,neutral,5,left,10,ITC_start,708,space,0,0,282,254707,1118762
45,27,female,Israeli,2,61,ITC,neutral,5,left,10,ITC_choice,1499,f,0,0,282,253204,1120265
45,27,female,Israeli,2,61,ITC,neutral,5,left,10,ITC_wait,0,undefined,0,0,282,248199,1125270
45,27,female,Israeli,2,61,ITC,neutral,5,left,10,ITC_collect,370,k,0,0,282,247825,1125644
45,27,female,Israeli,2,61,ITC,neutral,5,left,10,ITC_outcome,0,undefined,0,0,302,246803,1126666
45,27,female,Israeli,2,62,guess,win,5,right,4,guess_start,465,space,0,0,302,246334,1127135
45,27,female,Israeli,2,62,guess,win,5,right,4,guess_choice,786,j,0,0,302,245534,1127935
45,27,female,Israeli,2,62,guess,win,5,right,4,guess_outcome,0,undefined,0,0,322,243979,1129490
45,27,female,Israeli,2,62,ITC,win,5,right,4,ITC_start,509,space,0,0,322,243468,1130001
45,27,female,Israeli,2,62,ITC,win,5,right,4,ITC_choice,1082,j,0,0,322,242384,1131085
45,27,female,Israeli,2,62,ITC,win,5,right,4,ITC_wait,0,undefined,0,0,322,237381,1136088
45,27,female,Israeli,2,62,ITC,win,5,right,4,ITC_collect,440,k,0,0,322,236940,1136529
45,27,female,Israeli,2,62,ITC,win,5,right,4,ITC_outcome,0,undefined,0,0,342,235935,1137534
45,27,female,Israeli,2,63,guess,win,10,left,3,guess_start,364,space,0,0,342,235569,1137900
45,27,female,Israeli,2,63,guess,win,10,left,3,guess_choice,770,f,0,0,342,234793,1138676
45,27,female,Israeli,2,63,guess,win,10,left,3,guess_outcome,0,undefined,0,0,362,233236,1140233
45,27,female,Israeli,2,63,ITC,win,10,left,3,ITC_start,523,space,0,0,362,232711,1140758
45,27,female,Israeli,2,63,ITC,win,10,left,3,ITC_choice,1357,j,0,0,362,231351,1142118
45,27,female,Israeli,2,63,ITC,win,10,left,3,ITC_wait,0,undefined,0,0,362,231348,1142121
45,27,female,Israeli,2,63,ITC,win,10,left,3,ITC_collect,480,k,0,0,362,230866,1142603
45,27,female,Israeli,2,63,ITC,win,10,left,3,ITC_outcome,0,undefined,0,0,365,229860,1143609
45,27,female,Israeli,2,64,guess,loss,5,left,6,guess_start,402,space,0,0,365,229456,1144013
45,27,female,Israeli,2,64,guess,loss,5,left,6,guess_choice,742,f,0,0,365,228706,1144763
45,27,female,Israeli,2,64,guess,loss,5,left,6,guess_outcome,0,undefined,0,0,350,227150,1146319
45,27,female,Israeli,2,64,ITC,loss,5,left,6,ITC_start,6,space,0,0,350,227142,1146327
45,27,female,Israeli,2,64,ITC,loss,5,left,6,ITC_choice,1500,f,0,0,350,225639,1147830
45,27,female,Israeli,2,64,ITC,loss,5,left,6,ITC_wait,0,undefined,0,0,350,220635,1152834
45,27,female,Israeli,2,64,ITC,loss,5,left,6,ITC_collect,375,k,0,0,350,220258,1153211
45,27,female,Israeli,2,64,ITC,loss,5,left,6,ITC_outcome,0,undefined,0,0,370,219250,1154219
45,27,female,Israeli,2,65,guess,loss,5,left,1,guess_start,455,space,0,0,370,218791,1154678
45,27,female,Israeli,2,65,guess,loss,5,left,1,guess_choice,726,f,0,0,370,218057,1155412
45,27,female,Israeli,2,65,guess,loss,5,left,1,guess_outcome,0,undefined,0,0,355,216498,1156971
45,27,female,Israeli,2,65,ITC,loss,5,left,1,ITC_start,681,space,0,0,355,215815,1157654
45,27,female,Israeli,2,65,ITC,loss,5,left,1,ITC_choice,984,f,0,0,355,214828,1158641
45,27,female,Israeli,2,65,ITC,loss,5,left,1,ITC_wait,0,undefined,0,0,355,209824,1163645
45,27,female,Israeli,2,65,ITC,loss,5,left,1,ITC_collect,384,k,0,0,355,209438,1164031
45,27,female,Israeli,2,65,ITC,loss,5,left,1,ITC_outcome,0,undefined,0,0,375,208426,1165043
45,27,female,Israeli,2,66,guess,win,5,right,3,guess_start,351,space,0,0,375,208072,1165397
45,27,female,Israeli,2,66,guess,win,5,right,3,guess_choice,1212,j,0,0,375,206849,1166620
45,27,female,Israeli,2,66,guess,win,5,right,3,guess_outcome,0,undefined,0,0,395,205288,1168181
45,27,female,Israeli,2,66,ITC,win,5,right,3,ITC_start,347,space,0,0,395,204938,1168531
45,27,female,Israeli,2,66,ITC,win,5,right,3,ITC_choice,949,j,0,0,395,203986,1169483
45,27,female,Israeli,2,66,ITC,win,5,right,3,ITC_wait,0,undefined,0,0,395,198982,1174487
45,27,female,Israeli,2,66,ITC,win,5,right,3,ITC_collect,378,k,0,0,395,198602,1174867
45,27,female,Israeli,2,66,ITC,win,5,right,3,ITC_outcome,0,undefined,0,0,415,197590,1175879
45,27,female,Israeli,2,67,guess,neutral,5,right,5,guess_start,300,space,0,0,415,197287,1176182
45,27,female,Israeli,2,67,guess,neutral,5,right,5,guess_choice,733,j,0,0,415,196544,1176925
45,27,female,Israeli,2,67,guess,neutral,5,right,5,guess_outcome,0,undefined,0,0,415,194980,1178489
45,27,female,Israeli,2,67,ITC,neutral,5,right,5,ITC_start,428,space,0,0,415,194549,1178920
45,27,female,Israeli,2,67,ITC,neutral,5,right,5,ITC_choice,1030,j,0,0,415,193516,1179953
45,27,female,Israeli,2,67,ITC,neutral,5,right,5,ITC_wait,0,undefined,0,0,415,188511,1184958
45,27,female,Israeli,2,67,ITC,neutral,5,right,5,ITC_collect,591,k,0,0,415,187917,1185552
45,27,female,Israeli,2,67,ITC,neutral,5,right,5,ITC_outcome,0,undefined,0,0,435,186903,1186566
45,27,female,Israeli,2,68,guess,loss,5,right,8,guess_start,346,space,0,0,435,186553,1186916
45,27,female,Israeli,2,68,guess,loss,5,right,8,guess_choice,618,f,0,0,435,185922,1187547
45,27,female,Israeli,2,68,guess,loss,5,right,8,guess_outcome,0,undefined,0,0,420,184359,1189110
45,27,female,Israeli,2,68,ITC,loss,5,right,8,ITC_start,592,space,0,0,420,183763,1189706
45,27,female,Israeli,2,68,ITC,loss,5,right,8,ITC_choice,1768,j,0,0,420,181992,1191477
45,27,female,Israeli,2,68,ITC,loss,5,right,8,ITC_wait,0,undefined,0,0,420,176988,1196481
45,27,female,Israeli,2,68,ITC,loss,5,right,8,ITC_collect,417,k,0,0,420,176568,1196901
45,27,female,Israeli,2,68,ITC,loss,5,right,8,ITC_outcome,0,undefined,0,0,440,175555,1197914
45,27,female,Israeli,2,69,guess,neutral,5,left,6,guess_start,395,space,0,0,440,175157,1198312
45,27,female,Israeli,2,69,guess,neutral,5,left,6,guess_choice,723,f,0,0,440,174420,1199049
45,27,female,Israeli,2,69,guess,neutral,5,left,6,guess_outcome,0,undefined,0,0,440,172857,1200612
45,27,female,Israeli,2,69,ITC,neutral,5,left,6,ITC_start,495,space,0,0,440,172359,1201110
45,27,female,Israeli,2,69,ITC,neutral,5,left,6,ITC_choice,1435,f,0,0,440,170919,1202550
45,27,female,Israeli,2,69,ITC,neutral,5,left,6,ITC_wait,0,undefined,0,0,440,165914,1207555
45,27,female,Israeli,2,69,ITC,neutral,5,left,6,ITC_collect,369,k,0,0,440,165541,1207928
45,27,female,Israeli,2,69,ITC,neutral,5,left,6,ITC_outcome,0,undefined,0,0,460,164524,1208945
45,27,female,Israeli,2,70,guess,win,5,right,14,guess_start,323,space,0,0,460,164198,1209271
45,27,female,Israeli,2,70,guess,win,5,right,14,guess_choice,1018,j,0,0,460,163166,1210303
45,27,female,Israeli,2,70,guess,win,5,right,14,guess_outcome,0,undefined,0,0,480,161601,1211868
45,27,female,Israeli,2,70,ITC,win,5,right,14,ITC_start,689,space,0,0,480,160908,1212561
45,27,female,Israeli,2,70,ITC,win,5,right,14,ITC_choice,1174,j,0,0,480,159731,1213738
45,27,female,Israeli,2,70,ITC,win,5,right,14,ITC_wait,0,undefined,0,0,480,154725,1218744
45,27,female,Israeli,2,70,ITC,win,5,right,14,ITC_collect,429,k,0,0,480,154293,1219176
45,27,female,Israeli,2,70,ITC,win,5,right,14,ITC_outcome,0,undefined,0,0,500,153289,1220180
45,27,female,Israeli,2,71,guess,loss,10,right,5,guess_start,357,space,0,0,500,152929,1220540
45,27,female,Israeli,2,71,guess,loss,10,right,5,guess_choice,679,f,0,0,500,152246,1221223
45,27,female,Israeli,2,71,guess,loss,10,right,5,guess_outcome,0,undefined,0,0,485,150689,1222780
45,27,female,Israeli,2,71,ITC,loss,10,right,5,ITC_start,1222,space,0,0,485,149465,1224004
45,27,female,Israeli,2,71,ITC,loss,10,right,5,ITC_choice,1440,f,0,0,485,148023,1225446
45,27,female,Israeli,2,71,ITC,loss,10,right,5,ITC_wait,0,undefined,0,0,485,148020,1225449
45,27,female,Israeli,2,71,ITC,loss,10,right,5,ITC_collect,523,k,0,0,485,147495,1225974
45,27,female,Israeli,2,71,ITC,loss,10,right,5,ITC_outcome,0,undefined,0,0,490,146490,1226979
45,27,female,Israeli,2,72,guess,loss,10,right,7,guess_start,371,space,0,0,490,146117,1227352
45,27,female,Israeli,2,72,guess,loss,10,right,7,guess_choice,613,j,0,0,490,145499,1227970
45,27,female,Israeli,2,72,guess,loss,10,right,7,guess_outcome,0,undefined,0,0,475,143941,1229528
45,27,female,Israeli,2,72,ITC,loss,10,right,7,ITC_start,474,space,0,0,475,143466,1230003
45,27,female,Israeli,2,72,ITC,loss,10,right,7,ITC_choice,1255,f,0,0,475,142208,1231261
45,27,female,Israeli,2,72,ITC,loss,10,right,7,ITC_wait,0,undefined,0,0,475,142203,1231266
45,27,female,Israeli,2,72,ITC,loss,10,right,7,ITC_collect,670,k,0,0,475,141531,1231938
45,27,female,Israeli,2,72,ITC,loss,10,right,7,ITC_outcome,0,undefined,0,0,482,140525,1232944
45,27,female,Israeli,2,73,guess,neutral,5,left,9,guess_start,432,space,0,0,482,140091,1233378
45,27,female,Israeli,2,73,guess,neutral,5,left,9,guess_choice,734,f,0,0,482,139351,1234118
45,27,female,Israeli,2,73,guess,neutral,5,left,9,guess_outcome,0,undefined,0,0,482,137792,1235677
45,27,female,Israeli,2,73,ITC,neutral,5,left,9,ITC_start,471,space,0,0,482,137319,1236150
45,27,female,Israeli,2,73,ITC,neutral,5,left,9,ITC_choice,1667,f,0,0,482,135649,1237820
45,27,female,Israeli,2,73,ITC,neutral,5,left,9,ITC_wait,0,undefined,0,0,482,130646,1242823
45,27,female,Israeli,2,73,ITC,neutral,5,left,9,ITC_collect,374,k,0,0,482,130269,1243200
45,27,female,Israeli,2,73,ITC,neutral,5,left,9,ITC_outcome,0,undefined,0,0,502,129262,1244207
45,27,female,Israeli,2,74,guess,win,5,right,1,guess_start,343,space,0,0,502,128916,1244553
45,27,female,Israeli,2,74,guess,win,5,right,1,guess_choice,744,f,0,0,502,128164,1245305
45,27,female,Israeli,2,74,guess,win,5,right,1,guess_outcome,0,undefined,0,0,522,126602,1246867
45,27,female,Israeli,2,74,ITC,win,5,right,1,ITC_start,523,space,0,0,522,126077,1247392
45,27,female,Israeli,2,74,ITC,win,5,right,1,ITC_choice,1462,j,0,0,522,124612,1248857
45,27,female,Israeli,2,74,ITC,win,5,right,1,ITC_wait,0,undefined,0,0,522,119608,1253861
45,27,female,Israeli,2,74,ITC,win,5,right,1,ITC_collect,377,k,0,0,522,119228,1254241
45,27,female,Israeli,2,74,ITC,win,5,right,1,ITC_outcome,0,undefined,0,0,542,118219,1255250
45,27,female,Israeli,2,75,guess,loss,10,left,7,guess_start,383,space,0,0,542,117833,1255636
45,27,female,Israeli,2,75,guess,loss,10,left,7,guess_choice,613,f,0,0,542,117210,1256259
45,27,female,Israeli,2,75,guess,loss,10,left,7,guess_outcome,0,undefined,0,0,527,115650,1257819
45,27,female,Israeli,2,75,ITC,loss,10,left,7,ITC_start,538,space,0,0,527,115109,1258360
45,27,female,Israeli,2,75,ITC,loss,10,left,7,ITC_choice,1407,j,0,0,527,113699,1259770
45,27,female,Israeli,2,75,ITC,loss,10,left,7,ITC_wait,0,undefined,0,0,527,113695,1259774
45,27,female,Israeli,2,75,ITC,loss,10,left,7,ITC_collect,616,k,0,0,527,113077,1260392
45,27,female,Israeli,2,75,ITC,loss,10,left,7,ITC_outcome,0,undefined,0,0,534,112068,1261401
45,27,female,Israeli,2,76,guess,win,5,right,16,guess_start,402,space,0,0,534,111662,1261807
45,27,female,Israeli,2,76,guess,win,5,right,16,guess_choice,650,f,0,0,534,111002,1262467
45,27,female,Israeli,2,76,guess,win,5,right,16,guess_outcome,0,undefined,0,0,554,109442,1264027
45,27,female,Israeli,2,76,ITC,win,5,right,16,ITC_start,393,space,0,0,554,109046,1264423
45,27,female,Israeli,2,76,ITC,win,5,right,16,ITC_choice,1497,f,0,0,554,107546,1265923
45,27,female,Israeli,2,76,ITC,win,5,right,16,ITC_wait,0,undefined,0,0,554,107542,1265927
45,27,female,Israeli,2,76,ITC,win,5,right,16,ITC_collect,624,k,0,0,554,106916,1266553
45,27,female,Israeli,2,76,ITC,win,5,right,16,ITC_outcome,0,undefined,0,0,570,105903,1267566
45,27,female,Israeli,2,77,guess,neutral,10,left,8,guess_start,321,space,0,0,570,105579,1267890
45,27,female,Israeli,2,77,guess,neutral,10,left,8,guess_choice,736,j,0,0,570,104832,1268637
45,27,female,Israeli,2,77,guess,neutral,10,left,8,guess_outcome,0,undefined,0,0,570,103270,1270199
45,27,female,Israeli,2,77,ITC,neutral,10,left,8,ITC_start,332,space,0,0,570,102935,1270534
45,27,female,Israeli,2,77,ITC,neutral,10,left,8,ITC_choice,1401,j,0,0,570,101531,1271938
45,27,female,Israeli,2,77,ITC,neutral,10,left,8,ITC_wait,0,undefined,0,0,570,101526,1271943
45,27,female,Israeli,2,77,ITC,neutral,10,left,8,ITC_collect,535,k,0,0,570,100988,1272481
45,27,female,Israeli,2,77,ITC,neutral,10,left,8,ITC_outcome,0,undefined,0,0,578,99977,1273492
45,27,female,Israeli,2,78,guess,neutral,5,right,1,guess_start,401,space,0,0,578,99572,1273897
45,27,female,Israeli,2,78,guess,neutral,5,right,1,guess_choice,548,j,0,0,578,99013,1274456
45,27,female,Israeli,2,78,guess,neutral,5,right,1,guess_outcome,0,undefined,0,0,578,97451,1276018
45,27,female,Israeli,2,78,ITC,neutral,5,right,1,ITC_start,435,space,0,0,578,97013,1276456
45,27,female,Israeli,2,78,ITC,neutral,5,right,1,ITC_choice,1860,j,0,0,578,95149,1278320
45,27,female,Israeli,2,78,ITC,neutral,5,right,1,ITC_wait,0,undefined,0,0,578,90145,1283324
45,27,female,Israeli,2,78,ITC,neutral,5,right,1,ITC_collect,393,k,0,0,578,89748,1283721
45,27,female,Israeli,2,78,ITC,neutral,5,right,1,ITC_outcome,0,undefined,0,0,598,88734,1284735
45,27,female,Israeli,2,79,guess,win,10,right,6,guess_start,380,space,0,0,598,88351,1285118
45,27,female,Israeli,2,79,guess,win,10,right,6,guess_choice,960,f,0,0,598,87376,1286093
45,27,female,Israeli,2,79,guess,win,10,right,6,guess_outcome,0,undefined,0,0,618,85811,1287658
45,27,female,Israeli,2,79,ITC,win,10,right,6,ITC_start,688,space,0,0,618,85120,1288349
45,27,female,Israeli,2,79,ITC,win,10,right,6,ITC_choice,1655,f,0,0,618,83460,1290009
45,27,female,Israeli,2,79,ITC,win,10,right,6,ITC_wait,0,undefined,0,0,618,83456,1290013
45,27,female,Israeli,2,79,ITC,win,10,right,6,ITC_collect,524,k,0,0,618,82928,1290541
45,27,female,Israeli,2,79,ITC,win,10,right,6,ITC_outcome,0,undefined,0,0,624,81914,1291555
45,27,female,Israeli,2,80,guess,neutral,5,right,15,guess_start,388,space,0,0,624,81524,1291945
45,27,female,Israeli,2,80,guess,neutral,5,right,15,guess_choice,731,f,0,0,624,80788,1292681
45,27,female,Israeli,2,80,guess,neutral,5,right,15,guess_outcome,0,undefined,0,0,624,79234,1294235
45,27,female,Israeli,2,80,ITC,neutral,5,right,15,ITC_start,484,space,0,0,624,78748,1294721
45,27,female,Israeli,2,80,ITC,neutral,5,right,15,ITC_choice,1476,f,0,0,624,77270,1296199
45,27,female,Israeli,2,80,ITC,neutral,5,right,15,ITC_wait,0,undefined,0,0,624,77266,1296203
45,27,female,Israeli,2,80,ITC,neutral,5,right,15,ITC_collect,395,k,0,0,624,76869,1296600
45,27,female,Israeli,2,80,ITC,neutral,5,right,15,ITC_outcome,0,undefined,0,0,639,75864,1297605
45,27,female,Israeli,2,81,guess,neutral,5,left,5,guess_start,478,space,0,0,639,75384,1298085
45,27,female,Israeli,2,81,guess,neutral,5,left,5,guess_choice,646,f,0,0,639,74733,1298736
45,27,female,Israeli,2,81,guess,neutral,5,left,5,guess_outcome,0,undefined,0,0,639,73176,1300293
45,27,female,Israeli,2,81,ITC,neutral,5,left,5,ITC_start,452,space,0,0,639,72722,1300747
45,27,female,Israeli,2,81,ITC,neutral,5,left,5,ITC_choice,1218,f,0,0,639,71502,1301967
45,27,female,Israeli,2,81,ITC,neutral,5,left,5,ITC_wait,0,undefined,0,0,639,66499,1306970
45,27,female,Israeli,2,81,ITC,neutral,5,left,5,ITC_collect,427,k,0,0,639,66070,1307399
45,27,female,Israeli,2,81,ITC,neutral,5,left,5,ITC_outcome,0,undefined,0,0,659,65064,1308405
45,27,female,Israeli,2,82,guess,loss,5,left,14,guess_start,361,space,0,0,659,64700,1308769
45,27,female,Israeli,2,82,guess,loss,5,left,14,guess_choice,864,f,0,0,659,63831,1309638
45,27,female,Israeli,2,82,guess,loss,5,left,14,guess_outcome,0,undefined,0,0,644,62272,1311197
45,27,female,Israeli,2,82,ITC,loss,5,left,14,ITC_start,983,space,0,0,644,61288,1312181
45,27,female,Israeli,2,82,ITC,loss,5,left,14,ITC_choice,1359,j,0,0,644,59926,1313543
45,27,female,Israeli,2,82,ITC,loss,5,left,14,ITC_wait,0,undefined,0,0,644,59923,1313546
45,27,female,Israeli,2,82,ITC,loss,5,left,14,ITC_collect,571,k,0,0,644,59350,1314119
45,27,female,Israeli,2,82,ITC,loss,5,left,14,ITC_outcome,0,undefined,0,0,658,58342,1315127
45,27,female,Israeli,2,83,guess,neutral,10,left,3,guess_start,403,space,0,0,658,57936,1315533
45,27,female,Israeli,2,83,guess,neutral,10,left,3,guess_choice,627,f,0,0,658,57300,1316169
45,27,female,Israeli,2,83,guess,neutral,10,left,3,guess_outcome,0,undefined,0,0,658,55741,1317728
45,27,female,Israeli,2,83,ITC,neutral,10,left,3,ITC_start,574,space,0,0,658,55165,1318304
45,27,female,Israeli,2,83,ITC,neutral,10,left,3,ITC_choice,1183,j,0,0,658,53980,1319489
45,27,female,Israeli,2,83,ITC,neutral,10,left,3,ITC_wait,0,undefined,0,0,658,53977,1319492
45,27,female,Israeli,2,83,ITC,neutral,10,left,3,ITC_collect,380,k,0,0,658,53595,1319874
45,27,female,Israeli,2,83,ITC,neutral,10,left,3,ITC_outcome,0,undefined,0,0,661,52585,1320884
45,27,female,Israeli,2,84,guess,loss,5,left,11,guess_start,342,space,0,0,661,52241,1321228
45,27,female,Israeli,2,84,guess,loss,5,left,11,guess_choice,589,f,0,0,661,51643,1321826
45,27,female,Israeli,2,84,guess,loss,5,left,11,guess_outcome,0,undefined,0,0,646,50083,1323386
45,27,female,Israeli,2,84,ITC,loss,5,left,11,ITC_start,147,space,0,0,646,49933,1323536
45,27,female,Israeli,2,84,ITC,loss,5,left,11,ITC_choice,1287,j,0,0,646,48643,1324826
45,27,female,Israeli,2,84,ITC,loss,5,left,11,ITC_wait,0,undefined,0,0,646,48640,1324829
45,27,female,Israeli,2,84,ITC,loss,5,left,11,ITC_collect,389,k,0,0,646,48248,1325221
45,27,female,Israeli,2,84,ITC,loss,5,left,11,ITC_outcome,0,undefined,0,0,657,47239,1326230
45,27,female,Israeli,2,85,guess,win,10,left,3,guess_start,389,space,0,0,657,46847,1326622
45,27,female,Israeli,2,85,guess,win,10,left,3,guess_choice,1089,f,0,0,657,45748,1327721
45,27,female,Israeli,2,85,guess,win,10,left,3,guess_outcome,0,undefined,0,0,677,44187,1329282
45,27,female,Israeli,2,85,ITC,win,10,left,3,ITC_start,410,space,0,0,677,43774,1329695
45,27,female,Israeli,2,85,ITC,win,10,left,3,ITC_choice,1156,j,0,0,677,42616,1330853
45,27,female,Israeli,2,85,ITC,win,10,left,3,ITC_wait,0,undefined,0,0,677,42611,1330858
45,27,female,Israeli,2,85,ITC,win,10,left,3,ITC_collect,366,k,0,0,677,42241,1331228
45,27,female,Israeli,2,85,ITC,win,10,left,3,ITC_outcome,0,undefined,0,0,680,41230,1332239
45,27,female,Israeli,2,86,guess,neutral,10,left,2,guess_start,392,space,0,0,680,40835,1332634
45,27,female,Israeli,2,86,guess,neutral,10,left,2,guess_choice,705,f,0,0,680,40120,1333349
45,27,female,Israeli,2,86,guess,neutral,10,left,2,guess_outcome,0,undefined,0,0,680,38558,1334911
45,27,female,Israeli,2,86,ITC,neutral,10,left,2,ITC_start,492,space,0,0,680,38064,1335405
45,27,female,Israeli,2,86,ITC,neutral,10,left,2,ITC_choice,1335,j,0,0,680,36726,1336743
45,27,female,Israeli,2,86,ITC,neutral,10,left,2,ITC_wait,0,undefined,0,0,680,36722,1336747
45,27,female,Israeli,2,86,ITC,neutral,10,left,2,ITC_collect,365,k,0,0,680,36354,1337115
45,27,female,Israeli,2,86,ITC,neutral,10,left,2,ITC_outcome,0,undefined,0,0,682,35343,1338126
45,27,female,Israeli,2,87,guess,win,5,right,6,guess_start,362,space,0,0,682,34978,1338491
45,27,female,Israeli,2,87,guess,win,5,right,6,guess_choice,457,j,0,0,682,34511,1338958
45,27,female,Israeli,2,87,guess,win,5,right,6,guess_outcome,0,undefined,0,0,702,32951,1340518
45,27,female,Israeli,2,87,ITC,win,5,right,6,ITC_start,334,space,0,0,702,32615,1340854
45,27,female,Israeli,2,87,ITC,win,5,right,6,ITC_choice,1722,j,0,0,702,30890,1342579
45,27,female,Israeli,2,87,ITC,win,5,right,6,ITC_wait,0,undefined,0,0,702,25884,1347585
45,27,female,Israeli,2,87,ITC,win,5,right,6,ITC_collect,347,k,0,0,702,25534,1347935
45,27,female,Israeli,2,87,ITC,win,5,right,6,ITC_outcome,0,undefined,0,0,722,24521,1348948
45,27,female,Israeli,2,88,guess,loss,5,right,1,guess_start,437,space,0,0,722,24080,1349389
45,27,female,Israeli,2,88,guess,loss,5,right,1,guess_choice,619,f,0,0,722,23450,1350019
45,27,female,Israeli,2,88,guess,loss,5,right,1,guess_outcome,0,undefined,0,0,707,21888,1351581
45,27,female,Israeli,2,88,ITC,loss,5,right,1,ITC_start,246,space,0,0,707,21639,1351830
45,27,female,Israeli,2,88,ITC,loss,5,right,1,ITC_choice,1463,j,0,0,707,20172,1353297
45,27,female,Israeli,2,88,ITC,loss,5,right,1,ITC_wait,0,undefined,0,0,707,15165,1358304
45,27,female,Israeli,2,88,ITC,loss,5,right,1,ITC_collect,313,k,0,0,707,14849,1358620
45,27,female,Israeli,2,88,ITC,loss,5,right,1,ITC_outcome,0,undefined,0,0,727,13836,1359633
45,27,female,Israeli,2,89,guess,win,5,left,12,guess_start,326,space,0,0,727,13507,1359962
45,27,female,Israeli,2,89,guess,win,5,left,12,guess_choice,624,f,0,0,727,12871,1360598
45,27,female,Israeli,2,89,guess,win,5,left,12,guess_outcome,0,undefined,0,0,747,11308,1362161
45,27,female,Israeli,2,89,ITC,win,5,left,12,ITC_start,346,space,0,0,747,10961,1362508
45,27,female,Israeli,2,89,ITC,win,5,left,12,ITC_choice,1668,j,0,0,747,9291,1364178
45,27,female,Israeli,2,89,ITC,win,5,left,12,ITC_wait,0,undefined,0,0,747,9287,1364182
45,27,female,Israeli,2,89,ITC,win,5,left,12,ITC_collect,474,k,0,0,747,8812,1364657
45,27,female,Israeli,2,89,ITC,win,5,left,12,ITC_outcome,0,undefined,0,0,759,7808,1365661
45,27,female,Israeli,2,90,guess,neutral,5,left,12,guess_start,343,space,0,0,759,7463,1366006
45,27,female,Israeli,2,90,guess,neutral,5,left,12,guess_choice,657,j,0,0,759,6801,1366668
45,27,female,Israeli,2,90,guess,neutral,5,left,12,guess_outcome,0,undefined,0,0,759,5245,1368224
45,27,female,Israeli,2,90,ITC,neutral,5,left,12,ITC_start,346,space,0,0,759,4897,1368572
45,27,female,Israeli,2,90,ITC,neutral,5,left,12,ITC_choice,1040,j,0,0,759,3854,1369615
45,27,female,Israeli,2,90,ITC,neutral,5,left,12,ITC_wait,0,undefined,0,0,759,3850,1369619
45,27,female,Israeli,2,90,ITC,neutral,5,left,12,ITC_collect,638,k,0,0,759,3211,1370258
45,27,female,Israeli,2,90,ITC,neutral,5,left,12,ITC_outcome,0,undefined,0,0,771,2206,1371263
45,27,female,Israeli,2,91,guess,win,5,left,14,guess_start,391,space,0,0,771,1814,1371655
45,27,female,Israeli,2,91,guess,win,5,left,14,guess_choice,619,f,0,0,771,1188,1372281
45,27,female,Israeli,2,91,guess,win,5,left,14,guess_outcome,0,undefined,0,0,791,-6,1373475
45,27,female,Israeli,3,92,guess,win,5,left,10,guess_start,1382,space,0,0,0,478615,1417493
45,27,female,Israeli,3,92,guess,win,5,left,10,guess_choice,1415,j,0,0,0,477188,1418920
45,27,female,Israeli,3,92,guess,win,5,left,10,guess_outcome,0,undefined,0,0,20,475625,1420483
45,27,female,Israeli,3,92,ITC,win,5,left,10,ITC_start,567,space,0,0,20,475054,1421054
45,27,female,Israeli,3,92,ITC,win,5,left,10,ITC_choice,1868,f,0,0,20,473183,1422925
45,27,female,Israeli,3,92,ITC,win,5,left,10,ITC_wait,0,undefined,0,0,20,468179,1427929
45,27,female,Israeli,3,92,ITC,win,5,left,10,ITC_collect,543,k,0,0,20,467633,1428475
45,27,female,Israeli,3,92,ITC,win,5,left,10,ITC_outcome,0,undefined,0,0,40,466620,1429488
45,27,female,Israeli,3,93,guess,neutral,5,left,13,guess_start,353,space,0,0,40,466263,1429845
45,27,female,Israeli,3,93,guess,neutral,5,left,13,guess_choice,578,j,0,0,40,465671,1430437
45,27,female,Israeli,3,93,guess,neutral,5,left,13,guess_outcome,0,undefined,0,0,40,464107,1432001
45,27,female,Israeli,3,93,ITC,neutral,5,left,13,ITC_start,1876,space,0,0,40,462228,1433880
45,27,female,Israeli,3,93,ITC,neutral,5,left,13,ITC_choice,1691,j,0,0,40,460534,1435574
45,27,female,Israeli,3,93,ITC,neutral,5,left,13,ITC_wait,0,undefined,0,0,40,460528,1435580
45,27,female,Israeli,3,93,ITC,neutral,5,left,13,ITC_collect,451,k,0,0,40,460074,1436034
45,27,female,Israeli,3,93,ITC,neutral,5,left,13,ITC_outcome,0,undefined,0,0,53,459061,1437047
45,27,female,Israeli,3,94,guess,loss,5,left,6,guess_start,485,space,0,0,53,458572,1437536
45,27,female,Israeli,3,94,guess,loss,5,left,6,guess_choice,727,f,0,0,53,457832,1438276
45,27,female,Israeli,3,94,guess,loss,5,left,6,guess_outcome,0,undefined,0,0,38,456265,1439843
45,27,female,Israeli,3,94,ITC,loss,5,left,6,ITC_start,418,space,0,0,38,455844,1440264
45,27,female,Israeli,3,94,ITC,loss,5,left,6,ITC_choice,1461,j,0,0,38,454379,1441729
45,27,female,Israeli,3,94,ITC,loss,5,left,6,ITC_wait,0,undefined,0,0,38,454375,1441733
45,27,female,Israeli,3,94,ITC,loss,5,left,6,ITC_collect,624,k,0,0,38,453748,1442360
45,27,female,Israeli,3,94,ITC,loss,5,left,6,ITC_outcome,0,undefined,0,0,44,452734,1443374
45,27,female,Israeli,3,95,guess,neutral,10,right,1,guess_start,498,space,0,0,44,452232,1443876
45,27,female,Israeli,3,95,guess,neutral,10,right,1,guess_choice,620,f,0,0,44,451598,1444510
45,27,female,Israeli,3,95,guess,neutral,10,right,1,guess_outcome,0,undefined,0,0,44,450032,1446076
45,27,female,Israeli,3,95,ITC,neutral,10,right,1,ITC_start,741,space,0,0,44,449287,1446821
45,27,female,Israeli,3,95,ITC,neutral,10,right,1,ITC_choice,1007,j,0,0,44,448277,1447831
45,27,female,Israeli,3,95,ITC,neutral,10,right,1,ITC_wait,0,undefined,0,0,44,438272,1457836
45,27,female,Israeli,3,95,ITC,neutral,10,right,1,ITC_collect,1121,k,0,0,44,437147,1458961
45,27,female,Israeli,3,95,ITC,neutral,10,right,1,ITC_outcome,0,undefined,0,0,64,436131,1459977
45,27,female,Israeli,3,96,guess,loss,5,left,12,guess_start,400,space,0,0,64,435727,1460381
45,27,female,Israeli,3,96,guess,loss,5,left,12,guess_choice,1079,j,0,0,64,434634,1461474
45,27,female,Israeli,3,96,guess,loss,5,left,12,guess_outcome,0,undefined,0,0,49,433066,1463042
45,27,female,Israeli,3,96,ITC,loss,5,left,12,ITC_start,486,space,0,0,49,432576,1463532
45,27,female,Israeli,3,96,ITC,loss,5,left,12,ITC_choice,1339,j,0,0,49,431233,1464875
45,27,female,Israeli,3,96,ITC,loss,5,left,12,ITC_wait,0,undefined,0,0,49,431226,1464882
45,27,female,Israeli,3,96,ITC,loss,5,left,12,ITC_collect,464,k,0,0,49,430759,1465349
45,27,female,Israeli,3,96,ITC,loss,5,left,12,ITC_outcome,0,undefined,0,0,61,429741,1466367
45,27,female,Israeli,3,97,guess,loss,5,left,4,guess_start,401,space,0,0,61,429336,1466772
45,27,female,Israeli,3,97,guess,loss,5,left,4,guess_choice,608,f,0,0,61,428711,1467397
45,27,female,Israeli,3,97,guess,loss,5,left,4,guess_outcome,0,undefined,0,0,46,427145,1468963
45,27,female,Israeli,3,97,ITC,loss,5,left,4,ITC_start,773,space,0,0,46,426369,1469739
45,27,female,Israeli,3,97,ITC,loss,5,left,4,ITC_choice,1489,f,0,0,46,424877,1471231
45,27,female,Israeli,3,97,ITC,loss,5,left,4,ITC_wait,0,undefined,0,0,46,419874,1476234
45,27,female,Israeli,3,97,ITC,loss,5,left,4,ITC_collect,358,k,0,0,46,419514,1476594
45,27,female,Israeli,3,97,ITC,loss,5,left,4,ITC_outcome,0,undefined,0,0,66,418511,1477597
45,27,female,Israeli,3,98,guess,win,5,right,8,guess_start,390,space,0,0,66,418119,1477989
45,27,female,Israeli,3,98,guess,win,5,right,8,guess_choice,727,j,0,0,66,417386,1478722
45,27,female,Israeli,3,98,guess,win,5,right,8,guess_outcome,0,undefined,0,0,86,415830,1480278
45,27,female,Israeli,3,98,ITC,win,5,right,8,ITC_start,409,space,0,0,86,415419,1480689
45,27,female,Israeli,3,98,ITC,win,5,right,8,ITC_choice,1359,j,0,0,86,414057,1482051
45,27,female,Israeli,3,98,ITC,win,5,right,8,ITC_wait,0,undefined,0,0,86,409054,1487054
45,27,female,Israeli,3,98,ITC,win,5,right,8,ITC_collect,579,k,0,0,86,408472,1487636
45,27,female,Israeli,3,98,ITC,win,5,right,8,ITC_outcome,0,undefined,0,0,106,407466,1488642
45,27,female,Israeli,3,99,guess,win,5,right,4,guess_start,883,space,0,0,106,406579,1489529
45,27,female,Israeli,3,99,guess,win,5,right,4,guess_choice,797,f,0,0,106,405775,1490333
45,27,female,Israeli,3,99,guess,win,5,right,4,guess_outcome,0,undefined,0,0,126,404216,1491892
45,27,female,Israeli,3,99,ITC,win,5,right,4,ITC_start,346,space,0,0,126,403867,1492241
45,27,female,Israeli,3,99,ITC,win,5,right,4,ITC_choice,1350,j,0,0,126,402515,1493593
45,27,female,Israeli,3,99,ITC,win,5,right,4,ITC_wait,0,undefined,0,0,126,397512,1498596
45,27,female,Israeli,3,99,ITC,win,5,right,4,ITC_collect,1036,k,0,0,126,396473,1499635
45,27,female,Israeli,3,99,ITC,win,5,right,4,ITC_outcome,0,undefined,0,0,146,395465,1500643
45,27,female,Israeli,3,100,guess,loss,5,right,8,guess_start,1609,space,0,0,146,393852,1502256
45,27,female,Israeli,3,100,guess,loss,5,right,8,guess_choice,1224,f,0,0,146,392610,1503498
45,27,female,Israeli,3,100,guess,loss,5,right,8,guess_outcome,0,undefined,0,0,131,391050,1505058
45,27,female,Israeli,3,100,ITC,loss,5,right,8,ITC_start,837,space,0,0,131,390209,1505899
45,27,female,Israeli,3,100,ITC,loss,5,right,8,ITC_choice,1527,j,0,0,131,388679,1507429
45,27,female,Israeli,3,100,ITC,loss,5,right,8,ITC_wait,0,undefined,0,0,131,383665,1512443
45,27,female,Israeli,3,100,ITC,loss,5,right,8,ITC_collect,517,k,0,0,131,383145,1512963
45,27,female,Israeli,3,100,ITC,loss,5,right,8,ITC_outcome,0,undefined,0,0,151,382134,1513974
45,27,female,Israeli,3,101,guess,neutral,10,right,7,guess_start,609,space,0,0,151,381523,1514585
45,27,female,Israeli,3,101,guess,neutral,10,right,7,guess_choice,682,f,0,0,151,380832,1515276
45,27,female,Israeli,3,101,guess,neutral,10,right,7,guess_outcome,0,undefined,0,0,151,379274,1516834
45,27,female,Israeli,3,101,ITC,neutral,10,right,7,ITC_start,1403,space,0,0,151,377868,1518240
45,27,female,Israeli,3,101,ITC,neutral,10,right,7,ITC_choice,1318,f,0,0,151,376547,1519561
45,27,female,Israeli,3,101,ITC,neutral,10,right,7,ITC_wait,0,undefined,0,0,151,376543,1519565
45,27,female,Israeli,3,101,ITC,neutral,10,right,7,ITC_collect,870,k,0,0,151,375670,1520438
45,27,female,Israeli,3,101,ITC,neutral,10,right,7,ITC_outcome,0,undefined,0,0,158,374662,1521446
45,27,female,Israeli,3,102,guess,loss,5,left,10,guess_start,554,space,0,0,158,374104,1522004
45,27,female,Israeli,3,102,guess,loss,5,left,10,guess_choice,1030,j,0,0,158,373064,1523044
45,27,female,Israeli,3,102,guess,loss,5,left,10,guess_outcome,0,undefined,0,0,143,371501,1524607
45,27,female,Israeli,3,102,ITC,loss,5,left,10,ITC_start,1102,space,0,0,143,370396,1525712
45,27,female,Israeli,3,102,ITC,loss,5,left,10,ITC_choice,1414,f,0,0,143,368965,1527143
45,27,female,Israeli,3,102,ITC,loss,5,left,10,ITC_wait,0,undefined,0,0,143,363961,1532147
45,27,female,Israeli,3,102,ITC,loss,5,left,10,ITC_collect,338,k,0,0,143,363619,1532489
45,27,female,Israeli,3,102,ITC,loss,5,left,10,ITC_outcome,0,undefined,0,0,163,362605,1533503
45,27,female,Israeli,3,103,guess,win,10,left,2,guess_start,408,space,0,0,163,362179,1533929
45,27,female,Israeli,3,103,guess,win,10,left,2,guess_choice,789,j,0,0,163,361370,1534738
45,27,female,Israeli,3,103,guess,win,10,left,2,guess_outcome,0,undefined,0,0,183,359807,1536301
45,27,female,Israeli,3,103,ITC,win,10,left,2,ITC_start,401,space,0,0,183,359403,1536705
45,27,female,Israeli,3,103,ITC,win,10,left,2,ITC_choice,1293,j,0,0,183,358107,1538001
45,27,female,Israeli,3,103,ITC,win,10,left,2,ITC_wait,0,undefined,0,0,183,358103,1538005
45,27,female,Israeli,3,103,ITC,win,10,left,2,ITC_collect,446,k,0,0,183,357653,1538455
45,27,female,Israeli,3,103,ITC,win,10,left,2,ITC_outcome,0,undefined,0,0,185,356640,1539468
45,27,female,Israeli,3,104,guess,loss,5,left,3,guess_start,272,space,0,0,185,356364,1539744
45,27,female,Israeli,3,104,guess,loss,5,left,3,guess_choice,1068,f,0,0,185,355283,1540825
45,27,female,Israeli,3,104,guess,loss,5,left,3,guess_outcome,0,undefined,0,0,170,353718,1542390
45,27,female,Israeli,3,104,ITC,loss,5,left,3,ITC_start,585,space,0,0,170,353129,1542979
45,27,female,Israeli,3,104,ITC,loss,5,left,3,ITC_choice,1310,f,0,0,170,351816,1544292
45,27,female,Israeli,3,104,ITC,loss,5,left,3,ITC_wait,0,undefined,0,0,170,346810,1549298
45,27,female,Israeli,3,104,ITC,loss,5,left,3,ITC_collect,566,k,0,0,170,346241,1549867
45,27,female,Israeli,3,104,ITC,loss,5,left,3,ITC_outcome,0,undefined,0,0,190,345226,1550882
45,27,female,Israeli,3,105,guess,win,5,right,5,guess_start,313,space,0,0,190,344909,1551199
45,27,female,Israeli,3,105,guess,win,5,right,5,guess_choice,711,f,0,0,190,344183,1551925
45,27,female,Israeli,3,105,guess,win,5,right,5,guess_outcome,0,undefined,0,0,210,342617,1553491
45,27,female,Israeli,3,105,ITC,win,5,right,5,ITC_start,592,space,0,0,210,342022,1554086
45,27,female,Israeli,3,105,ITC,win,5,right,5,ITC_choice,1593,j,0,0,210,340425,1555683
45,27,female,Israeli,3,105,ITC,win,5,right,5,ITC_wait,0,undefined,0,0,210,335420,1560688
45,27,female,Israeli,3,105,ITC,win,5,right,5,ITC_collect,356,k,0,0,210,335060,1561048
45,27,female,Israeli,3,105,ITC,win,5,right,5,ITC_outcome,0,undefined,0,0,230,334044,1562064
45,27,female,Israeli,3,106,guess,loss,10,right,6,guess_start,299,space,0,0,230,333741,1562367
45,27,female,Israeli,3,106,guess,loss,10,right,6,guess_choice,686,j,0,0,230,333040,1563068
45,27,female,Israeli,3,106,guess,loss,10,right,6,guess_outcome,0,undefined,0,0,215,331486,1564622
45,27,female,Israeli,3,106,ITC,loss,10,right,6,ITC_start,493,space,0,0,215,330991,1565117
45,27,female,Israeli,3,106,ITC,loss,10,right,6,ITC_choice,1657,f,0,0,215,329331,1566777
45,27,female,Israeli,3,106,ITC,loss,10,right,6,ITC_wait,0,undefined,0,0,215,329328,1566780
45,27,female,Israeli,3,106,ITC,loss,10,right,6,ITC_collect,268,k,0,0,215,329058,1567050
45,27,female,Israeli,3,106,ITC,loss,10,right,6,ITC_outcome,0,undefined,0,0,221,328054,1568054
45,27,female,Israeli,3,107,guess,neutral,5,right,7,guess_start,429,space,0,0,221,327622,1568486
45,27,female,Israeli,3,107,guess,neutral,5,right,7,guess_choice,670,j,0,0,221,326947,1569161
45,27,female,Israeli,3,107,guess,neutral,5,right,7,guess_outcome,0,undefined,0,0,221,325392,1570716
45,27,female,Israeli,3,107,ITC,neutral,5,right,7,ITC_start,395,space,0,0,221,324994,1571114
45,27,female,Israeli,3,107,ITC,neutral,5,right,7,ITC_choice,1133,j,0,0,221,323859,1572249
45,27,female,Israeli,3,107,ITC,neutral,5,right,7,ITC_wait,0,undefined,0,0,221,318856,1577252
45,27,female,Israeli,3,107,ITC,neutral,5,right,7,ITC_collect,1204,k,0,0,221,317649,1578459
45,27,female,Israeli,3,107,ITC,neutral,5,right,7,ITC_outcome,0,undefined,0,0,241,316643,1579465
45,27,female,Israeli,3,108,guess,loss,5,left,5,guess_start,283,space,0,0,241,316356,1579752
45,27,female,Israeli,3,108,guess,loss,5,left,5,guess_choice,714,f,0,0,241,315638,1580470
45,27,female,Israeli,3,108,guess,loss,5,left,5,guess_outcome,0,undefined,0,0,226,314080,1582028
45,27,female,Israeli,3,108,ITC,loss,5,left,5,ITC_start,455,space,0,0,226,313622,1582486
45,27,female,Israeli,3,108,ITC,loss,5,left,5,ITC_choice,1247,f,0,0,226,312374,1583734
45,27,female,Israeli,3,108,ITC,loss,5,left,5,ITC_wait,0,undefined,0,0,226,307371,1588737
45,27,female,Israeli,3,108,ITC,loss,5,left,5,ITC_collect,302,k,0,0,226,307065,1589043
45,27,female,Israeli,3,108,ITC,loss,5,left,5,ITC_outcome,0,undefined,0,0,246,306057,1590051
45,27,female,Israeli,3,109,guess,neutral,5,right,3,guess_start,535,space,0,0,246,305519,1590589
45,27,female,Israeli,3,109,guess,neutral,5,right,3,guess_choice,585,j,0,0,246,304926,1591182
45,27,female,Israeli,3,109,guess,neutral,5,right,3,guess_outcome,0,undefined,0,0,246,303366,1592742
45,27,female,Israeli,3,109,ITC,neutral,5,right,3,ITC_start,619,space,0,0,246,302745,1593363
45,27,female,Israeli,3,109,ITC,neutral,5,right,3,ITC_choice,1181,j,0,0,246,301561,1594547
45,27,female,Israeli,3,109,ITC,neutral,5,right,3,ITC_wait,0,undefined,0,0,246,296557,1599551
45,27,female,Israeli,3,109,ITC,neutral,5,right,3,ITC_collect,406,k,0,0,246,296147,1599961
45,27,female,Israeli,3,109,ITC,neutral,5,right,3,ITC_outcome,0,undefined,0,0,266,295137,1600971
45,27,female,Israeli,3,110,guess,neutral,5,left,11,guess_start,364,space,0,0,266,294770,1601338
45,27,female,Israeli,3,110,guess,neutral,5,left,11,guess_choice,592,f,0,0,266,294167,1601941
45,27,female,Israeli,3,110,guess,neutral,5,left,11,guess_outcome,0,undefined,0,0,266,292606,1603502
45,27,female,Israeli,3,110,ITC,neutral,5,left,11,ITC_start,480,space,0,0,266,292124,1603984
45,27,female,Israeli,3,110,ITC,neutral,5,left,11,ITC_choice,1124,f,0,0,266,290997,1605111
45,27,female,Israeli,3,110,ITC,neutral,5,left,11,ITC_wait,0,undefined,0,0,266,285990,1610118
45,27,female,Israeli,3,110,ITC,neutral,5,left,11,ITC_collect,445,k,0,0,266,285542,1610566
45,27,female,Israeli,3,110,ITC,neutral,5,left,11,ITC_outcome,0,undefined,0,0,286,284534,1611574
45,27,female,Israeli,3,111,guess,win,5,left,9,guess_start,366,space,0,0,286,284165,1611943
45,27,female,Israeli,3,111,guess,win,5,left,9,guess_choice,970,j,0,0,286,283184,1612924
45,27,female,Israeli,3,111,guess,win,5,left,9,guess_outcome,0,undefined,0,0,306,281622,1614486
45,27,female,Israeli,3,111,ITC,win,5,left,9,ITC_start,18,space,0,0,306,281602,1614506
45,27,female,Israeli,3,111,ITC,win,5,left,9,ITC_choice,1378,f,0,0,306,280222,1615886
45,27,female,Israeli,3,111,ITC,win,5,left,9,ITC_wait,0,undefined,0,0,306,275217,1620891
45,27,female,Israeli,3,111,ITC,win,5,left,9,ITC_collect,361,k,0,0,306,274853,1621255
45,27,female,Israeli,3,111,ITC,win,5,left,9,ITC_outcome,0,undefined,0,0,326,273842,1622266
45,27,female,Israeli,3,112,guess,loss,5,right,7,guess_start,321,space,0,0,326,273517,1622591
45,27,female,Israeli,3,112,guess,loss,5,right,7,guess_choice,622,f,0,0,326,272883,1623225
45,27,female,Israeli,3,112,guess,loss,5,right,7,guess_outcome,0,undefined,0,0,311,271321,1624787
45,27,female,Israeli,3,112,ITC,loss,5,right,7,ITC_start,813,space,0,0,311,270505,1625603
45,27,female,Israeli,3,112,ITC,loss,5,right,7,ITC_choice,1283,j,0,0,311,269218,1626890
45,27,female,Israeli,3,112,ITC,loss,5,right,7,ITC_wait,0,undefined,0,0,311,264214,1631894
45,27,female,Israeli,3,112,ITC,loss,5,right,7,ITC_collect,274,k,0,0,311,263936,1632172
45,27,female,Israeli,3,112,ITC,loss,5,right,7,ITC_outcome,0,undefined,0,0,331,262922,1633186
45,27,female,Israeli,3,113,guess,neutral,5,right,8,guess_start,289,space,0,0,331,262629,1633479
45,27,female,Israeli,3,113,guess,neutral,5,right,8,guess_choice,635,f,0,0,331,261981,1634127
45,27,female,Israeli,3,113,guess,neutral,5,right,8,guess_outcome,0,undefined,0,0,331,260416,1635692
45,27,female,Israeli,3,113,ITC,neutral,5,right,8,ITC_start,455,space,0,0,331,259958,1636150
45,27,female,Israeli,3,113,ITC,neutral,5,right,8,ITC_choice,1107,j,0,0,331,258847,1637261
45,27,female,Israeli,3,113,ITC,neutral,5,right,8,ITC_wait,0,undefined,0,0,331,253841,1642267
45,27,female,Israeli,3,113,ITC,neutral,5,right,8,ITC_collect,336,k,0,0,331,253501,1642607
45,27,female,Israeli,3,113,ITC,neutral,5,right,8,ITC_outcome,0,undefined,0,0,351,252484,1643624
45,27,female,Israeli,3,114,guess,win,10,left,1,guess_start,417,space,0,0,351,252063,1644045
45,27,female,Israeli,3,114,guess,win,10,left,1,guess_choice,900,j,0,0,351,251148,1644960
45,27,female,Israeli,3,114,guess,win,10,left,1,guess_outcome,0,undefined,0,0,371,249583,1646525
45,27,female,Israeli,3,114,ITC,win,10,left,1,ITC_start,600,space,0,0,371,248980,1647128
45,27,female,Israeli,3,114,ITC,win,10,left,1,ITC_choice,1502,j,0,0,371,247475,1648633
45,27,female,Israeli,3,114,ITC,win,10,left,1,ITC_wait,0,undefined,0,0,371,247470,1648638
45,27,female,Israeli,3,114,ITC,win,10,left,1,ITC_collect,297,k,0,0,371,247170,1648938
45,27,female,Israeli,3,114,ITC,win,10,left,1,ITC_outcome,0,undefined,0,0,372,246156,1649952
45,27,female,Israeli,3,115,guess,loss,10,right,1,guess_start,439,space,0,0,372,245714,1650394
45,27,female,Israeli,3,115,guess,loss,10,right,1,guess_choice,593,f,0,0,372,245117,1650991
45,27,female,Israeli,3,115,guess,loss,10,right,1,guess_outcome,0,undefined,0,0,357,243561,1652547
45,27,female,Israeli,3,115,ITC,loss,10,right,1,ITC_start,542,space,0,0,357,243018,1653090
45,27,female,Israeli,3,115,ITC,loss,10,right,1,ITC_choice,1043,f,0,0,357,241973,1654135
45,27,female,Israeli,3,115,ITC,loss,10,right,1,ITC_wait,0,undefined,0,0,357,241969,1654139
45,27,female,Israeli,3,115,ITC,loss,10,right,1,ITC_collect,388,k,0,0,357,241578,1654530
45,27,female,Israeli,3,115,ITC,loss,10,right,1,ITC_outcome,0,undefined,0,0,358,240574,1655534
45,27,female,Israeli,3,116,guess,loss,10,left,2,guess_start,376,space,0,0,358,240196,1655912
45,27,female,Israeli,3,116,guess,loss,10,left,2,guess_choice,739,j,0,0,358,239453,1656655
45,27,female,Israeli,3,116,guess,loss,10,left,2,guess_outcome,0,undefined,0,0,343,237897,1658211
45,27,female,Israeli,3,116,ITC,loss,10,left,2,ITC_start,461,space,0,0,343,237434,1658674
45,27,female,Israeli,3,116,ITC,loss,10,left,2,ITC_choice,1136,j,0,0,343,236296,1659812
45,27,female,Israeli,3,116,ITC,loss,10,left,2,ITC_wait,0,undefined,0,0,343,236292,1659816
45,27,female,Israeli,3,116,ITC,loss,10,left,2,ITC_collect,491,k,0,0,343,235799,1660309
45,27,female,Israeli,3,116,ITC,loss,10,left,2,ITC_outcome,0,undefined,0,0,345,234794,1661314
45,27,female,Israeli,3,117,guess,win,10,right,7,guess_start,333,space,0,0,345,234458,1661650
45,27,female,Israeli,3,117,guess,win,10,right,7,guess_choice,653,f,0,0,345,233799,1662309
45,27,female,Israeli,3,117,guess,win,10,right,7,guess_outcome,0,undefined,0,0,365,232240,1663868
45,27,female,Israeli,3,117,ITC,win,10,right,7,ITC_start,359,space,0,0,365,231879,1664229
45,27,female,Israeli,3,117,ITC,win,10,right,7,ITC_choice,913,f,0,0,365,230963,1665145
45,27,female,Israeli,3,117,ITC,win,10,right,7,ITC_wait,0,undefined,0,0,365,230960,1665148
45,27,female,Israeli,3,117,ITC,win,10,right,7,ITC_collect,315,k,0,0,365,230643,1665465
45,27,female,Israeli,3,117,ITC,win,10,right,7,ITC_outcome,0,undefined,0,0,372,229636,1666472
45,27,female,Israeli,3,118,guess,neutral,5,right,10,guess_start,458,space,0,0,372,229176,1666932
45,27,female,Israeli,3,118,guess,neutral,5,right,10,guess_choice,543,j,0,0,372,228625,1667483
45,27,female,Israeli,3,118,guess,neutral,5,right,10,guess_outcome,0,undefined,0,0,372,227071,1669037
45,27,female,Israeli,3,118,ITC,neutral,5,right,10,ITC_start,220,space,0,0,372,226849,1669259
45,27,female,Israeli,3,118,ITC,neutral,5,right,10,ITC_choice,875,j,0,0,372,225970,1670138
45,27,female,Israeli,3,118,ITC,neutral,5,right,10,ITC_wait,0,undefined,0,0,372,220966,1675142
45,27,female,Israeli,3,118,ITC,neutral,5,right,10,ITC_collect,348,k,0,0,372,220616,1675492
45,27,female,Israeli,3,118,ITC,neutral,5,right,10,ITC_outcome,0,undefined,0,0,392,219606,1676502
45,27,female,Israeli,3,119,guess,win,10,left,5,guess_start,313,space,0,0,392,219290,1676818
45,27,female,Israeli,3,119,guess,win,10,left,5,guess_choice,663,j,0,0,392,218618,1677490
45,27,female,Israeli,3,119,guess,win,10,left,5,guess_outcome,0,undefined,0,0,412,217057,1679051
45,27,female,Israeli,3,119,ITC,win,10,left,5,ITC_start,441,space,0,0,412,216614,1679494
45,27,female,Israeli,3,119,ITC,win,10,left,5,ITC_choice,1336,j,0,0,412,215275,1680833
45,27,female,Israeli,3,119,ITC,win,10,left,5,ITC_wait,0,undefined,0,0,412,215272,1680836
45,27,female,Israeli,3,119,ITC,win,10,left,5,ITC_collect,382,k,0,0,412,214888,1681220
45,27,female,Israeli,3,119,ITC,win,10,left,5,ITC_outcome,0,undefined,0,0,417,213878,1682230
45,27,female,Israeli,3,120,guess,loss,5,left,13,guess_start,373,space,0,0,417,213502,1682606
45,27,female,Israeli,3,120,guess,loss,5,left,13,guess_choice,614,f,0,0,417,212879,1683229
45,27,female,Israeli,3,120,guess,loss,5,left,13,guess_outcome,0,undefined,0,0,402,211319,1684789
45,27,female,Israeli,3,120,ITC,loss,5,left,13,ITC_start,390,space,0,0,402,210927,1685181
45,27,female,Israeli,3,120,ITC,loss,5,left,13,ITC_choice,922,j,0,0,402,210001,1686107
45,27,female,Israeli,3,120,ITC,loss,5,left,13,ITC_wait,0,undefined,0,0,402,209997,1686111
45,27,female,Israeli,3,120,ITC,loss,5,left,13,ITC_collect,391,k,0,0,402,209604,1686504
45,27,female,Israeli,3,120,ITC,loss,5,left,13,ITC_outcome,0,undefined,0,0,415,208595,1687513
45,27,female,Israeli,3,121,guess,neutral,5,left,2,guess_start,333,space,0,0,415,208260,1687848
45,27,female,Israeli,3,121,guess,neutral,5,left,2,guess_choice,479,j,0,0,415,207771,1688337
45,27,female,Israeli,3,121,guess,neutral,5,left,2,guess_outcome,0,undefined,0,0,415,206207,1689901
45,27,female,Israeli,3,121,ITC,neutral,5,left,2,ITC_start,395,space,0,0,415,205809,1690299
45,27,female,Israeli,3,121,ITC,neutral,5,left,2,ITC_choice,1183,f,0,0,415,204624,1691484
45,27,female,Israeli,3,121,ITC,neutral,5,left,2,ITC_wait,0,undefined,0,0,415,199620,1696488
45,27,female,Israeli,3,121,ITC,neutral,5,left,2,ITC_collect,56,k,0,0,415,199561,1696547
45,27,female,Israeli,3,121,ITC,neutral,5,left,2,ITC_outcome,0,undefined,0,0,435,198553,1697555
45,27,female,Israeli,3,122,guess,win,5,left,7,guess_start,524,space,0,0,435,198026,1698082
45,27,female,Israeli,3,122,guess,win,5,left,7,guess_choice,732,j,0,0,435,197283,1698825
45,27,female,Israeli,3,122,guess,win,5,left,7,guess_outcome,0,undefined,0,0,455,195720,1700388
45,27,female,Israeli,3,122,ITC,win,5,left,7,ITC_start,488,space,0,0,455,195229,1700879
45,27,female,Israeli,3,122,ITC,win,5,left,7,ITC_choice,1448,f,0,0,455,193778,1702330
45,27,female,Israeli,3,122,ITC,win,5,left,7,ITC_wait,0,undefined,0,0,455,188773,1707335
45,27,female,Israeli,3,122,ITC,win,5,left,7,ITC_collect,436,k,0,0,455,188334,1707774
45,27,female,Israeli,3,122,ITC,win,5,left,7,ITC_outcome,0,undefined,0,0,475,187322,1708786
45,27,female,Israeli,3,123,guess,loss,5,left,2,guess_start,470,space,0,0,475,186846,1709262
45,27,female,Israeli,3,123,guess,loss,5,left,2,guess_choice,734,j,0,0,475,186100,1710008
45,27,female,Israeli,3,123,guess,loss,5,left,2,guess_outcome,0,undefined,0,0,460,184535,1711573
45,27,female,Israeli,3,123,ITC,loss,5,left,2,ITC_start,441,space,0,0,460,184090,1712018
45,27,female,Israeli,3,123,ITC,loss,5,left,2,ITC_choice,1027,f,0,0,460,183060,1713048
45,27,female,Israeli,3,123,ITC,loss,5,left,2,ITC_wait,0,undefined,0,0,460,178056,1718052
45,27,female,Israeli,3,123,ITC,loss,5,left,2,ITC_collect,427,k,0,0,460,177626,1718482
45,27,female,Israeli,3,123,ITC,loss,5,left,2,ITC_outcome,0,undefined,0,0,480,176608,1719500
45,27,female,Israeli,3,124,guess,loss,10,right,3,guess_start,276,space,0,0,480,176329,1719779
45,27,female,Israeli,3,124,guess,loss,10,right,3,guess_choice,495,j,0,0,480,175824,1720284
45,27,female,Israeli,3,124,guess,loss,10,right,3,guess_outcome,0,undefined,0,0,465,174268,1721840
45,27,female,Israeli,3,124,ITC,loss,10,right,3,ITC_start,500,space,0,0,465,173766,1722342
45,27,female,Israeli,3,124,ITC,loss,10,right,3,ITC_choice,828,f,0,0,465,172936,1723172
45,27,female,Israeli,3,124,ITC,loss,10,right,3,ITC_wait,0,undefined,0,0,465,172933,1723175
45,27,female,Israeli,3,124,ITC,loss,10,right,3,ITC_collect,320,k,0,0,465,172611,1723497
45,27,female,Israeli,3,124,ITC,loss,10,right,3,ITC_outcome,0,undefined,0,0,468,171607,1724501
45,27,female,Israeli,3,125,guess,neutral,5,right,16,guess_start,304,space,0,0,468,171301,1724807
45,27,female,Israeli,3,125,guess,neutral,5,right,16,guess_choice,569,f,0,0,468,170726,1725382
45,27,female,Israeli,3,125,guess,neutral,5,right,16,guess_outcome,0,undefined,0,0,468,169168,1726940
45,27,female,Israeli,3,125,ITC,neutral,5,right,16,ITC_start,335,space,0,0,468,168831,1727277
45,27,female,Israeli,3,125,ITC,neutral,5,right,16,ITC_choice,1255,f,0,0,468,167575,1728533
45,27,female,Israeli,3,125,ITC,neutral,5,right,16,ITC_wait,0,undefined,0,0,468,167572,1728536
45,27,female,Israeli,3,125,ITC,neutral,5,right,16,ITC_collect,360,k,0,0,468,167211,1728897
45,27,female,Israeli,3,125,ITC,neutral,5,right,16,ITC_outcome,0,undefined,0,0,484,166206,1729902
45,27,female,Israeli,3,126,guess,win,5,right,15,guess_start,411,space,0,0,484,165791,1730317
45,27,female,Israeli,3,126,guess,win,5,right,15,guess_choice,710,f,0,0,484,165075,1731033
45,27,female,Israeli,3,126,guess,win,5,right,15,guess_outcome,0,undefined,0,0,504,163518,1732590
45,27,female,Israeli,3,126,ITC,win,5,right,15,ITC_start,344,space,0,0,504,163173,1732935
45,27,female,Israeli,3,126,ITC,win,5,right,15,ITC_wait,0,undefined,0,0,504,161826,1734282
45,27,female,Israeli,3,126,ITC,win,5,right,15,ITC_choice,1341,f,0,0,504,161829,1734279
45,27,female,Israeli,3,126,ITC,win,5,right,15,ITC_collect,379,k,0,0,504,161445,1734663
45,27,female,Israeli,3,126,ITC,win,5,right,15,ITC_outcome,0,undefined,0,0,519,160440,1735668
45,27,female,Israeli,3,127,guess,win,5,right,11,guess_start,308,space,0,0,519,160129,1735979
45,27,female,Israeli,3,127,guess,win,5,right,11,guess_choice,682,f,0,0,519,159441,1736667
45,27,female,Israeli,3,127,guess,win,5,right,11,guess_outcome,0,undefined,0,0,539,157885,1738223
45,27,female,Israeli,3,127,ITC,win,5,right,11,ITC_start,392,space,0,0,539,157490,1738618
45,27,female,Israeli,3,127,ITC,win,5,right,11,ITC_choice,1149,f,0,0,539,156338,1739770
45,27,female,Israeli,3,127,ITC,win,5,right,11,ITC_wait,0,undefined,0,0,539,156334,1739774
45,27,female,Israeli,3,127,ITC,win,5,right,11,ITC_collect,304,k,0,0,539,156028,1740080
45,27,female,Israeli,3,127,ITC,win,5,right,11,ITC_outcome,0,undefined,0,0,550,155021,1741087
45,27,female,Israeli,3,128,guess,loss,10,left,4,guess_start,363,space,0,0,550,154655,1741453
45,27,female,Israeli,3,128,guess,loss,10,left,4,guess_choice,678,f,0,0,550,153970,1742138
45,27,female,Israeli,3,128,guess,loss,10,left,4,guess_outcome,0,undefined,0,0,535,152411,1743697
45,27,female,Israeli,3,128,ITC,loss,10,left,4,ITC_start,228,space,0,0,535,152181,1743927
45,27,female,Israeli,3,128,ITC,loss,10,left,4,ITC_choice,1084,j,0,0,535,151094,1745014
45,27,female,Israeli,3,128,ITC,loss,10,left,4,ITC_wait,0,undefined,0,0,535,151091,1745017
45,27,female,Israeli,3,128,ITC,loss,10,left,4,ITC_collect,321,k,0,0,535,150768,1745340
45,27,female,Israeli,3,128,ITC,loss,10,left,4,ITC_outcome,0,undefined,0,0,539,149759,1746349
45,27,female,Israeli,3,129,guess,neutral,5,right,4,guess_start,344,space,0,0,539,149411,1746697
45,27,female,Israeli,3,129,guess,neutral,5,right,4,guess_choice,637,j,0,0,539,148765,1747343
45,27,female,Israeli,3,129,guess,neutral,5,right,4,guess_outcome,0,undefined,0,0,539,147203,1748905
45,27,female,Israeli,3,129,ITC,neutral,5,right,4,ITC_start,293,space,0,0,539,146907,1749201
45,27,female,Israeli,3,129,ITC,neutral,5,right,4,ITC_choice,1453,j,0,0,539,145452,1750656
45,27,female,Israeli,3,129,ITC,neutral,5,right,4,ITC_wait,0,undefined,0,0,539,140448,1755660
45,27,female,Israeli,3,129,ITC,neutral,5,right,4,ITC_collect,473,k,0,0,539,139973,1756135
45,27,female,Israeli,3,129,ITC,neutral,5,right,4,ITC_outcome,0,undefined,0,0,559,138967,1757141
45,27,female,Israeli,3,130,guess,neutral,10,right,5,guess_start,307,space,0,0,559,138656,1757452
45,27,female,Israeli,3,130,guess,neutral,10,right,5,guess_choice,543,j,0,0,559,138106,1758002
45,27,female,Israeli,3,130,guess,neutral,10,right,5,guess_outcome,0,undefined,0,0,559,136545,1759563
45,27,female,Israeli,3,130,ITC,neutral,10,right,5,ITC_start,446,space,0,0,559,136097,1760011
45,27,female,Israeli,3,130,ITC,neutral,10,right,5,ITC_choice,918,f,0,0,559,135175,1760933
45,27,female,Israeli,3,130,ITC,neutral,10,right,5,ITC_wait,0,undefined,0,0,559,135171,1760937
45,27,female,Israeli,3,130,ITC,neutral,10,right,5,ITC_collect,257,k,0,0,559,134912,1761196
45,27,female,Israeli,3,130,ITC,neutral,10,right,5,ITC_outcome,0,undefined,0,0,564,133902,1762206
45,27,female,Israeli,3,131,guess,neutral,5,right,6,guess_start,496,space,0,0,564,133403,1762705
45,27,female,Israeli,3,131,guess,neutral,5,right,6,guess_choice,578,f,0,0,564,132815,1763293
45,27,female,Israeli,3,131,guess,neutral,5,right,6,guess_outcome,0,undefined,0,0,564,131254,1764854
45,27,female,Israeli,3,131,ITC,neutral,5,right,6,ITC_start,441,space,0,0,564,130810,1765298
45,27,female,Israeli,3,131,ITC,neutral,5,right,6,ITC_choice,1922,j,0,0,564,128884,1767224
45,27,female,Israeli,3,131,ITC,neutral,5,right,6,ITC_wait,0,undefined,0,0,564,123881,1772227
45,27,female,Israeli,3,131,ITC,neutral,5,right,6,ITC_collect,347,k,0,0,564,123530,1772578
45,27,female,Israeli,3,131,ITC,neutral,5,right,6,ITC_outcome,0,undefined,0,0,584,122518,1773590
45,27,female,Israeli,3,132,guess,loss,5,left,16,guess_start,358,space,0,0,584,122156,1773952
45,27,female,Israeli,3,132,guess,loss,5,left,16,guess_choice,448,j,0,0,584,121697,1774411
45,27,female,Israeli,3,132,guess,loss,5,left,16,guess_outcome,0,undefined,0,0,569,120133,1775975
45,27,female,Israeli,3,132,ITC,loss,5,left,16,ITC_start,933,space,0,0,569,119198,1776910
45,27,female,Israeli,3,132,ITC,loss,5,left,16,ITC_choice,1020,j,0,0,569,118174,1777934
45,27,female,Israeli,3,132,ITC,loss,5,left,16,ITC_wait,0,undefined,0,0,569,118170,1777938
45,27,female,Israeli,3,132,ITC,loss,5,left,16,ITC_collect,250,k,0,0,569,117917,1778191
45,27,female,Israeli,3,132,ITC,loss,5,left,16,ITC_outcome,0,undefined,0,0,585,116904,1779204
45,27,female,Israeli,3,133,guess,loss,5,right,15,guess_start,411,space,0,0,585,116489,1779619
45,27,female,Israeli,3,133,guess,loss,5,right,15,guess_choice,520,f,0,0,585,115958,1780150
45,27,female,Israeli,3,133,guess,loss,5,right,15,guess_outcome,0,undefined,0,0,570,114394,1781714
45,27,female,Israeli,3,133,ITC,loss,5,right,15,ITC_start,634,space,0,0,570,113756,1782352
45,27,female,Israeli,3,133,ITC,loss,5,right,15,ITC_choice,1094,f,0,0,570,112660,1783448
45,27,female,Israeli,3,133,ITC,loss,5,right,15,ITC_wait,0,undefined,0,0,570,112657,1783451
45,27,female,Israeli,3,133,ITC,loss,5,right,15,ITC_collect,277,k,0,0,570,112378,1783730
45,27,female,Israeli,3,133,ITC,loss,5,right,15,ITC_outcome,0,undefined,0,0,585,111369,1784739
45,27,female,Israeli,3,134,guess,loss,10,right,5,guess_start,372,space,0,0,585,110992,1785116
45,27,female,Israeli,3,134,guess,loss,10,right,5,guess_choice,697,f,0,0,585,110282,1785826
45,27,female,Israeli,3,134,guess,loss,10,right,5,guess_outcome,0,undefined,0,0,570,108727,1787381
45,27,female,Israeli,3,134,ITC,loss,10,right,5,ITC_start,440,space,0,0,570,108285,1787823
45,27,female,Israeli,3,134,ITC,loss,10,right,5,ITC_choice,736,f,0,0,570,107547,1788561
45,27,female,Israeli,3,134,ITC,loss,10,right,5,ITC_wait,0,undefined,0,0,570,107543,1788565
45,27,female,Israeli,3,134,ITC,loss,10,right,5,ITC_collect,343,k,0,0,570,107198,1788910
45,27,female,Israeli,3,134,ITC,loss,10,right,5,ITC_outcome,0,undefined,0,0,575,106194,1789914
45,27,female,Israeli,3,135,guess,loss,10,right,8,guess_start,315,space,0,0,575,105876,1790232
45,27,female,Israeli,3,135,guess,loss,10,right,8,guess_choice,385,f,0,0,575,105486,1790622
45,27,female,Israeli,3,135,guess,loss,10,right,8,guess_outcome,0,undefined,0,0,560,103931,1792177
45,27,female,Israeli,3,135,ITC,loss,10,right,8,ITC_start,514,space,0,0,560,103416,1792692
45,27,female,Israeli,3,135,ITC,loss,10,right,8,ITC_choice,793,f,0,0,560,102621,1793487
45,27,female,Israeli,3,135,ITC,loss,10,right,8,ITC_wait,0,undefined,0,0,560,102618,1793490
45,27,female,Israeli,3,135,ITC,loss,10,right,8,ITC_collect,266,k,0,0,560,102351,1793757
45,27,female,Israeli,3,135,ITC,loss,10,right,8,ITC_outcome,0,undefined,0,0,568,101346,1794762
45,27,female,Israeli,3,136,guess,neutral,10,left,6,guess_start,406,space,0,0,568,100936,1795172
45,27,female,Israeli,3,136,guess,neutral,10,left,6,guess_choice,569,f,0,0,568,100360,1795748
45,27,female,Israeli,3,136,guess,neutral,10,left,6,guess_outcome,0,undefined,0,0,568,98801,1797307
45,27,female,Israeli,3,136,ITC,neutral,10,left,6,ITC_start,391,space,0,0,568,98408,1797700
45,27,female,Israeli,3,136,ITC,neutral,10,left,6,ITC_choice,1086,j,0,0,568,97319,1798789
45,27,female,Israeli,3,136,ITC,neutral,10,left,6,ITC_wait,0,undefined,0,0,568,97316,1798792
45,27,female,Israeli,3,136,ITC,neutral,10,left,6,ITC_collect,779,k,0,0,568,96535,1799573
45,27,female,Israeli,3,136,ITC,neutral,10,left,6,ITC_outcome,0,undefined,0,0,574,95529,1800579
45,27,female,Israeli,3,137,guess,win,10,right,4,guess_start,260,space,0,0,574,95265,1800843
45,27,female,Israeli,3,137,guess,win,10,right,4,guess_choice,763,j,0,0,574,94499,1801609
45,27,female,Israeli,3,137,guess,win,10,right,4,guess_outcome,0,undefined,0,0,594,92942,1803166
45,27,female,Israeli,3,137,ITC,win,10,right,4,ITC_start,648,space,0,0,594,92292,1803816
45,27,female,Israeli,3,137,ITC,win,10,right,4,ITC_choice,714,f,0,0,594,91575,1804533
45,27,female,Israeli,3,137,ITC,win,10,right,4,ITC_wait,0,undefined,0,0,594,91571,1804537
45,27,female,Israeli,3,137,ITC,win,10,right,4,ITC_collect,286,k,0,0,594,91283,1804825
45,27,female,Israeli,3,137,ITC,win,10,right,4,ITC_outcome,0,undefined,0,0,598,90277,1805831
45,27,female,Israeli,3,138,guess,loss,5,left,9,guess_start,362,space,0,0,598,89912,1806196
45,27,female,Israeli,3,138,guess,loss,5,left,9,guess_choice,428,f,0,0,598,89475,1806633
45,27,female,Israeli,3,138,guess,loss,5,left,9,guess_outcome,0,undefined,0,0,583,87914,1808194
45,27,female,Israeli,3,138,ITC,loss,5,left,9,ITC_start,387,space,0,0,583,87525,1808583
45,27,female,Israeli,3,138,ITC,loss,5,left,9,ITC_choice,914,j,0,0,583,86608,1809500
45,27,female,Israeli,3,138,ITC,loss,5,left,9,ITC_wait,0,undefined,0,0,583,86605,1809503
45,27,female,Israeli,3,138,ITC,loss,5,left,9,ITC_collect,630,k,0,0,583,85973,1810135
45,27,female,Israeli,3,138,ITC,loss,5,left,9,ITC_outcome,0,undefined,0,0,592,84964,1811144
45,27,female,Israeli,3,139,guess,win,10,left,8,guess_start,263,space,0,0,592,84697,1811411
45,27,female,Israeli,3,139,guess,win,10,left,8,guess_choice,582,f,0,0,592,84107,1812001
45,27,female,Israeli,3,139,guess,win,10,left,8,guess_outcome,0,undefined,0,0,612,82547,1813561
45,27,female,Israeli,3,139,ITC,win,10,left,8,ITC_start,272,space,0,0,612,82272,1813836
45,27,female,Israeli,3,139,ITC,win,10,left,8,ITC_choice,921,j,0,0,612,81349,1814759
45,27,female,Israeli,3,139,ITC,win,10,left,8,ITC_wait,0,undefined,0,0,612,81345,1814763
45,27,female,Israeli,3,139,ITC,win,10,left,8,ITC_collect,673,k,0,0,612,80669,1815439
45,27,female,Israeli,3,139,ITC,win,10,left,8,ITC_outcome,0,undefined,0,0,620,79660,1816448
