subjectID,age,gender,nationality,block_number,trial_number,trial_type,guess_outcome,delay_time,delay_pos,immediate_amount,stage,respRT,respKey,blur_count,focus_count,total_points,remaining_duration,time_elapsed
6,18,female,Belg,1,1,guess,loss,5,left,3,guess_start,3304,space,0,0,0,476694,273135
6,18,female,Belg,1,1,guess,loss,5,left,3,guess_choice,3617,j,0,0,0,473068,276761
6,18,female,Belg,1,1,guess,loss,5,left,3,guess_outcome,0,undefined,0,0,-15,471496,278333
6,18,female,Belg,1,1,ITC,loss,5,left,3,ITC_start,2239,space,0,0,-15,469254,280575
6,18,female,Belg,1,1,ITC,loss,5,left,3,ITC_choice,3613,f,0,0,-15,465638,284191
6,18,female,Belg,1,1,ITC,loss,5,left,3,ITC_wait,0,undefined,0,0,-15,460625,289204
6,18,female,Belg,1,1,ITC,loss,5,left,3,ITC_collect,1505,k,0,0,-15,459117,290712
6,18,female,Belg,1,1,ITC,loss,5,left,3,ITC_outcome,0,undefined,0,0,5,458103,291726
6,18,female,Belg,1,2,guess,win,10,left,7,guess_start,1909,space,0,0,5,456190,293639
6,18,female,Belg,1,2,guess,win,10,left,7,guess_choice,2444,j,0,0,5,453741,296088
6,18,female,Belg,1,2,guess,win,10,left,7,guess_outcome,0,undefined,0,0,25,452170,297659
6,18,female,Belg,1,2,ITC,win,10,left,7,ITC_start,2431,space,0,0,25,449737,300092
6,18,female,Belg,1,2,ITC,win,10,left,7,ITC_choice,2448,f,0,0,25,447287,302542
6,18,female,Belg,1,2,ITC,win,10,left,7,ITC_wait,0,undefined,0,0,25,437284,312545
6,18,female,Belg,1,2,ITC,win,10,left,7,ITC_collect,1057,k,0,0,25,436225,313604
6,18,female,Belg,1,2,ITC,win,10,left,7,ITC_outcome,0,undefined,0,0,45,435213,314616
6,18,female,Belg,1,3,guess,loss,10,left,1,guess_start,1383,space,0,0,45,433827,316002
6,18,female,Belg,1,3,guess,loss,10,left,1,guess_choice,2823,j,0,0,45,430926,318903
6,18,female,Belg,1,3,guess,loss,10,left,1,guess_outcome,0,undefined,0,0,30,429368,320461
6,18,female,Belg,1,3,ITC,loss,10,left,1,ITC_start,2956,space,0,0,30,426409,323420
6,18,female,Belg,1,3,ITC,loss,10,left,1,ITC_choice,2235,f,0,0,30,424171,325658
6,18,female,Belg,1,3,ITC,loss,10,left,1,ITC_wait,0,undefined,0,0,30,414162,335667
6,18,female,Belg,1,3,ITC,loss,10,left,1,ITC_collect,2175,k,0,0,30,411984,337845
6,18,female,Belg,1,3,ITC,loss,10,left,1,ITC_outcome,0,undefined,0,0,50,410971,338858
6,18,female,Belg,1,4,guess,win,5,left,15,guess_start,1321,space,0,0,50,409648,340181
6,18,female,Belg,1,4,guess,win,5,left,15,guess_choice,2596,f,0,0,50,407048,342781
6,18,female,Belg,1,4,guess,win,5,left,15,guess_outcome,0,undefined,0,0,70,405481,344348
6,18,female,Belg,1,4,ITC,win,5,left,15,ITC_start,1423,space,0,0,70,404056,345773
6,18,female,Belg,1,4,ITC,win,5,left,15,ITC_choice,4632,f,0,0,70,399422,350407
6,18,female,Belg,1,4,ITC,win,5,left,15,ITC_wait,0,undefined,0,0,70,394415,355414
6,18,female,Belg,1,4,ITC,win,5,left,15,ITC_collect,6104,k,0,0,70,388308,361521
6,18,female,Belg,1,4,ITC,win,5,left,15,ITC_outcome,0,undefined,0,0,90,387300,362529
6,18,female,Belg,1,5,guess,loss,5,left,14,guess_start,2416,space,0,0,90,384881,364948
6,18,female,Belg,1,5,guess,loss,5,left,14,guess_choice,1561,j,0,0,90,383316,366513
6,18,female,Belg,1,5,guess,loss,5,left,14,guess_outcome,0,undefined,0,0,75,381757,368072
6,18,female,Belg,1,5,ITC,loss,5,left,14,ITC_start,4978,space,0,0,75,376777,373052
6,18,female,Belg,1,5,ITC,loss,5,left,14,ITC_choice,2495,f,0,0,75,374279,375550
6,18,female,Belg,1,5,ITC,loss,5,left,14,ITC_wait,0,undefined,0,0,75,369266,380563
6,18,female,Belg,1,5,ITC,loss,5,left,14,ITC_collect,477,k,0,0,75,368787,381042
6,18,female,Belg,1,5,ITC,loss,5,left,14,ITC_outcome,0,undefined,0,0,95,367780,382049
6,18,female,Belg,1,6,guess,loss,10,right,2,guess_start,1126,space,0,0,95,366652,383177
6,18,female,Belg,1,6,guess,loss,10,right,2,guess_choice,1363,j,0,0,95,365283,384546
6,18,female,Belg,1,6,guess,loss,10,right,2,guess_outcome,0,undefined,0,0,80,363722,386107
6,18,female,Belg,1,6,ITC,loss,10,right,2,ITC_start,1872,space,0,0,80,361848,387981
6,18,female,Belg,1,6,ITC,loss,10,right,2,ITC_choice,1716,j,0,0,80,360130,389699
6,18,female,Belg,1,6,ITC,loss,10,right,2,ITC_wait,0,undefined,0,0,80,350113,399716
6,18,female,Belg,1,6,ITC,loss,10,right,2,ITC_collect,618,k,0,0,80,349493,400336
6,18,female,Belg,1,6,ITC,loss,10,right,2,ITC_outcome,0,undefined,0,0,100,348487,401342
6,18,female,Belg,1,7,guess,loss,5,right,6,guess_start,2548,space,0,0,100,345937,403892
6,18,female,Belg,1,7,guess,loss,5,right,6,guess_choice,1793,f,0,0,100,344136,405693
6,18,female,Belg,1,7,guess,loss,5,right,6,guess_outcome,0,undefined,0,0,85,342573,407256
6,18,female,Belg,1,7,ITC,loss,5,right,6,ITC_start,1382,space,0,0,85,341188,408641
6,18,female,Belg,1,7,ITC,loss,5,right,6,ITC_choice,2696,j,0,0,85,338490,411339
6,18,female,Belg,1,7,ITC,loss,5,right,6,ITC_wait,0,undefined,0,0,85,333474,416355
6,18,female,Belg,1,7,ITC,loss,5,right,6,ITC_collect,2914,k,0,0,85,330559,419270
6,18,female,Belg,1,7,ITC,loss,5,right,6,ITC_outcome,0,undefined,0,0,105,329540,420289
6,18,female,Belg,1,8,guess,win,5,left,11,guess_start,1189,space,0,0,105,328349,421480
6,18,female,Belg,1,8,guess,win,5,left,11,guess_choice,1872,j,0,0,105,326471,423358
6,18,female,Belg,1,8,guess,win,5,left,11,guess_outcome,0,undefined,0,0,125,324906,424923
6,18,female,Belg,1,8,ITC,win,5,left,11,ITC_start,1079,space,0,0,125,323825,426004
6,18,female,Belg,1,8,ITC,win,5,left,11,ITC_choice,2385,f,0,0,125,321437,428392
6,18,female,Belg,1,8,ITC,win,5,left,11,ITC_wait,0,undefined,0,0,125,316421,433408
6,18,female,Belg,1,8,ITC,win,5,left,11,ITC_collect,1950,k,0,0,125,314469,435360
6,18,female,Belg,1,8,ITC,win,5,left,11,ITC_outcome,0,undefined,0,0,145,313455,436374
6,18,female,Belg,1,9,guess,neutral,5,right,13,guess_start,2316,space,0,0,145,311136,438693
6,18,female,Belg,1,9,guess,neutral,5,right,13,guess_choice,1913,j,0,0,145,309218,440611
6,18,female,Belg,1,9,guess,neutral,5,right,13,guess_outcome,0,undefined,0,0,145,307658,442171
6,18,female,Belg,1,9,ITC,neutral,5,right,13,ITC_start,1074,space,0,0,145,306582,443247
6,18,female,Belg,1,9,ITC,neutral,5,right,13,ITC_choice,1531,j,0,0,145,305049,444780
6,18,female,Belg,1,9,ITC,neutral,5,right,13,ITC_wait,0,undefined,0,0,145,300040,449789
6,18,female,Belg,1,9,ITC,neutral,5,right,13,ITC_collect,847,k,0,0,145,299191,450638
6,18,female,Belg,1,9,ITC,neutral,5,right,13,ITC_outcome,0,undefined,0,0,165,298176,451653
6,18,female,Belg,1,10,guess,win,10,left,6,guess_start,719,space,0,0,165,297454,452375
6,18,female,Belg,1,10,guess,win,10,left,6,guess_choice,2983,f,0,0,165,294466,455363
6,18,female,Belg,1,10,guess,win,10,left,6,guess_outcome,0,undefined,0,0,185,292895,456934
6,18,female,Belg,1,10,ITC,win,10,left,6,ITC_start,667,space,0,0,185,292226,457603
6,18,female,Belg,1,10,ITC,win,10,left,6,ITC_choice,2228,f,0,0,185,289916,459913
6,18,female,Belg,1,10,ITC,win,10,left,6,ITC_wait,0,undefined,0,0,185,279898,469931
6,18,female,Belg,1,10,ITC,win,10,left,6,ITC_collect,409,k,0,0,185,279487,470342
6,18,female,Belg,1,10,ITC,win,10,left,6,ITC_outcome,0,undefined,0,0,205,278477,471352
6,18,female,Belg,1,11,guess,neutral,5,right,9,guess_start,1280,space,0,0,205,277194,472635
6,18,female,Belg,1,11,guess,neutral,5,right,9,guess_choice,1132,j,0,0,205,276056,473773
6,18,female,Belg,1,11,guess,neutral,5,right,9,guess_outcome,0,undefined,0,0,205,274494,475335
6,18,female,Belg,1,11,ITC,neutral,5,right,9,ITC_start,1428,space,0,0,205,273064,476765
6,18,female,Belg,1,11,ITC,neutral,5,right,9,ITC_choice,1344,j,0,0,205,271718,478111
6,18,female,Belg,1,11,ITC,neutral,5,right,9,ITC_wait,0,undefined,0,0,205,266712,483117
6,18,female,Belg,1,11,ITC,neutral,5,right,9,ITC_collect,1173,k,0,0,205,265537,484292
6,18,female,Belg,1,11,ITC,neutral,5,right,9,ITC_outcome,0,undefined,0,0,225,264532,485297
6,18,female,Belg,1,12,guess,neutral,10,right,6,guess_start,2065,space,0,0,225,262464,487365
6,18,female,Belg,1,12,guess,neutral,10,right,6,guess_choice,841,j,0,0,225,261619,488210
6,18,female,Belg,1,12,guess,neutral,10,right,6,guess_outcome,0,undefined,0,0,225,260052,489777
6,18,female,Belg,1,12,ITC,neutral,10,right,6,ITC_start,2176,space,0,0,225,257874,491955
6,18,female,Belg,1,12,ITC,neutral,10,right,6,ITC_choice,1442,j,0,0,225,256429,493400
6,18,female,Belg,1,12,ITC,neutral,10,right,6,ITC_wait,0,undefined,0,0,225,246414,503415
6,18,female,Belg,1,12,ITC,neutral,10,right,6,ITC_collect,431,k,0,0,225,245981,503848
6,18,female,Belg,1,12,ITC,neutral,10,right,6,ITC_outcome,0,undefined,0,0,245,244977,504852
6,18,female,Belg,1,13,guess,loss,10,right,6,guess_start,1281,space,0,0,245,243694,506135
6,18,female,Belg,1,13,guess,loss,10,right,6,guess_choice,2232,f,0,0,245,241457,508372
6,18,female,Belg,1,13,guess,loss,10,right,6,guess_outcome,0,undefined,0,0,230,239895,509934
6,18,female,Belg,1,13,ITC,loss,10,right,6,ITC_start,1085,space,0,0,230,238808,511021
6,18,female,Belg,1,13,ITC,loss,10,right,6,ITC_choice,890,j,0,0,230,237916,511913
6,18,female,Belg,1,13,ITC,loss,10,right,6,ITC_wait,0,undefined,0,0,230,227899,521930
6,18,female,Belg,1,13,ITC,loss,10,right,6,ITC_collect,1044,k,0,0,230,226852,522977
6,18,female,Belg,1,13,ITC,loss,10,right,6,ITC_outcome,0,undefined,0,0,250,225830,523999
6,18,female,Belg,1,14,guess,loss,10,right,3,guess_start,295,space,0,0,250,225531,524298
6,18,female,Belg,1,14,guess,loss,10,right,3,guess_choice,2117,j,0,0,250,223409,526420
6,18,female,Belg,1,14,guess,loss,10,right,3,guess_outcome,0,undefined,0,0,235,221841,527988
6,18,female,Belg,1,14,ITC,loss,10,right,3,ITC_start,4196,space,0,0,235,217642,532187
6,18,female,Belg,1,14,ITC,loss,10,right,3,ITC_choice,950,j,0,0,235,216689,533140
6,18,female,Belg,1,14,ITC,loss,10,right,3,ITC_wait,0,undefined,0,0,235,206680,543149
6,18,female,Belg,1,14,ITC,loss,10,right,3,ITC_collect,374,k,0,0,235,206304,543525
6,18,female,Belg,1,14,ITC,loss,10,right,3,ITC_outcome,0,undefined,0,0,255,205290,544539
6,18,female,Belg,1,15,guess,win,10,left,4,guess_start,973,space,0,0,255,204314,545515
6,18,female,Belg,1,15,guess,win,10,left,4,guess_choice,1520,j,0,0,255,202789,547040
6,18,female,Belg,1,15,guess,win,10,left,4,guess_outcome,0,undefined,0,0,275,201228,548601
6,18,female,Belg,1,15,ITC,win,10,left,4,ITC_start,5508,space,0,0,275,195718,554111
6,18,female,Belg,1,15,ITC,win,10,left,4,ITC_choice,2158,f,0,0,275,193557,556272
6,18,female,Belg,1,15,ITC,win,10,left,4,ITC_wait,0,undefined,0,0,275,183553,566276
6,18,female,Belg,1,15,ITC,win,10,left,4,ITC_collect,1732,k,0,0,275,181819,568010
6,18,female,Belg,1,15,ITC,win,10,left,4,ITC_outcome,0,undefined,0,0,295,180814,569015
6,18,female,Belg,1,16,guess,loss,5,left,10,guess_start,507,space,0,0,295,180305,569524
6,18,female,Belg,1,16,guess,loss,5,left,10,guess_choice,2568,f,0,0,295,177731,572098
6,18,female,Belg,1,16,guess,loss,5,left,10,guess_outcome,0,undefined,0,0,280,176168,573661
6,18,female,Belg,1,16,ITC,loss,5,left,10,ITC_start,4990,space,0,0,280,171176,578653
6,18,female,Belg,1,16,ITC,loss,5,left,10,ITC_choice,1191,f,0,0,280,169982,579847
6,18,female,Belg,1,16,ITC,loss,5,left,10,ITC_wait,0,undefined,0,0,280,164974,584855
6,18,female,Belg,1,16,ITC,loss,5,left,10,ITC_collect,1325,k,0,0,280,163646,586183
6,18,female,Belg,1,16,ITC,loss,5,left,10,ITC_outcome,0,undefined,0,0,300,162636,587193
6,18,female,Belg,1,17,guess,loss,5,left,8,guess_start,565,space,0,0,300,162069,587760
6,18,female,Belg,1,17,guess,loss,5,left,8,guess_choice,5626,f,0,0,300,156437,593392
6,18,female,Belg,1,17,guess,loss,5,left,8,guess_outcome,0,undefined,0,0,285,154864,594965
6,18,female,Belg,1,17,ITC,loss,5,left,8,ITC_start,3143,space,0,0,285,151719,598110
6,18,female,Belg,1,17,ITC,loss,5,left,8,ITC_choice,912,f,0,0,285,150804,599025
6,18,female,Belg,1,17,ITC,loss,5,left,8,ITC_wait,0,undefined,0,0,285,145794,604035
6,18,female,Belg,1,17,ITC,loss,5,left,8,ITC_collect,2022,k,0,0,285,143770,606059
6,18,female,Belg,1,17,ITC,loss,5,left,8,ITC_outcome,0,undefined,0,0,305,142762,607067
6,18,female,Belg,1,18,guess,loss,10,right,4,guess_start,981,space,0,0,305,141778,608051
6,18,female,Belg,1,18,guess,loss,10,right,4,guess_choice,5602,j,0,0,305,136170,613659
6,18,female,Belg,1,18,guess,loss,10,right,4,guess_outcome,0,undefined,0,0,290,134606,615223
6,18,female,Belg,1,18,ITC,loss,10,right,4,ITC_start,4637,space,0,0,290,129967,619862
6,18,female,Belg,1,18,ITC,loss,10,right,4,ITC_choice,1019,j,0,0,290,128945,620884
6,18,female,Belg,1,18,ITC,loss,10,right,4,ITC_wait,0,undefined,0,0,290,118935,630894
6,18,female,Belg,1,18,ITC,loss,10,right,4,ITC_collect,759,k,0,0,290,118173,631656
6,18,female,Belg,1,18,ITC,loss,10,right,4,ITC_outcome,0,undefined,0,0,310,117155,632674
6,18,female,Belg,1,19,guess,neutral,5,left,1,guess_start,1097,space,0,0,310,116055,633774
6,18,female,Belg,1,19,guess,neutral,5,left,1,guess_choice,1579,f,0,0,310,114471,635358
6,18,female,Belg,1,19,guess,neutral,5,left,1,guess_outcome,0,undefined,0,0,310,112906,636923
6,18,female,Belg,1,19,ITC,neutral,5,left,1,ITC_start,1081,space,0,0,310,111823,638006
6,18,female,Belg,1,19,ITC,neutral,5,left,1,ITC_choice,1040,f,0,0,310,110781,639048
6,18,female,Belg,1,19,ITC,neutral,5,left,1,ITC_wait,0,undefined,0,0,310,105775,644054
6,18,female,Belg,1,19,ITC,neutral,5,left,1,ITC_collect,1306,k,0,0,310,104466,645363
6,18,female,Belg,1,19,ITC,neutral,5,left,1,ITC_outcome,0,undefined,0,0,330,103458,646371
6,18,female,Belg,1,20,guess,neutral,5,left,14,guess_start,1041,space,0,0,330,102414,647415
6,18,female,Belg,1,20,guess,neutral,5,left,14,guess_choice,537,j,0,0,330,101871,647958
6,18,female,Belg,1,20,guess,neutral,5,left,14,guess_outcome,0,undefined,0,0,330,100314,649515
6,18,female,Belg,1,20,ITC,neutral,5,left,14,ITC_start,1384,space,0,0,330,98928,650901
6,18,female,Belg,1,20,ITC,neutral,5,left,14,ITC_choice,873,f,0,0,330,98050,651779
6,18,female,Belg,1,20,ITC,neutral,5,left,14,ITC_wait,0,undefined,0,0,330,93036,656793
6,18,female,Belg,1,20,ITC,neutral,5,left,14,ITC_collect,818,k,0,0,330,92216,657613
6,18,female,Belg,1,20,ITC,neutral,5,left,14,ITC_outcome,0,undefined,0,0,350,91197,658632
6,18,female,Belg,1,21,guess,loss,5,right,4,guess_start,1056,space,0,0,350,90138,659691
6,18,female,Belg,1,21,guess,loss,5,right,4,guess_choice,2753,j,0,0,350,87381,662448
6,18,female,Belg,1,21,guess,loss,5,right,4,guess_outcome,0,undefined,0,0,335,85817,664012
6,18,female,Belg,1,21,ITC,loss,5,right,4,ITC_start,1784,space,0,0,335,84031,665798
6,18,female,Belg,1,21,ITC,loss,5,right,4,ITC_choice,1056,j,0,0,335,82972,666857
6,18,female,Belg,1,21,ITC,loss,5,right,4,ITC_wait,0,undefined,0,0,335,77954,671875
6,18,female,Belg,1,21,ITC,loss,5,right,4,ITC_collect,2052,k,0,0,335,75899,673930
6,18,female,Belg,1,21,ITC,loss,5,right,4,ITC_outcome,0,undefined,0,0,355,74893,674936
6,18,female,Belg,1,22,guess,neutral,5,right,7,guess_start,1587,space,0,0,355,73304,676525
6,18,female,Belg,1,22,guess,neutral,5,right,7,guess_choice,737,f,0,0,355,72562,677267
6,18,female,Belg,1,22,guess,neutral,5,right,7,guess_outcome,0,undefined,0,0,355,70999,678830
6,18,female,Belg,1,22,ITC,neutral,5,right,7,ITC_start,1058,space,0,0,355,69939,679890
6,18,female,Belg,1,22,ITC,neutral,5,right,7,ITC_choice,730,j,0,0,355,69207,680622
6,18,female,Belg,1,22,ITC,neutral,5,right,7,ITC_wait,0,undefined,0,0,355,64200,685629
6,18,female,Belg,1,22,ITC,neutral,5,right,7,ITC_collect,947,k,0,0,355,63250,686579
6,18,female,Belg,1,22,ITC,neutral,5,right,7,ITC_outcome,0,undefined,0,0,375,62235,687594
6,18,female,Belg,1,23,guess,win,10,left,8,guess_start,2405,space,0,0,375,59828,690001
6,18,female,Belg,1,23,guess,win,10,left,8,guess_choice,7205,f,0,0,375,52618,697211
6,18,female,Belg,1,23,guess,win,10,left,8,guess_outcome,0,undefined,0,0,395,51049,698780
6,18,female,Belg,1,23,ITC,win,10,left,8,ITC_start,5486,space,0,0,395,45561,704268
6,18,female,Belg,1,23,ITC,win,10,left,8,ITC_choice,756,f,0,0,395,44802,705027
6,18,female,Belg,1,23,ITC,win,10,left,8,ITC_wait,0,undefined,0,0,395,34793,715036
6,18,female,Belg,1,23,ITC,win,10,left,8,ITC_collect,441,k,0,0,395,34350,715479
6,18,female,Belg,1,23,ITC,win,10,left,8,ITC_outcome,0,undefined,0,0,415,33343,716486
6,18,female,Belg,1,24,guess,neutral,5,right,11,guess_start,1268,space,0,0,415,32073,717756
6,18,female,Belg,1,24,guess,neutral,5,right,11,guess_choice,882,j,0,0,415,31186,718643
6,18,female,Belg,1,24,guess,neutral,5,right,11,guess_outcome,0,undefined,0,0,415,29625,720204
6,18,female,Belg,1,24,ITC,neutral,5,right,11,ITC_start,2263,space,0,0,415,27360,722469
6,18,female,Belg,1,24,ITC,neutral,5,right,11,ITC_choice,1335,j,0,0,415,26023,723806
6,18,female,Belg,1,24,ITC,neutral,5,right,11,ITC_wait,0,undefined,0,0,415,21018,728811
6,18,female,Belg,1,24,ITC,neutral,5,right,11,ITC_collect,1895,k,0,0,415,19120,730709
6,18,female,Belg,1,24,ITC,neutral,5,right,11,ITC_outcome,0,undefined,0,0,435,18111,731718
6,18,female,Belg,1,25,guess,neutral,5,left,12,guess_start,678,space,0,0,435,17431,732398
6,18,female,Belg,1,25,guess,neutral,5,left,12,guess_choice,1001,f,0,0,435,16425,733404
6,18,female,Belg,1,25,guess,neutral,5,left,12,guess_outcome,0,undefined,0,0,435,14869,734960
6,18,female,Belg,1,25,ITC,neutral,5,left,12,ITC_start,810,space,0,0,435,14056,735773
6,18,female,Belg,1,25,ITC,neutral,5,left,12,ITC_choice,794,f,0,0,435,13260,736569
6,18,female,Belg,1,25,ITC,neutral,5,left,12,ITC_wait,0,undefined,0,0,435,8248,741581
6,18,female,Belg,1,25,ITC,neutral,5,left,12,ITC_collect,739,k,0,0,435,7506,742323
6,18,female,Belg,1,25,ITC,neutral,5,left,12,ITC_outcome,0,undefined,0,0,455,6500,743329
6,18,female,Belg,1,26,guess,win,5,left,14,guess_start,1311,space,0,0,455,5186,744643
6,18,female,Belg,1,26,guess,win,5,left,14,guess_choice,3327,j,0,0,455,1855,747974
6,18,female,Belg,1,26,guess,win,5,left,14,guess_outcome,0,undefined,0,0,475,287,749542
6,18,female,Belg,1,26,ITC,win,5,left,14,ITC_start,0,undefined,0,0,475,-6,749835
6,18,female,Belg,2,27,guess,loss,5,right,7,guess_start,1587,space,0,0,0,478411,863448
6,18,female,Belg,2,27,guess,loss,5,right,7,guess_choice,926,f,0,0,0,477481,864378
6,18,female,Belg,2,27,guess,loss,5,right,7,guess_outcome,0,undefined,0,0,-15,475916,865943
6,18,female,Belg,2,27,ITC,loss,5,right,7,ITC_start,639,space,0,0,-15,475276,866583
6,18,female,Belg,2,27,ITC,loss,5,right,7,ITC_choice,920,j,0,0,-15,474353,867506
6,18,female,Belg,2,27,ITC,loss,5,right,7,ITC_wait,0,undefined,0,0,-15,469337,872522
6,18,female,Belg,2,27,ITC,loss,5,right,7,ITC_collect,931,k,0,0,-15,468404,873455
6,18,female,Belg,2,27,ITC,loss,5,right,7,ITC_outcome,0,undefined,0,0,5,467392,874467
6,18,female,Belg,2,28,guess,neutral,5,right,4,guess_start,383,space,0,0,5,467006,874853
6,18,female,Belg,2,28,guess,neutral,5,right,4,guess_choice,935,j,0,0,5,466066,875793
6,18,female,Belg,2,28,guess,neutral,5,right,4,guess_outcome,0,undefined,0,0,5,464505,877354
6,18,female,Belg,2,28,ITC,neutral,5,right,4,ITC_start,1236,space,0,0,5,463267,878592
6,18,female,Belg,2,28,ITC,neutral,5,right,4,ITC_choice,824,j,0,0,5,462441,879418
6,18,female,Belg,2,28,ITC,neutral,5,right,4,ITC_wait,0,undefined,0,0,5,457434,884425
6,18,female,Belg,2,28,ITC,neutral,5,right,4,ITC_collect,735,k,0,0,5,456697,885162
6,18,female,Belg,2,28,ITC,neutral,5,right,4,ITC_outcome,0,undefined,0,0,25,455684,886175
6,18,female,Belg,2,29,guess,win,10,right,5,guess_start,340,space,0,0,25,455342,886517
6,18,female,Belg,2,29,guess,win,10,right,5,guess_choice,2107,f,0,0,25,453230,888629
6,18,female,Belg,2,29,guess,win,10,right,5,guess_outcome,0,undefined,0,0,45,451663,890196
6,18,female,Belg,2,29,ITC,win,10,right,5,ITC_start,568,space,0,0,45,451092,890767
6,18,female,Belg,2,29,ITC,win,10,right,5,ITC_choice,712,j,0,0,45,450378,891481
6,18,female,Belg,2,29,ITC,win,10,right,5,ITC_wait,0,undefined,0,0,45,440372,901487
6,18,female,Belg,2,29,ITC,win,10,right,5,ITC_collect,472,k,0,0,45,439898,901961
6,18,female,Belg,2,29,ITC,win,10,right,5,ITC_outcome,0,undefined,0,0,65,438889,902970
6,18,female,Belg,2,30,guess,neutral,10,right,1,guess_start,853,space,0,0,65,438033,903826
6,18,female,Belg,2,30,guess,neutral,10,right,1,guess_choice,709,j,0,0,65,437319,904540
6,18,female,Belg,2,30,guess,neutral,10,right,1,guess_outcome,0,undefined,0,0,65,435757,906102
6,18,female,Belg,2,30,ITC,neutral,10,right,1,ITC_start,403,space,0,0,65,435350,906509
6,18,female,Belg,2,30,ITC,neutral,10,right,1,ITC_choice,1098,j,0,0,65,434250,907609
6,18,female,Belg,2,30,ITC,neutral,10,right,1,ITC_wait,0,undefined,0,0,65,424245,917614
6,18,female,Belg,2,30,ITC,neutral,10,right,1,ITC_collect,1284,k,0,0,65,422960,918899
6,18,female,Belg,2,30,ITC,neutral,10,right,1,ITC_outcome,0,undefined,0,0,85,421943,919916
6,18,female,Belg,2,31,guess,neutral,5,right,5,guess_start,521,space,0,0,85,421418,920441
6,18,female,Belg,2,31,guess,neutral,5,right,5,guess_choice,762,j,0,0,85,420652,921207
6,18,female,Belg,2,31,guess,neutral,5,right,5,guess_outcome,0,undefined,0,0,85,419087,922772
6,18,female,Belg,2,31,ITC,neutral,5,right,5,ITC_start,796,space,0,0,85,418289,923570
6,18,female,Belg,2,31,ITC,neutral,5,right,5,ITC_choice,1260,j,0,0,85,417026,924833
6,18,female,Belg,2,31,ITC,neutral,5,right,5,ITC_wait,0,undefined,0,0,85,412017,929842
6,18,female,Belg,2,31,ITC,neutral,5,right,5,ITC_collect,1178,k,0,0,85,410836,931023
6,18,female,Belg,2,31,ITC,neutral,5,right,5,ITC_outcome,0,undefined,0,0,105,409826,932033
6,18,female,Belg,2,32,guess,win,5,right,10,guess_start,324,space,0,0,105,409500,932359
6,18,female,Belg,2,32,guess,win,5,right,10,guess_choice,1654,j,0,0,105,407841,934018
6,18,female,Belg,2,32,guess,win,5,right,10,guess_outcome,0,undefined,0,0,125,406272,935587
6,18,female,Belg,2,32,ITC,win,5,right,10,ITC_start,4015,space,0,0,125,402254,939605
6,18,female,Belg,2,32,ITC,win,5,right,10,ITC_choice,1220,j,0,0,125,401032,940827
6,18,female,Belg,2,32,ITC,win,5,right,10,ITC_wait,0,undefined,0,0,125,396023,945836
6,18,female,Belg,2,32,ITC,win,5,right,10,ITC_collect,2799,k,0,0,125,393222,948637
6,18,female,Belg,2,32,ITC,win,5,right,10,ITC_outcome,0,undefined,0,0,145,392214,949645
6,18,female,Belg,2,33,guess,loss,5,left,11,guess_start,2233,space,0,0,145,389978,951881
6,18,female,Belg,2,33,guess,loss,5,left,11,guess_choice,1133,f,0,0,145,388839,953020
6,18,female,Belg,2,33,guess,loss,5,left,11,guess_outcome,0,undefined,0,0,130,387268,954591
6,18,female,Belg,2,33,ITC,loss,5,left,11,ITC_start,1391,space,0,0,130,385873,955986
6,18,female,Belg,2,33,ITC,loss,5,left,11,ITC_choice,787,f,0,0,130,385084,956775
6,18,female,Belg,2,33,ITC,loss,5,left,11,ITC_wait,0,undefined,0,0,130,380074,961785
6,18,female,Belg,2,33,ITC,loss,5,left,11,ITC_collect,844,k,0,0,130,379227,962632
6,18,female,Belg,2,33,ITC,loss,5,left,11,ITC_outcome,0,undefined,0,0,150,378219,963640
6,18,female,Belg,2,34,guess,neutral,5,right,8,guess_start,1110,space,0,0,150,377106,964753
6,18,female,Belg,2,34,guess,neutral,5,right,8,guess_choice,1182,f,0,0,150,375919,965940
6,18,female,Belg,2,34,guess,neutral,5,right,8,guess_outcome,0,undefined,0,0,150,374350,967509
6,18,female,Belg,2,34,ITC,neutral,5,right,8,ITC_start,644,space,0,0,150,373704,968155
6,18,female,Belg,2,34,ITC,neutral,5,right,8,ITC_choice,1025,j,0,0,150,372677,969182
6,18,female,Belg,2,34,ITC,neutral,5,right,8,ITC_wait,0,undefined,0,0,150,367662,974197
6,18,female,Belg,2,34,ITC,neutral,5,right,8,ITC_collect,875,k,0,0,150,366785,975074
6,18,female,Belg,2,34,ITC,neutral,5,right,8,ITC_outcome,0,undefined,0,0,170,365766,976093
6,18,female,Belg,2,35,guess,neutral,5,left,15,guess_start,539,space,0,0,170,365224,976635
6,18,female,Belg,2,35,guess,neutral,5,left,15,guess_choice,716,j,0,0,170,364503,977356
6,18,female,Belg,2,35,guess,neutral,5,left,15,guess_outcome,0,undefined,0,0,170,362936,978923
6,18,female,Belg,2,35,ITC,neutral,5,left,15,ITC_start,971,space,0,0,170,361963,979896
6,18,female,Belg,2,35,ITC,neutral,5,left,15,ITC_choice,787,f,0,0,170,361174,980685
6,18,female,Belg,2,35,ITC,neutral,5,left,15,ITC_wait,0,undefined,0,0,170,356160,985699
6,18,female,Belg,2,35,ITC,neutral,5,left,15,ITC_collect,1598,k,0,0,170,354559,987300
6,18,female,Belg,2,35,ITC,neutral,5,left,15,ITC_outcome,0,undefined,0,0,190,353548,988311
6,18,female,Belg,2,36,guess,neutral,5,left,3,guess_start,904,space,0,0,190,352641,989218
6,18,female,Belg,2,36,guess,neutral,5,left,3,guess_choice,753,j,0,0,190,351883,989976
6,18,female,Belg,2,36,guess,neutral,5,left,3,guess_outcome,0,undefined,0,0,190,350320,991539
6,18,female,Belg,2,36,ITC,neutral,5,left,3,ITC_start,1457,space,0,0,190,348861,992998
6,18,female,Belg,2,36,ITC,neutral,5,left,3,ITC_choice,901,f,0,0,190,347958,993901
6,18,female,Belg,2,36,ITC,neutral,5,left,3,ITC_wait,0,undefined,0,0,190,342954,998905
6,18,female,Belg,2,36,ITC,neutral,5,left,3,ITC_collect,787,k,0,0,190,342164,999695
6,18,female,Belg,2,36,ITC,neutral,5,left,3,ITC_outcome,0,undefined,0,0,210,341149,1000710
6,18,female,Belg,2,37,guess,neutral,10,right,8,guess_start,845,space,0,0,210,340302,1001557
6,18,female,Belg,2,37,guess,neutral,10,right,8,guess_choice,579,j,0,0,210,339719,1002140
6,18,female,Belg,2,37,guess,neutral,10,right,8,guess_outcome,0,undefined,0,0,210,338149,1003710
6,18,female,Belg,2,37,ITC,neutral,10,right,8,ITC_start,1670,space,0,0,210,336477,1005382
6,18,female,Belg,2,37,ITC,neutral,10,right,8,ITC_choice,710,j,0,0,210,335764,1006095
6,18,female,Belg,2,37,ITC,neutral,10,right,8,ITC_wait,0,undefined,0,0,210,325748,1016111
6,18,female,Belg,2,37,ITC,neutral,10,right,8,ITC_collect,452,k,0,0,210,325293,1016566
6,18,female,Belg,2,37,ITC,neutral,10,right,8,ITC_outcome,0,undefined,0,0,230,324281,1017578
6,18,female,Belg,2,38,guess,neutral,5,left,10,guess_start,877,space,0,0,230,323402,1018457
6,18,female,Belg,2,38,guess,neutral,5,left,10,guess_choice,951,f,0,0,230,322445,1019414
6,18,female,Belg,2,38,guess,neutral,5,left,10,guess_outcome,0,undefined,0,0,230,320881,1020978
6,18,female,Belg,2,38,ITC,neutral,5,left,10,ITC_start,3894,space,0,0,230,316985,1024874
6,18,female,Belg,2,38,ITC,neutral,5,left,10,ITC_choice,694,f,0,0,230,316288,1025571
6,18,female,Belg,2,38,ITC,neutral,5,left,10,ITC_wait,0,undefined,0,0,230,311270,1030589
6,18,female,Belg,2,38,ITC,neutral,5,left,10,ITC_collect,794,k,0,0,230,310474,1031385
6,18,female,Belg,2,38,ITC,neutral,5,left,10,ITC_outcome,0,undefined,0,0,250,309458,1032401
6,18,female,Belg,2,39,guess,win,10,left,2,guess_start,322,space,0,0,250,309133,1032726
6,18,female,Belg,2,39,guess,win,10,left,2,guess_choice,1063,f,0,0,250,308066,1033793
6,18,female,Belg,2,39,guess,win,10,left,2,guess_outcome,0,undefined,0,0,270,306508,1035351
6,18,female,Belg,2,39,ITC,win,10,left,2,ITC_start,751,space,0,0,270,305756,1036103
6,18,female,Belg,2,39,ITC,win,10,left,2,ITC_choice,717,f,0,0,270,305037,1036822
6,18,female,Belg,2,39,ITC,win,10,left,2,ITC_wait,0,undefined,0,0,270,295025,1046834
6,18,female,Belg,2,39,ITC,win,10,left,2,ITC_collect,669,k,0,0,270,294354,1047505
6,18,female,Belg,2,39,ITC,win,10,left,2,ITC_outcome,0,undefined,0,0,290,293339,1048520
6,18,female,Belg,2,40,guess,loss,5,left,9,guess_start,1050,space,0,0,290,292286,1049573
6,18,female,Belg,2,40,guess,loss,5,left,9,guess_choice,1079,j,0,0,290,291202,1050657
6,18,female,Belg,2,40,guess,loss,5,left,9,guess_outcome,0,undefined,0,0,275,289647,1052212
6,18,female,Belg,2,40,ITC,loss,5,left,9,ITC_start,3295,space,0,0,275,286350,1055509
6,18,female,Belg,2,40,ITC,loss,5,left,9,ITC_choice,801,f,0,0,275,285545,1056314
6,18,female,Belg,2,40,ITC,loss,5,left,9,ITC_wait,0,undefined,0,0,275,280532,1061327
6,18,female,Belg,2,40,ITC,loss,5,left,9,ITC_collect,745,k,0,0,275,279784,1062075
6,18,female,Belg,2,40,ITC,loss,5,left,9,ITC_outcome,0,undefined,0,0,295,278775,1063084
6,18,female,Belg,2,41,guess,neutral,5,left,16,guess_start,1045,space,0,0,295,277727,1064132
6,18,female,Belg,2,41,guess,neutral,5,left,16,guess_choice,796,f,0,0,295,276927,1064932
6,18,female,Belg,2,41,guess,neutral,5,left,16,guess_outcome,0,undefined,0,0,295,275359,1066500
6,18,female,Belg,2,41,ITC,neutral,5,left,16,ITC_start,4127,space,0,0,295,271230,1070629
6,18,female,Belg,2,41,ITC,neutral,5,left,16,ITC_choice,817,f,0,0,295,270408,1071451
6,18,female,Belg,2,41,ITC,neutral,5,left,16,ITC_wait,0,undefined,0,0,295,265399,1076460
6,18,female,Belg,2,41,ITC,neutral,5,left,16,ITC_collect,1042,k,0,0,295,264355,1077504
6,18,female,Belg,2,41,ITC,neutral,5,left,16,ITC_outcome,0,undefined,0,0,315,263341,1078518
6,18,female,Belg,2,42,guess,loss,5,right,5,guess_start,722,space,0,0,315,262616,1079243
6,18,female,Belg,2,42,guess,loss,5,right,5,guess_choice,2051,j,0,0,315,260561,1081298
6,18,female,Belg,2,42,guess,loss,5,right,5,guess_outcome,0,undefined,0,0,300,259000,1082859
6,18,female,Belg,2,42,ITC,loss,5,right,5,ITC_start,1589,space,0,0,300,257409,1084450
6,18,female,Belg,2,42,ITC,loss,5,right,5,ITC_choice,1398,j,0,0,300,256009,1085850
6,18,female,Belg,2,42,ITC,loss,5,right,5,ITC_wait,0,undefined,0,0,300,250994,1090865
6,18,female,Belg,2,42,ITC,loss,5,right,5,ITC_collect,1220,k,0,0,300,249772,1092087
6,18,female,Belg,2,42,ITC,loss,5,right,5,ITC_outcome,0,undefined,0,0,320,248755,1093104
6,18,female,Belg,2,43,guess,win,5,left,13,guess_start,481,space,0,0,320,248271,1093588
6,18,female,Belg,2,43,guess,win,5,left,13,guess_choice,1080,f,0,0,320,247187,1094672
6,18,female,Belg,2,43,guess,win,5,left,13,guess_outcome,0,undefined,0,0,340,245621,1096238
6,18,female,Belg,2,43,ITC,win,5,left,13,ITC_start,802,space,0,0,340,244817,1097042
6,18,female,Belg,2,43,ITC,win,5,left,13,ITC_choice,767,f,0,0,340,244047,1097812
6,18,female,Belg,2,43,ITC,win,5,left,13,ITC_wait,0,undefined,0,0,340,239038,1102821
6,18,female,Belg,2,43,ITC,win,5,left,13,ITC_collect,793,k,0,0,340,238242,1103617
6,18,female,Belg,2,43,ITC,win,5,left,13,ITC_outcome,0,undefined,0,0,360,237232,1104627
6,18,female,Belg,2,44,guess,neutral,10,right,7,guess_start,375,space,0,0,360,236854,1105005
6,18,female,Belg,2,44,guess,neutral,10,right,7,guess_choice,870,f,0,0,360,235980,1105879
6,18,female,Belg,2,44,guess,neutral,10,right,7,guess_outcome,0,undefined,0,0,360,234409,1107450
6,18,female,Belg,2,44,ITC,neutral,10,right,7,ITC_start,866,space,0,0,360,233540,1108319
6,18,female,Belg,2,44,ITC,neutral,10,right,7,ITC_choice,895,j,0,0,360,232643,1109216
6,18,female,Belg,2,44,ITC,neutral,10,right,7,ITC_wait,0,undefined,0,0,360,222638,1119221
6,18,female,Belg,2,44,ITC,neutral,10,right,7,ITC_collect,595,k,0,0,360,222041,1119818
6,18,female,Belg,2,44,ITC,neutral,10,right,7,ITC_outcome,0,undefined,0,0,380,221028,1120831
6,18,female,Belg,2,45,guess,win,5,right,16,guess_start,328,space,0,0,380,220697,1121162
6,18,female,Belg,2,45,guess,win,5,right,16,guess_choice,1265,j,0,0,380,219427,1122432
6,18,female,Belg,2,45,guess,win,5,right,16,guess_outcome,0,undefined,0,0,400,217860,1123999
6,18,female,Belg,2,45,ITC,win,5,right,16,ITC_start,1687,space,0,0,400,216171,1125688
6,18,female,Belg,2,45,ITC,win,5,right,16,ITC_choice,666,j,0,0,400,215503,1126356
6,18,female,Belg,2,45,ITC,win,5,right,16,ITC_wait,0,undefined,0,0,400,210497,1131362
6,18,female,Belg,2,45,ITC,win,5,right,16,ITC_collect,671,k,0,0,400,209824,1132035
6,18,female,Belg,2,45,ITC,win,5,right,16,ITC_outcome,0,undefined,0,0,420,208808,1133051
6,18,female,Belg,2,46,guess,loss,10,left,8,guess_start,1663,space,0,0,420,207143,1134716
6,18,female,Belg,2,46,guess,loss,10,left,8,guess_choice,1665,f,0,0,420,205473,1136386
6,18,female,Belg,2,46,guess,loss,10,left,8,guess_outcome,0,undefined,0,0,405,203910,1137949
6,18,female,Belg,2,46,ITC,loss,10,left,8,ITC_start,971,space,0,0,405,202937,1138922
6,18,female,Belg,2,46,ITC,loss,10,left,8,ITC_choice,1611,f,0,0,405,201323,1140536
6,18,female,Belg,2,46,ITC,loss,10,left,8,ITC_wait,0,undefined,0,0,405,191311,1150548
6,18,female,Belg,2,46,ITC,loss,10,left,8,ITC_collect,682,k,0,0,405,190627,1151232
6,18,female,Belg,2,46,ITC,loss,10,left,8,ITC_outcome,0,undefined,0,0,425,189609,1152250
6,18,female,Belg,2,47,guess,win,5,left,2,guess_start,850,space,0,0,425,188756,1153103
6,18,female,Belg,2,47,guess,win,5,left,2,guess_choice,2384,j,0,0,425,186368,1155491
6,18,female,Belg,2,47,guess,win,5,left,2,guess_outcome,0,undefined,0,0,445,184802,1157057
6,18,female,Belg,2,47,ITC,win,5,left,2,ITC_start,1825,space,0,0,445,182975,1158884
6,18,female,Belg,2,47,ITC,win,5,left,2,ITC_choice,706,f,0,0,445,182266,1159593
6,18,female,Belg,2,47,ITC,win,5,left,2,ITC_wait,0,undefined,0,0,445,177253,1164606
6,18,female,Belg,2,47,ITC,win,5,left,2,ITC_collect,718,k,0,0,445,176533,1165326
6,18,female,Belg,2,47,ITC,win,5,left,2,ITC_outcome,0,undefined,0,0,465,175524,1166335
6,18,female,Belg,2,48,guess,win,5,left,6,guess_start,1174,space,0,0,465,174348,1167511
6,18,female,Belg,2,48,guess,win,5,left,6,guess_choice,834,f,0,0,465,173508,1168351
6,18,female,Belg,2,48,guess,win,5,left,6,guess_outcome,0,undefined,0,0,485,171942,1169917
6,18,female,Belg,2,48,ITC,win,5,left,6,ITC_start,1095,space,0,0,485,170845,1171014
6,18,female,Belg,2,48,ITC,win,5,left,6,ITC_choice,715,f,0,0,485,170127,1171732
6,18,female,Belg,2,48,ITC,win,5,left,6,ITC_wait,0,undefined,0,0,485,165110,1176749
6,18,female,Belg,2,48,ITC,win,5,left,6,ITC_collect,1091,k,0,0,485,164016,1177843
6,18,female,Belg,2,48,ITC,win,5,left,6,ITC_outcome,0,undefined,0,0,505,163012,1178847
6,18,female,Belg,2,49,guess,win,5,left,12,guess_start,930,space,0,0,505,162080,1179779
6,18,female,Belg,2,49,guess,win,5,left,12,guess_choice,3823,f,0,0,505,158252,1183607
6,18,female,Belg,2,49,guess,win,5,left,12,guess_outcome,0,undefined,0,0,525,156682,1185177
6,18,female,Belg,2,49,ITC,win,5,left,12,ITC_start,782,space,0,0,525,155897,1185962
6,18,female,Belg,2,49,ITC,win,5,left,12,ITC_choice,636,f,0,0,525,155259,1186600
6,18,female,Belg,2,49,ITC,win,5,left,12,ITC_wait,0,undefined,0,0,525,150245,1191614
6,18,female,Belg,2,49,ITC,win,5,left,12,ITC_collect,354,k,0,0,525,149889,1191970
6,18,female,Belg,2,49,ITC,win,5,left,12,ITC_outcome,0,undefined,0,0,545,148871,1192988
6,18,female,Belg,2,50,guess,win,5,left,8,guess_start,632,space,0,0,545,148236,1193623
6,18,female,Belg,2,50,guess,win,5,left,8,guess_choice,1140,f,0,0,545,147092,1194767
6,18,female,Belg,2,50,guess,win,5,left,8,guess_outcome,0,undefined,0,0,565,145533,1196326
6,18,female,Belg,2,50,ITC,win,5,left,8,ITC_start,1571,space,0,0,565,143960,1197899
6,18,female,Belg,2,50,ITC,win,5,left,8,ITC_choice,603,f,0,0,565,143355,1198504
6,18,female,Belg,2,50,ITC,win,5,left,8,ITC_wait,0,undefined,0,0,565,138348,1203511
6,18,female,Belg,2,50,ITC,win,5,left,8,ITC_collect,263,k,0,0,565,138083,1203776
6,18,female,Belg,2,50,ITC,win,5,left,8,ITC_outcome,0,undefined,0,0,585,137065,1204794
6,18,female,Belg,2,51,guess,loss,5,right,15,guess_start,953,space,0,0,585,136108,1205751
6,18,female,Belg,2,51,guess,loss,5,right,15,guess_choice,857,j,0,0,585,135246,1206613
6,18,female,Belg,2,51,guess,loss,5,right,15,guess_outcome,0,undefined,0,0,570,133683,1208176
6,18,female,Belg,2,51,ITC,loss,5,right,15,ITC_start,1477,space,0,0,570,132204,1209655
6,18,female,Belg,2,51,ITC,loss,5,right,15,ITC_choice,1015,j,0,0,570,131187,1210672
6,18,female,Belg,2,51,ITC,loss,5,right,15,ITC_wait,0,undefined,0,0,570,126177,1215682
6,18,female,Belg,2,51,ITC,loss,5,right,15,ITC_collect,623,k,0,0,570,125551,1216308
6,18,female,Belg,2,51,ITC,loss,5,right,15,ITC_outcome,0,undefined,0,0,590,124535,1217324
6,18,female,Belg,2,52,guess,win,5,right,3,guess_start,643,space,0,0,590,123890,1217969
6,18,female,Belg,2,52,guess,win,5,right,3,guess_choice,1472,j,0,0,590,122413,1219446
6,18,female,Belg,2,52,guess,win,5,right,3,guess_outcome,0,undefined,0,0,610,120845,1221014
6,18,female,Belg,2,52,ITC,win,5,right,3,ITC_start,885,space,0,0,610,119957,1221902
6,18,female,Belg,2,52,ITC,win,5,right,3,ITC_choice,683,j,0,0,610,119272,1222587
6,18,female,Belg,2,52,ITC,win,5,right,3,ITC_wait,0,undefined,0,0,610,114260,1227599
6,18,female,Belg,2,52,ITC,win,5,right,3,ITC_collect,650,k,0,0,610,113607,1228252
6,18,female,Belg,2,52,ITC,win,5,right,3,ITC_outcome,0,undefined,0,0,630,112593,1229266
6,18,female,Belg,2,53,guess,loss,5,left,2,guess_start,670,space,0,0,630,111919,1229940
6,18,female,Belg,2,53,guess,loss,5,left,2,guess_choice,1353,j,0,0,630,110561,1231298
6,18,female,Belg,2,53,guess,loss,5,left,2,guess_outcome,0,undefined,0,0,615,108994,1232865
6,18,female,Belg,2,53,ITC,loss,5,left,2,ITC_start,744,space,0,0,615,108247,1233612
6,18,female,Belg,2,53,ITC,loss,5,left,2,ITC_choice,634,f,0,0,615,107611,1234248
6,18,female,Belg,2,53,ITC,loss,5,left,2,ITC_wait,0,undefined,0,0,615,102598,1239261
6,18,female,Belg,2,53,ITC,loss,5,left,2,ITC_collect,610,k,0,0,615,101986,1239873
6,18,female,Belg,2,53,ITC,loss,5,left,2,ITC_outcome,0,undefined,0,0,635,100980,1240879
6,18,female,Belg,2,54,guess,loss,10,left,7,guess_start,1163,space,0,0,635,99814,1242045
6,18,female,Belg,2,54,guess,loss,10,left,7,guess_choice,1163,f,0,0,635,98645,1243214
6,18,female,Belg,2,54,guess,loss,10,left,7,guess_outcome,0,undefined,0,0,620,97083,1244776
6,18,female,Belg,2,54,ITC,loss,10,left,7,ITC_start,3446,space,0,0,620,93635,1248224
6,18,female,Belg,2,54,ITC,loss,10,left,7,ITC_choice,708,f,0,0,620,92925,1248934
6,18,female,Belg,2,54,ITC,loss,10,left,7,ITC_wait,0,undefined,0,0,620,82921,1258938
6,18,female,Belg,2,54,ITC,loss,10,left,7,ITC_collect,954,k,0,0,620,81965,1259894
6,18,female,Belg,2,54,ITC,loss,10,left,7,ITC_outcome,0,undefined,0,0,640,80957,1260902
6,18,female,Belg,2,55,guess,neutral,10,right,3,guess_start,1034,space,0,0,640,79921,1261938
6,18,female,Belg,2,55,guess,neutral,10,right,3,guess_choice,1071,f,0,0,640,78844,1263015
6,18,female,Belg,2,55,guess,neutral,10,right,3,guess_outcome,0,undefined,0,0,640,77281,1264578
6,18,female,Belg,2,55,ITC,neutral,10,right,3,ITC_start,680,space,0,0,640,76599,1265260
6,18,female,Belg,2,55,ITC,neutral,10,right,3,ITC_choice,1023,j,0,0,640,75574,1266285
6,18,female,Belg,2,55,ITC,neutral,10,right,3,ITC_wait,0,undefined,0,0,640,65562,1276297
6,18,female,Belg,2,55,ITC,neutral,10,right,3,ITC_collect,881,k,0,0,640,64679,1277180
6,18,female,Belg,2,55,ITC,neutral,10,right,3,ITC_outcome,0,undefined,0,0,660,63671,1278188
6,18,female,Belg,2,56,guess,win,5,right,4,guess_start,2009,space,0,0,660,61659,1280200
6,18,female,Belg,2,56,guess,win,5,right,4,guess_choice,1182,j,0,0,660,60473,1281386
6,18,female,Belg,2,56,guess,win,5,right,4,guess_outcome,0,undefined,0,0,680,58911,1282948
6,18,female,Belg,2,56,ITC,win,5,right,4,ITC_start,929,space,0,0,680,57979,1283880
6,18,female,Belg,2,56,ITC,win,5,right,4,ITC_choice,879,j,0,0,680,57098,1284761
6,18,female,Belg,2,56,ITC,win,5,right,4,ITC_wait,0,undefined,0,0,680,52088,1289771
6,18,female,Belg,2,56,ITC,win,5,right,4,ITC_collect,899,k,0,0,680,51187,1290672
6,18,female,Belg,2,56,ITC,win,5,right,4,ITC_outcome,0,undefined,0,0,700,50174,1291685
6,18,female,Belg,2,57,guess,neutral,10,left,2,guess_start,882,space,0,0,700,49289,1292570
6,18,female,Belg,2,57,guess,neutral,10,left,2,guess_choice,644,j,0,0,700,48640,1293219
6,18,female,Belg,2,57,guess,neutral,10,left,2,guess_outcome,0,undefined,0,0,700,47073,1294786
6,18,female,Belg,2,57,ITC,neutral,10,left,2,ITC_start,10067,space,0,0,700,37004,1304855
6,18,female,Belg,2,57,ITC,neutral,10,left,2,ITC_choice,774,f,0,0,700,36227,1305632
6,18,female,Belg,2,57,ITC,neutral,10,left,2,ITC_wait,0,undefined,0,0,700,26219,1315640
6,18,female,Belg,2,57,ITC,neutral,10,left,2,ITC_collect,303,k,0,0,700,25913,1315946
6,18,female,Belg,2,57,ITC,neutral,10,left,2,ITC_outcome,0,undefined,0,0,720,24904,1316955
6,18,female,Belg,2,58,guess,neutral,5,right,6,guess_start,1811,space,0,0,720,23090,1318769
6,18,female,Belg,2,58,guess,neutral,5,right,6,guess_choice,884,j,0,0,720,22202,1319657
6,18,female,Belg,2,58,guess,neutral,5,right,6,guess_outcome,0,undefined,0,0,720,20641,1321218
6,18,female,Belg,2,58,ITC,neutral,5,right,6,ITC_start,698,space,0,0,720,19941,1321918
6,18,female,Belg,2,58,ITC,neutral,5,right,6,ITC_choice,1226,j,0,0,720,18712,1323147
6,18,female,Belg,2,58,ITC,neutral,5,right,6,ITC_wait,0,undefined,0,0,720,13699,1328160
6,18,female,Belg,2,58,ITC,neutral,5,right,6,ITC_collect,910,k,0,0,720,12787,1329072
6,18,female,Belg,2,58,ITC,neutral,5,right,6,ITC_outcome,0,undefined,0,0,740,11767,1330092
6,18,female,Belg,2,59,guess,win,5,right,9,guess_start,884,space,0,0,740,10880,1330979
6,18,female,Belg,2,59,guess,win,5,right,9,guess_choice,3869,j,0,0,740,7007,1334852
6,18,female,Belg,2,59,guess,win,5,right,9,guess_outcome,0,undefined,0,0,760,5450,1336409
6,18,female,Belg,2,59,ITC,win,5,right,9,ITC_start,862,space,0,0,760,4586,1337273
6,18,female,Belg,2,59,ITC,win,5,right,9,ITC_choice,983,j,0,0,760,3600,1338259
6,18,female,Belg,2,59,ITC,win,5,right,9,ITC_wait,0,undefined,0,0,760,-16,1341875
6,18,female,Belg,3,60,guess,loss,10,left,5,guess_start,905,space,0,0,0,479093,1350499
6,18,female,Belg,3,60,guess,loss,10,left,5,guess_choice,1319,j,0,0,0,477771,1351821
6,18,female,Belg,3,60,guess,loss,10,left,5,guess_outcome,0,undefined,0,0,-15,476203,1353389
6,18,female,Belg,3,60,ITC,loss,10,left,5,ITC_start,767,space,0,0,-15,475433,1354159
6,18,female,Belg,3,60,ITC,loss,10,left,5,ITC_choice,773,f,0,0,-15,474658,1354934
6,18,female,Belg,3,60,ITC,loss,10,left,5,ITC_wait,0,undefined,0,0,-15,464650,1364942
6,18,female,Belg,3,60,ITC,loss,10,left,5,ITC_collect,956,k,0,0,-15,463691,1365901
6,18,female,Belg,3,60,ITC,loss,10,left,5,ITC_outcome,0,undefined,0,0,5,462681,1366911
6,18,female,Belg,3,61,guess,win,10,left,1,guess_start,754,space,0,0,5,461925,1367667
6,18,female,Belg,3,61,guess,win,10,left,1,guess_choice,1537,j,0,0,5,460383,1369209
6,18,female,Belg,3,61,guess,win,10,left,1,guess_outcome,0,undefined,0,0,25,458825,1370767
6,18,female,Belg,3,61,ITC,win,10,left,1,ITC_start,476,space,0,0,25,458348,1371244
6,18,female,Belg,3,61,ITC,win,10,left,1,ITC_choice,811,f,0,0,25,457535,1372057
6,18,female,Belg,3,61,ITC,win,10,left,1,ITC_wait,0,undefined,0,0,25,447530,1382062
6,18,female,Belg,3,61,ITC,win,10,left,1,ITC_collect,303,k,0,0,25,447224,1382368
6,18,female,Belg,3,61,ITC,win,10,left,1,ITC_outcome,0,undefined,0,0,45,446218,1383374
6,18,female,Belg,3,62,guess,neutral,10,left,5,guess_start,302,space,0,0,45,445913,1383679
6,18,female,Belg,3,62,guess,neutral,10,left,5,guess_choice,722,f,0,0,45,445186,1384406
6,18,female,Belg,3,62,guess,neutral,10,left,5,guess_outcome,0,undefined,0,0,45,443625,1385967
6,18,female,Belg,3,62,ITC,neutral,10,left,5,ITC_start,363,space,0,0,45,443260,1386332
6,18,female,Belg,3,62,ITC,neutral,10,left,5,ITC_choice,815,f,0,0,45,442442,1387150
6,18,female,Belg,3,62,ITC,neutral,10,left,5,ITC_wait,0,undefined,0,0,45,432434,1397158
6,18,female,Belg,3,62,ITC,neutral,10,left,5,ITC_collect,373,k,0,0,45,432058,1397534
6,18,female,Belg,3,62,ITC,neutral,10,left,5,ITC_outcome,0,undefined,0,0,65,431042,1398550
6,18,female,Belg,3,63,guess,win,5,right,5,guess_start,524,space,0,0,65,430515,1399077
6,18,female,Belg,3,63,guess,win,5,right,5,guess_choice,2168,j,0,0,65,428342,1401250
6,18,female,Belg,3,63,guess,win,5,right,5,guess_outcome,0,undefined,0,0,85,426777,1402815
6,18,female,Belg,3,63,ITC,win,5,right,5,ITC_start,512,space,0,0,85,426263,1403329
6,18,female,Belg,3,63,ITC,win,5,right,5,ITC_choice,716,j,0,0,85,425545,1404047
6,18,female,Belg,3,63,ITC,win,5,right,5,ITC_wait,0,undefined,0,0,85,420542,1409050
6,18,female,Belg,3,63,ITC,win,5,right,5,ITC_collect,870,k,0,0,85,419669,1409923
6,18,female,Belg,3,63,ITC,win,5,right,5,ITC_outcome,0,undefined,0,0,105,418657,1410935
6,18,female,Belg,3,64,guess,loss,5,left,13,guess_start,666,space,0,0,105,417986,1411606
6,18,female,Belg,3,64,guess,loss,5,left,13,guess_choice,1484,f,0,0,105,416498,1413094
6,18,female,Belg,3,64,guess,loss,5,left,13,guess_outcome,0,undefined,0,0,90,414936,1414656
6,18,female,Belg,3,64,ITC,loss,5,left,13,ITC_start,453,space,0,0,90,414481,1415111
6,18,female,Belg,3,64,ITC,loss,5,left,13,ITC_choice,589,f,0,0,90,413890,1415702
6,18,female,Belg,3,64,ITC,loss,5,left,13,ITC_wait,0,undefined,0,0,90,408880,1420712
6,18,female,Belg,3,64,ITC,loss,5,left,13,ITC_collect,387,k,0,0,90,408491,1421101
6,18,female,Belg,3,64,ITC,loss,5,left,13,ITC_outcome,0,undefined,0,0,110,407476,1422116
6,18,female,Belg,3,65,guess,loss,5,left,12,guess_start,692,space,0,0,110,406781,1422811
6,18,female,Belg,3,65,guess,loss,5,left,12,guess_choice,2219,f,0,0,110,404558,1425034
6,18,female,Belg,3,65,guess,loss,5,left,12,guess_outcome,0,undefined,0,0,95,402997,1426595
6,18,female,Belg,3,65,ITC,loss,5,left,12,ITC_start,807,space,0,0,95,402188,1427404
6,18,female,Belg,3,65,ITC,loss,5,left,12,ITC_choice,650,f,0,0,95,401536,1428056
6,18,female,Belg,3,65,ITC,loss,5,left,12,ITC_wait,0,undefined,0,0,95,396526,1433066
6,18,female,Belg,3,65,ITC,loss,5,left,12,ITC_collect,369,k,0,0,95,396154,1433438
6,18,female,Belg,3,65,ITC,loss,5,left,12,ITC_outcome,0,undefined,0,0,115,395137,1434455
6,18,female,Belg,3,66,guess,neutral,10,right,4,guess_start,234,space,0,0,115,394900,1434692
6,18,female,Belg,3,66,guess,neutral,10,right,4,guess_choice,486,j,0,0,115,394404,1435188
6,18,female,Belg,3,66,guess,neutral,10,right,4,guess_outcome,0,undefined,0,0,115,392842,1436750
6,18,female,Belg,3,66,ITC,neutral,10,right,4,ITC_start,617,space,0,0,115,392222,1437370
6,18,female,Belg,3,66,ITC,neutral,10,right,4,ITC_choice,794,j,0,0,115,391426,1438166
6,18,female,Belg,3,66,ITC,neutral,10,right,4,ITC_wait,0,undefined,0,0,115,381412,1448180
6,18,female,Belg,3,66,ITC,neutral,10,right,4,ITC_collect,487,k,0,0,115,380922,1448670
6,18,female,Belg,3,66,ITC,neutral,10,right,4,ITC_outcome,0,undefined,0,0,135,379910,1449682
6,18,female,Belg,3,67,guess,loss,5,left,16,guess_start,735,space,0,0,135,379172,1450420
6,18,female,Belg,3,67,guess,loss,5,left,16,guess_choice,1807,f,0,0,135,377360,1452232
6,18,female,Belg,3,67,guess,loss,5,left,16,guess_outcome,0,undefined,0,0,120,375796,1453796
6,18,female,Belg,3,67,ITC,loss,5,left,16,ITC_start,796,space,0,0,120,374998,1454594
6,18,female,Belg,3,67,ITC,loss,5,left,16,ITC_choice,1050,f,0,0,120,373946,1455646
6,18,female,Belg,3,67,ITC,loss,5,left,16,ITC_wait,0,undefined,0,0,120,368936,1460656
6,18,female,Belg,3,67,ITC,loss,5,left,16,ITC_collect,1060,k,0,0,120,367873,1461719
6,18,female,Belg,3,67,ITC,loss,5,left,16,ITC_outcome,0,undefined,0,0,140,366869,1462723
6,18,female,Belg,3,68,guess,win,10,left,3,guess_start,362,space,0,0,140,366504,1463088
6,18,female,Belg,3,68,guess,win,10,left,3,guess_choice,441,j,0,0,140,366059,1463533
6,18,female,Belg,3,68,guess,win,10,left,3,guess_outcome,0,undefined,0,0,160,364495,1465097
6,18,female,Belg,3,68,ITC,win,10,left,3,ITC_start,776,space,0,0,160,363716,1465876
6,18,female,Belg,3,68,ITC,win,10,left,3,ITC_choice,584,f,0,0,160,363129,1466463
6,18,female,Belg,3,68,ITC,win,10,left,3,ITC_wait,0,undefined,0,0,160,353118,1476474
6,18,female,Belg,3,68,ITC,win,10,left,3,ITC_collect,967,k,0,0,160,352148,1477444
6,18,female,Belg,3,68,ITC,win,10,left,3,ITC_outcome,0,undefined,0,0,180,351134,1478458
6,18,female,Belg,3,69,guess,win,5,right,1,guess_start,1660,space,0,0,180,349469,1480123
6,18,female,Belg,3,69,guess,win,5,right,1,guess_choice,959,j,0,0,180,348505,1481087
6,18,female,Belg,3,69,guess,win,5,right,1,guess_outcome,0,undefined,0,0,200,346949,1482643
6,18,female,Belg,3,69,ITC,win,5,right,1,ITC_start,536,space,0,0,200,346411,1483181
6,18,female,Belg,3,69,ITC,win,5,right,1,ITC_choice,949,f,0,0,200,345459,1484133
6,18,female,Belg,3,69,ITC,win,5,right,1,ITC_wait,0,undefined,0,0,200,345455,1484137
6,18,female,Belg,3,69,ITC,win,5,right,1,ITC_collect,1905,k,0,0,200,343548,1486044
6,18,female,Belg,3,69,ITC,win,5,right,1,ITC_outcome,0,undefined,0,0,201,342531,1487061
6,18,female,Belg,3,70,guess,loss,5,right,1,guess_start,618,space,0,0,201,341910,1487682
6,18,female,Belg,3,70,guess,loss,5,right,1,guess_choice,756,j,0,0,201,341149,1488443
6,18,female,Belg,3,70,guess,loss,5,right,1,guess_outcome,0,undefined,0,0,186,339581,1490011
6,18,female,Belg,3,70,ITC,loss,5,right,1,ITC_start,539,space,0,0,186,339041,1490551
6,18,female,Belg,3,70,ITC,loss,5,right,1,ITC_choice,1408,j,0,0,186,337630,1491962
6,18,female,Belg,3,70,ITC,loss,5,right,1,ITC_wait,0,undefined,0,0,186,332625,1496967
6,18,female,Belg,3,70,ITC,loss,5,right,1,ITC_collect,292,k,0,0,186,332330,1497262
6,18,female,Belg,3,70,ITC,loss,5,right,1,ITC_outcome,0,undefined,0,0,206,331312,1498280
6,18,female,Belg,3,71,guess,win,5,right,7,guess_start,593,space,0,0,206,330716,1498876
6,18,female,Belg,3,71,guess,win,5,right,7,guess_choice,597,f,0,0,206,330113,1499479
6,18,female,Belg,3,71,guess,win,5,right,7,guess_outcome,0,undefined,0,0,226,328547,1501045
6,18,female,Belg,3,71,ITC,win,5,right,7,ITC_start,604,space,0,0,226,327942,1501650
6,18,female,Belg,3,71,ITC,win,5,right,7,ITC_choice,963,j,0,0,226,326976,1502616
6,18,female,Belg,3,71,ITC,win,5,right,7,ITC_wait,0,undefined,0,0,226,321962,1507630
6,18,female,Belg,3,71,ITC,win,5,right,7,ITC_collect,280,k,0,0,226,321679,1507913
6,18,female,Belg,3,71,ITC,win,5,right,7,ITC_outcome,0,undefined,0,0,246,320666,1508926
6,18,female,Belg,3,72,guess,neutral,5,right,2,guess_start,432,space,0,0,246,320231,1509361
6,18,female,Belg,3,72,guess,neutral,5,right,2,guess_choice,799,f,0,0,246,319427,1510165
6,18,female,Belg,3,72,guess,neutral,5,right,2,guess_outcome,0,undefined,0,0,246,317860,1511732
6,18,female,Belg,3,72,ITC,neutral,5,right,2,ITC_start,1040,space,0,0,246,316818,1512774
6,18,female,Belg,3,72,ITC,neutral,5,right,2,ITC_choice,815,j,0,0,246,316001,1513591
6,18,female,Belg,3,72,ITC,neutral,5,right,2,ITC_wait,0,undefined,0,0,246,310986,1518606
6,18,female,Belg,3,72,ITC,neutral,5,right,2,ITC_collect,791,k,0,0,246,310192,1519400
6,18,female,Belg,3,72,ITC,neutral,5,right,2,ITC_outcome,0,undefined,0,0,266,309177,1520415
6,18,female,Belg,3,73,guess,loss,5,left,16,guess_start,1004,space,0,0,266,308170,1521422
6,18,female,Belg,3,73,guess,loss,5,left,16,guess_choice,2586,f,0,0,266,305578,1524014
6,18,female,Belg,3,73,guess,loss,5,left,16,guess_outcome,0,undefined,0,0,251,304021,1525571
6,18,female,Belg,3,73,ITC,loss,5,left,16,ITC_start,591,space,0,0,251,303428,1526164
6,18,female,Belg,3,73,ITC,loss,5,left,16,ITC_choice,1252,f,0,0,251,302174,1527418
6,18,female,Belg,3,73,ITC,loss,5,left,16,ITC_wait,0,undefined,0,0,251,297162,1532430
6,18,female,Belg,3,73,ITC,loss,5,left,16,ITC_collect,1528,k,0,0,251,295631,1533961
6,18,female,Belg,3,73,ITC,loss,5,left,16,ITC_outcome,0,undefined,0,0,271,294613,1534979
6,18,female,Belg,3,74,guess,win,5,right,12,guess_start,289,space,0,0,271,294320,1535272
6,18,female,Belg,3,74,guess,win,5,right,12,guess_choice,2046,j,0,0,271,292269,1537323
6,18,female,Belg,3,74,guess,win,5,right,12,guess_outcome,0,undefined,0,0,291,290704,1538888
6,18,female,Belg,3,74,ITC,win,5,right,12,ITC_start,727,space,0,0,291,289975,1539617
6,18,female,Belg,3,74,ITC,win,5,right,12,ITC_choice,903,j,0,0,291,289069,1540523
6,18,female,Belg,3,74,ITC,win,5,right,12,ITC_wait,0,undefined,0,0,291,284063,1545529
6,18,female,Belg,3,74,ITC,win,5,right,12,ITC_collect,685,k,0,0,291,283375,1546217
6,18,female,Belg,3,74,ITC,win,5,right,12,ITC_outcome,0,undefined,0,0,311,282364,1547228
6,18,female,Belg,3,75,guess,win,10,right,3,guess_start,348,space,0,0,311,282013,1547579
6,18,female,Belg,3,75,guess,win,10,right,3,guess_choice,1275,j,0,0,311,280734,1548858
6,18,female,Belg,3,75,guess,win,10,right,3,guess_outcome,0,undefined,0,0,331,279167,1550425
6,18,female,Belg,3,75,ITC,win,10,right,3,ITC_start,485,space,0,0,331,278681,1550911
6,18,female,Belg,3,75,ITC,win,10,right,3,ITC_choice,518,j,0,0,331,278160,1551432
6,18,female,Belg,3,75,ITC,win,10,right,3,ITC_wait,0,undefined,0,0,331,268157,1561435
6,18,female,Belg,3,75,ITC,win,10,right,3,ITC_collect,732,k,0,0,331,267422,1562170
6,18,female,Belg,3,75,ITC,win,10,right,3,ITC_outcome,0,undefined,0,0,351,266406,1563186
6,18,female,Belg,3,76,guess,loss,5,left,11,guess_start,790,space,0,0,351,265613,1563979
6,18,female,Belg,3,76,guess,loss,5,left,11,guess_choice,446,j,0,0,351,265163,1564429
6,18,female,Belg,3,76,guess,loss,5,left,11,guess_outcome,0,undefined,0,0,336,263605,1565987
6,18,female,Belg,3,76,ITC,loss,5,left,11,ITC_start,491,space,0,0,336,263112,1566480
6,18,female,Belg,3,76,ITC,loss,5,left,11,ITC_choice,1014,f,0,0,336,262095,1567497
6,18,female,Belg,3,76,ITC,loss,5,left,11,ITC_wait,0,undefined,0,0,336,257084,1572508
6,18,female,Belg,3,76,ITC,loss,5,left,11,ITC_collect,700,k,0,0,336,256381,1573211
6,18,female,Belg,3,76,ITC,loss,5,left,11,ITC_outcome,0,undefined,0,0,356,255368,1574224
6,18,female,Belg,3,77,guess,loss,10,left,6,guess_start,351,space,0,0,356,255014,1574578
6,18,female,Belg,3,77,guess,loss,10,left,6,guess_choice,1650,f,0,0,356,253359,1576233
6,18,female,Belg,3,77,guess,loss,10,left,6,guess_outcome,0,undefined,0,0,341,251798,1577794
6,18,female,Belg,3,77,ITC,loss,10,left,6,ITC_start,929,space,0,0,341,250868,1578724
6,18,female,Belg,3,77,ITC,loss,10,left,6,ITC_choice,835,f,0,0,341,250031,1579561
6,18,female,Belg,3,77,ITC,loss,10,left,6,ITC_wait,0,undefined,0,0,341,240027,1589565
6,18,female,Belg,3,77,ITC,loss,10,left,6,ITC_collect,369,k,0,0,341,239656,1589936
6,18,female,Belg,3,77,ITC,loss,10,left,6,ITC_outcome,0,undefined,0,0,361,238651,1590941
6,18,female,Belg,3,78,guess,win,5,right,14,guess_start,341,space,0,0,361,238308,1591284
6,18,female,Belg,3,78,guess,win,5,right,14,guess_choice,603,j,0,0,361,237699,1591893
6,18,female,Belg,3,78,guess,win,5,right,14,guess_outcome,0,undefined,0,0,381,236135,1593457
6,18,female,Belg,3,78,ITC,win,5,right,14,ITC_start,1790,space,0,0,381,234343,1595249
6,18,female,Belg,3,78,ITC,win,5,right,14,ITC_choice,616,j,0,0,381,233725,1595867
6,18,female,Belg,3,78,ITC,win,5,right,14,ITC_wait,0,undefined,0,0,381,228717,1600875
6,18,female,Belg,3,78,ITC,win,5,right,14,ITC_collect,318,k,0,0,381,228396,1601196
6,18,female,Belg,3,78,ITC,win,5,right,14,ITC_outcome,0,undefined,0,0,401,227387,1602205
6,18,female,Belg,3,79,guess,loss,10,right,3,guess_start,880,space,0,0,401,226502,1603090
6,18,female,Belg,3,79,guess,loss,10,right,3,guess_choice,1356,j,0,0,401,225141,1604451
6,18,female,Belg,3,79,guess,loss,10,right,3,guess_outcome,0,undefined,0,0,386,223575,1606017
6,18,female,Belg,3,79,ITC,loss,10,right,3,ITC_start,594,space,0,0,386,222979,1606613
6,18,female,Belg,3,79,ITC,loss,10,right,3,ITC_choice,628,j,0,0,386,222349,1607243
6,18,female,Belg,3,79,ITC,loss,10,right,3,ITC_wait,0,undefined,0,0,386,212334,1617258
6,18,female,Belg,3,79,ITC,loss,10,right,3,ITC_collect,303,k,0,0,386,212028,1617564
6,18,female,Belg,3,79,ITC,loss,10,right,3,ITC_outcome,0,undefined,0,0,406,211021,1618571
6,18,female,Belg,3,80,guess,neutral,5,left,9,guess_start,496,space,0,0,406,210523,1619069
6,18,female,Belg,3,80,guess,neutral,5,left,9,guess_choice,1684,f,0,0,406,208834,1620758
6,18,female,Belg,3,80,guess,neutral,5,left,9,guess_outcome,0,undefined,0,0,406,207269,1622323
6,18,female,Belg,3,80,ITC,neutral,5,left,9,ITC_start,937,space,0,0,406,206330,1623262
6,18,female,Belg,3,80,ITC,neutral,5,left,9,ITC_choice,672,f,0,0,406,205656,1623936
6,18,female,Belg,3,80,ITC,neutral,5,left,9,ITC_wait,0,undefined,0,0,406,200640,1628952
6,18,female,Belg,3,80,ITC,neutral,5,left,9,ITC_collect,658,k,0,0,406,199979,1629613
6,18,female,Belg,3,80,ITC,neutral,5,left,9,ITC_outcome,0,undefined,0,0,426,198972,1630620
6,18,female,Belg,3,81,guess,loss,5,left,13,guess_start,789,space,0,0,426,198180,1631412
6,18,female,Belg,3,81,guess,loss,5,left,13,guess_choice,693,j,0,0,426,197482,1632110
6,18,female,Belg,3,81,guess,loss,5,left,13,guess_outcome,0,undefined,0,0,411,195918,1633674
6,18,female,Belg,3,81,ITC,loss,5,left,13,ITC_start,895,space,0,0,411,195021,1634571
6,18,female,Belg,3,81,ITC,loss,5,left,13,ITC_choice,873,f,0,0,411,194146,1635446
6,18,female,Belg,3,81,ITC,loss,5,left,13,ITC_wait,0,undefined,0,0,411,189143,1640449
6,18,female,Belg,3,81,ITC,loss,5,left,13,ITC_collect,348,k,0,0,411,188792,1640800
6,18,female,Belg,3,81,ITC,loss,5,left,13,ITC_outcome,0,undefined,0,0,431,187786,1641806
6,18,female,Belg,3,82,guess,win,10,right,8,guess_start,767,space,0,0,431,187016,1642576
6,18,female,Belg,3,82,guess,win,10,right,8,guess_choice,463,f,0,0,431,186546,1643046
6,18,female,Belg,3,82,guess,win,10,right,8,guess_outcome,0,undefined,0,0,451,184988,1644604
6,18,female,Belg,3,82,ITC,win,10,right,8,ITC_start,715,space,0,0,451,184271,1645321
6,18,female,Belg,3,82,ITC,win,10,right,8,ITC_choice,760,j,0,0,451,183509,1646083
6,18,female,Belg,3,82,ITC,win,10,right,8,ITC_wait,0,undefined,0,0,451,173502,1656090
6,18,female,Belg,3,82,ITC,win,10,right,8,ITC_collect,524,k,0,0,451,172976,1656616
6,18,female,Belg,3,82,ITC,win,10,right,8,ITC_outcome,0,undefined,0,0,471,171957,1657635
6,18,female,Belg,3,83,guess,neutral,5,right,2,guess_start,363,space,0,0,471,171591,1658001
6,18,female,Belg,3,83,guess,neutral,5,right,2,guess_choice,904,f,0,0,471,170682,1658910
6,18,female,Belg,3,83,guess,neutral,5,right,2,guess_outcome,0,undefined,0,0,471,169113,1660479
6,18,female,Belg,3,83,ITC,neutral,5,right,2,ITC_start,454,space,0,0,471,168656,1660936
6,18,female,Belg,3,83,ITC,neutral,5,right,2,ITC_choice,627,j,0,0,471,168027,1661565
6,18,female,Belg,3,83,ITC,neutral,5,right,2,ITC_wait,0,undefined,0,0,471,163019,1666573
6,18,female,Belg,3,83,ITC,neutral,5,right,2,ITC_collect,656,k,0,0,471,162360,1667232
6,18,female,Belg,3,83,ITC,neutral,5,right,2,ITC_outcome,0,undefined,0,0,491,161352,1668240
6,18,female,Belg,3,84,guess,win,10,right,4,guess_start,816,space,0,0,491,160532,1669060
6,18,female,Belg,3,84,guess,win,10,right,4,guess_choice,354,f,0,0,491,160174,1669418
6,18,female,Belg,3,84,guess,win,10,right,4,guess_outcome,0,undefined,0,0,511,158616,1670976
6,18,female,Belg,3,84,ITC,win,10,right,4,ITC_start,953,space,0,0,511,157661,1671931
6,18,female,Belg,3,84,ITC,win,10,right,4,ITC_choice,561,j,0,0,511,157097,1672495
6,18,female,Belg,3,84,ITC,win,10,right,4,ITC_wait,0,undefined,0,0,511,147082,1682510
6,18,female,Belg,3,84,ITC,win,10,right,4,ITC_collect,393,k,0,0,511,146686,1682906
6,18,female,Belg,3,84,ITC,win,10,right,4,ITC_outcome,0,undefined,0,0,531,145674,1683918
6,18,female,Belg,3,85,guess,win,5,right,3,guess_start,375,space,0,0,531,145296,1684296
6,18,female,Belg,3,85,guess,win,5,right,3,guess_choice,593,f,0,0,531,144698,1684894
6,18,female,Belg,3,85,guess,win,5,right,3,guess_outcome,0,undefined,0,0,551,143142,1686450
6,18,female,Belg,3,85,ITC,win,5,right,3,ITC_start,743,space,0,0,551,142397,1687195
6,18,female,Belg,3,85,ITC,win,5,right,3,ITC_choice,551,j,0,0,551,141844,1687748
6,18,female,Belg,3,85,ITC,win,5,right,3,ITC_wait,0,undefined,0,0,551,136828,1692764
6,18,female,Belg,3,85,ITC,win,5,right,3,ITC_collect,776,k,0,0,551,136050,1693542
6,18,female,Belg,3,85,ITC,win,5,right,3,ITC_outcome,0,undefined,0,0,571,135037,1694555
6,18,female,Belg,3,86,guess,neutral,5,right,4,guess_start,873,space,0,0,571,134160,1695432
6,18,female,Belg,3,86,guess,neutral,5,right,4,guess_choice,412,f,0,0,571,133744,1695848
6,18,female,Belg,3,86,guess,neutral,5,right,4,guess_outcome,0,undefined,0,0,571,132181,1697411
6,18,female,Belg,3,86,ITC,neutral,5,right,4,ITC_start,375,space,0,0,571,131805,1697787
6,18,female,Belg,3,86,ITC,neutral,5,right,4,ITC_choice,768,j,0,0,571,131034,1698558
6,18,female,Belg,3,86,ITC,neutral,5,right,4,ITC_wait,0,undefined,0,0,571,126027,1703565
6,18,female,Belg,3,86,ITC,neutral,5,right,4,ITC_collect,475,k,0,0,571,125550,1704042
6,18,female,Belg,3,86,ITC,neutral,5,right,4,ITC_outcome,0,undefined,0,0,591,124544,1705048
6,18,female,Belg,3,87,guess,neutral,10,left,2,guess_start,580,space,0,0,591,123961,1705631
6,18,female,Belg,3,87,guess,neutral,10,left,2,guess_choice,737,j,0,0,591,123218,1706374
6,18,female,Belg,3,87,guess,neutral,10,left,2,guess_outcome,0,undefined,0,0,591,121655,1707937
6,18,female,Belg,3,87,ITC,neutral,10,left,2,ITC_start,1576,space,0,0,591,120077,1709515
6,18,female,Belg,3,87,ITC,neutral,10,left,2,ITC_choice,890,f,0,0,591,119184,1710408
6,18,female,Belg,3,87,ITC,neutral,10,left,2,ITC_wait,0,undefined,0,0,591,109168,1720424
6,18,female,Belg,3,87,ITC,neutral,10,left,2,ITC_collect,350,k,0,0,591,108816,1720776
6,18,female,Belg,3,87,ITC,neutral,10,left,2,ITC_outcome,0,undefined,0,0,611,107808,1721784
6,18,female,Belg,3,88,guess,loss,10,right,7,guess_start,1013,space,0,0,611,106791,1722801
6,18,female,Belg,3,88,guess,loss,10,right,7,guess_choice,1753,j,0,0,611,105032,1724560
6,18,female,Belg,3,88,guess,loss,10,right,7,guess_outcome,0,undefined,0,0,596,103468,1726124
6,18,female,Belg,3,88,ITC,loss,10,right,7,ITC_start,1398,space,0,0,596,102068,1727524
6,18,female,Belg,3,88,ITC,loss,10,right,7,ITC_choice,638,j,0,0,596,101428,1728164
6,18,female,Belg,3,88,ITC,loss,10,right,7,ITC_wait,0,undefined,0,0,596,91416,1738176
6,18,female,Belg,3,88,ITC,loss,10,right,7,ITC_collect,692,k,0,0,596,90721,1738871
6,18,female,Belg,3,88,ITC,loss,10,right,7,ITC_outcome,0,undefined,0,0,616,89713,1739879
6,18,female,Belg,3,89,guess,neutral,5,left,16,guess_start,295,space,0,0,616,89415,1740177
6,18,female,Belg,3,89,guess,neutral,5,left,16,guess_choice,870,j,0,0,616,88539,1741053
6,18,female,Belg,3,89,guess,neutral,5,left,16,guess_outcome,0,undefined,0,0,616,86979,1742613
6,18,female,Belg,3,89,ITC,neutral,5,left,16,ITC_start,1017,space,0,0,616,85961,1743631
6,18,female,Belg,3,89,ITC,neutral,5,left,16,ITC_choice,775,f,0,0,616,85184,1744408
6,18,female,Belg,3,89,ITC,neutral,5,left,16,ITC_wait,0,undefined,0,0,616,80168,1749424
6,18,female,Belg,3,89,ITC,neutral,5,left,16,ITC_collect,628,k,0,0,616,79538,1750054
6,18,female,Belg,3,89,ITC,neutral,5,left,16,ITC_outcome,0,undefined,0,0,636,78528,1751064
6,18,female,Belg,3,90,guess,neutral,5,right,7,guess_start,608,space,0,0,636,77917,1751675
6,18,female,Belg,3,90,guess,neutral,5,right,7,guess_choice,654,j,0,0,636,77257,1752335
6,18,female,Belg,3,90,guess,neutral,5,right,7,guess_outcome,0,undefined,0,0,636,75690,1753902
6,18,female,Belg,3,90,ITC,neutral,5,right,7,ITC_start,664,space,0,0,636,75024,1754568
6,18,female,Belg,3,90,ITC,neutral,5,right,7,ITC_choice,899,j,0,0,636,74123,1755469
6,18,female,Belg,3,90,ITC,neutral,5,right,7,ITC_wait,0,undefined,0,0,636,69114,1760478
6,18,female,Belg,3,90,ITC,neutral,5,right,7,ITC_collect,643,k,0,0,636,68469,1761123
6,18,female,Belg,3,90,ITC,neutral,5,right,7,ITC_outcome,0,undefined,0,0,656,67461,1762131
6,18,female,Belg,3,91,guess,loss,5,right,10,guess_start,332,space,0,0,656,67126,1762466
6,18,female,Belg,3,91,guess,loss,5,right,10,guess_choice,666,j,0,0,656,66454,1763138
6,18,female,Belg,3,91,guess,loss,5,right,10,guess_outcome,0,undefined,0,0,641,64885,1764707
6,18,female,Belg,3,91,ITC,loss,5,right,10,ITC_start,1408,space,0,0,641,63474,1766118
6,18,female,Belg,3,91,ITC,loss,5,right,10,ITC_choice,865,j,0,0,641,62607,1766985
6,18,female,Belg,3,91,ITC,loss,5,right,10,ITC_wait,0,undefined,0,0,641,57599,1771993
6,18,female,Belg,3,91,ITC,loss,5,right,10,ITC_collect,1100,k,0,0,641,56496,1773096
6,18,female,Belg,3,91,ITC,loss,5,right,10,ITC_outcome,0,undefined,0,0,661,55481,1774111
6,18,female,Belg,3,92,guess,win,5,right,10,guess_start,405,space,0,0,661,55073,1774519
6,18,female,Belg,3,92,guess,win,5,right,10,guess_choice,1044,j,0,0,661,54023,1775569
6,18,female,Belg,3,92,guess,win,5,right,10,guess_outcome,0,undefined,0,0,681,52461,1777131
6,18,female,Belg,3,92,ITC,win,5,right,10,ITC_start,750,space,0,0,681,51709,1777883
6,18,female,Belg,3,92,ITC,win,5,right,10,ITC_choice,514,j,0,0,681,51192,1778400
6,18,female,Belg,3,92,ITC,win,5,right,10,ITC_wait,0,undefined,0,0,681,46182,1783410
6,18,female,Belg,3,92,ITC,win,5,right,10,ITC_collect,703,k,0,0,681,45476,1784116
6,18,female,Belg,3,92,ITC,win,5,right,10,ITC_outcome,0,undefined,0,0,701,44468,1785124
6,18,female,Belg,3,93,guess,loss,5,right,1,guess_start,597,space,0,0,701,43869,1785723
6,18,female,Belg,3,93,guess,loss,5,right,1,guess_choice,452,j,0,0,701,43411,1786181
6,18,female,Belg,3,93,guess,loss,5,right,1,guess_outcome,0,undefined,0,0,686,41856,1787736
6,18,female,Belg,3,93,ITC,loss,5,right,1,ITC_start,706,space,0,0,686,41147,1788445
6,18,female,Belg,3,93,ITC,loss,5,right,1,ITC_choice,1605,j,0,0,686,39539,1790053
6,18,female,Belg,3,93,ITC,loss,5,right,1,ITC_wait,0,undefined,0,0,686,34520,1795072
6,18,female,Belg,3,93,ITC,loss,5,right,1,ITC_collect,641,k,0,0,686,33877,1795715
6,18,female,Belg,3,93,ITC,loss,5,right,1,ITC_outcome,0,undefined,0,0,706,32869,1796723
6,18,female,Belg,3,94,guess,win,5,left,6,guess_start,280,space,0,0,706,32586,1797006
6,18,female,Belg,3,94,guess,win,5,left,6,guess_choice,1540,f,0,0,706,31041,1798551
6,18,female,Belg,3,94,guess,win,5,left,6,guess_outcome,0,undefined,0,0,726,29471,1800121
6,18,female,Belg,3,94,ITC,win,5,left,6,ITC_start,561,space,0,0,726,28908,1800684
6,18,female,Belg,3,94,ITC,win,5,left,6,ITC_choice,703,f,0,0,726,28202,1801390
6,18,female,Belg,3,94,ITC,win,5,left,6,ITC_wait,0,undefined,0,0,726,23199,1806393
6,18,female,Belg,3,94,ITC,win,5,left,6,ITC_collect,926,k,0,0,726,22271,1807321
6,18,female,Belg,3,94,ITC,win,5,left,6,ITC_outcome,0,undefined,0,0,746,21253,1808339
6,18,female,Belg,3,95,guess,neutral,5,left,5,guess_start,1810,space,0,0,746,19440,1810152
6,18,female,Belg,3,95,guess,neutral,5,left,5,guess_choice,768,j,0,0,746,18668,1810924
6,18,female,Belg,3,95,guess,neutral,5,left,5,guess_outcome,0,undefined,0,0,746,17102,1812490
6,18,female,Belg,3,95,ITC,neutral,5,left,5,ITC_start,779,space,0,0,746,16320,1813272
6,18,female,Belg,3,95,ITC,neutral,5,left,5,ITC_choice,687,f,0,0,746,15631,1813961
6,18,female,Belg,3,95,ITC,neutral,5,left,5,ITC_wait,0,undefined,0,0,746,10616,1818976
6,18,female,Belg,3,95,ITC,neutral,5,left,5,ITC_collect,868,k,0,0,746,9745,1819847
6,18,female,Belg,3,95,ITC,neutral,5,left,5,ITC_outcome,0,undefined,0,0,766,8731,1820861
6,18,female,Belg,3,96,guess,loss,5,right,8,guess_start,879,space,0,0,766,7850,1821742
6,18,female,Belg,3,96,guess,loss,5,right,8,guess_choice,658,j,0,0,766,7187,1822405
6,18,female,Belg,3,96,guess,loss,5,right,8,guess_outcome,0,undefined,0,0,751,5619,1823973
6,18,female,Belg,3,96,ITC,loss,5,right,8,ITC_start,695,space,0,0,751,4921,1824671
6,18,female,Belg,3,96,ITC,loss,5,right,8,ITC_choice,922,j,0,0,751,3996,1825596
6,18,female,Belg,3,96,ITC,loss,5,right,8,ITC_wait,0,undefined,0,0,751,-6,1829598
6,18,female,Belg,4,97,guess,win,5,right,16,guess_start,362,space,0,0,0,479637,2272461
6,18,female,Belg,4,97,guess,win,5,right,16,guess_choice,807,j,0,0,0,478825,2273273
6,18,female,Belg,4,97,guess,win,5,right,16,guess_outcome,0,undefined,0,0,20,477257,2274841
6,18,female,Belg,4,97,ITC,win,5,right,16,ITC_start,542,space,0,0,20,476713,2275385
6,18,female,Belg,4,97,ITC,win,5,right,16,ITC_choice,937,j,0,0,20,475774,2276324
6,18,female,Belg,4,97,ITC,win,5,right,16,ITC_wait,0,undefined,0,0,20,470763,2281335
6,18,female,Belg,4,97,ITC,win,5,right,16,ITC_collect,755,k,0,0,20,470006,2282092
6,18,female,Belg,4,97,ITC,win,5,right,16,ITC_outcome,0,undefined,0,0,40,468999,2283099
6,18,female,Belg,4,98,guess,loss,5,right,9,guess_start,1228,space,0,0,40,467767,2284331
6,18,female,Belg,4,98,guess,loss,5,right,9,guess_choice,555,j,0,0,40,467207,2284891
6,18,female,Belg,4,98,guess,loss,5,right,9,guess_outcome,0,undefined,0,0,25,465650,2286448
6,18,female,Belg,4,98,ITC,loss,5,right,9,ITC_start,530,space,0,0,25,465118,2286980
6,18,female,Belg,4,98,ITC,loss,5,right,9,ITC_choice,629,j,0,0,25,464487,2287611
6,18,female,Belg,4,98,ITC,loss,5,right,9,ITC_wait,0,undefined,0,0,25,459474,2292624
6,18,female,Belg,4,98,ITC,loss,5,right,9,ITC_collect,858,k,0,0,25,458612,2293486
6,18,female,Belg,4,98,ITC,loss,5,right,9,ITC_outcome,0,undefined,0,0,45,457606,2294492
6,18,female,Belg,4,99,guess,loss,5,left,2,guess_start,1262,space,0,0,45,456341,2295757
6,18,female,Belg,4,99,guess,loss,5,left,2,guess_choice,503,f,0,0,45,455833,2296265
6,18,female,Belg,4,99,guess,loss,5,left,2,guess_outcome,0,undefined,0,0,30,454266,2297832
6,18,female,Belg,4,99,ITC,loss,5,left,2,ITC_start,700,space,0,0,30,453564,2298534
6,18,female,Belg,4,99,ITC,loss,5,left,2,ITC_choice,1312,f,0,0,30,452250,2299848
6,18,female,Belg,4,99,ITC,loss,5,left,2,ITC_wait,0,undefined,0,0,30,447246,2304852
6,18,female,Belg,4,99,ITC,loss,5,left,2,ITC_collect,321,k,0,0,30,446923,2305175
6,18,female,Belg,4,99,ITC,loss,5,left,2,ITC_outcome,0,undefined,0,0,50,445919,2306179
6,18,female,Belg,4,100,guess,loss,5,right,4,guess_start,591,space,0,0,50,445325,2306773
6,18,female,Belg,4,100,guess,loss,5,right,4,guess_choice,544,j,0,0,50,444776,2307322
6,18,female,Belg,4,100,guess,loss,5,right,4,guess_outcome,0,undefined,0,0,35,443220,2308878
6,18,female,Belg,4,100,ITC,loss,5,right,4,ITC_start,632,space,0,0,35,442586,2309512
6,18,female,Belg,4,100,ITC,loss,5,right,4,ITC_choice,908,j,0,0,35,441676,2310422
6,18,female,Belg,4,100,ITC,loss,5,right,4,ITC_wait,0,undefined,0,0,35,436667,2315431
6,18,female,Belg,4,100,ITC,loss,5,right,4,ITC_collect,714,k,0,0,35,435950,2316148
6,18,female,Belg,4,100,ITC,loss,5,right,4,ITC_outcome,0,undefined,0,0,55,434935,2317163
6,18,female,Belg,4,101,guess,loss,5,right,6,guess_start,513,space,0,0,55,434420,2317678
6,18,female,Belg,4,101,guess,loss,5,right,6,guess_choice,3143,f,0,0,55,431271,2320827
6,18,female,Belg,4,101,guess,loss,5,right,6,guess_outcome,0,undefined,0,0,40,429714,2322384
6,18,female,Belg,4,101,ITC,loss,5,right,6,ITC_start,778,space,0,0,40,428933,2323165
6,18,female,Belg,4,101,ITC,loss,5,right,6,ITC_choice,637,j,0,0,40,428293,2323805
6,18,female,Belg,4,101,ITC,loss,5,right,6,ITC_wait,0,undefined,0,0,40,423275,2328823
6,18,female,Belg,4,101,ITC,loss,5,right,6,ITC_collect,412,k,0,0,40,422861,2329237
6,18,female,Belg,4,101,ITC,loss,5,right,6,ITC_outcome,0,undefined,0,0,60,421855,2330243
6,18,female,Belg,4,102,guess,loss,5,right,14,guess_start,1818,space,0,0,60,420034,2332064
6,18,female,Belg,4,102,guess,loss,5,right,14,guess_choice,1593,j,0,0,60,418435,2333663
6,18,female,Belg,4,102,guess,loss,5,right,14,guess_outcome,0,undefined,0,0,45,416868,2335230
6,18,female,Belg,4,102,ITC,loss,5,right,14,ITC_start,657,space,0,0,45,416209,2335889
6,18,female,Belg,4,102,ITC,loss,5,right,14,ITC_choice,721,j,0,0,45,415486,2336612
6,18,female,Belg,4,102,ITC,loss,5,right,14,ITC_wait,0,undefined,0,0,45,410470,2341628
6,18,female,Belg,4,102,ITC,loss,5,right,14,ITC_collect,1265,k,0,0,45,409202,2342896
6,18,female,Belg,4,102,ITC,loss,5,right,14,ITC_outcome,0,undefined,0,0,65,408198,2343900
6,18,female,Belg,4,103,guess,win,10,right,2,guess_start,1047,space,0,0,65,407147,2344951
6,18,female,Belg,4,103,guess,win,10,right,2,guess_choice,608,f,0,0,65,406534,2345564
6,18,female,Belg,4,103,guess,win,10,right,2,guess_outcome,0,undefined,0,0,85,404969,2347129
6,18,female,Belg,4,103,ITC,win,10,right,2,ITC_start,1059,space,0,0,85,403908,2348190
6,18,female,Belg,4,103,ITC,win,10,right,2,ITC_choice,686,j,0,0,85,403219,2348879
6,18,female,Belg,4,103,ITC,win,10,right,2,ITC_wait,0,undefined,0,0,85,393208,2358890
6,18,female,Belg,4,103,ITC,win,10,right,2,ITC_collect,618,k,0,0,85,392587,2359511
6,18,female,Belg,4,103,ITC,win,10,right,2,ITC_outcome,0,undefined,0,0,105,391573,2360525
6,18,female,Belg,4,104,guess,loss,5,right,15,guess_start,618,space,0,0,105,390952,2361146
6,18,female,Belg,4,104,guess,loss,5,right,15,guess_choice,581,j,0,0,105,390365,2361733
6,18,female,Belg,4,104,guess,loss,5,right,15,guess_outcome,0,undefined,0,0,90,388808,2363290
6,18,female,Belg,4,104,ITC,loss,5,right,15,ITC_start,3097,space,0,0,90,385709,2366389
6,18,female,Belg,4,104,ITC,loss,5,right,15,ITC_choice,1076,j,0,0,90,384629,2367469
6,18,female,Belg,4,104,ITC,loss,5,right,15,ITC_wait,0,undefined,0,0,90,379616,2372482
6,18,female,Belg,4,104,ITC,loss,5,right,15,ITC_collect,376,k,0,0,90,379237,2372861
6,18,female,Belg,4,104,ITC,loss,5,right,15,ITC_outcome,0,undefined,0,0,110,378225,2373873
6,18,female,Belg,4,105,guess,neutral,5,right,11,guess_start,735,space,0,0,110,377488,2374610
6,18,female,Belg,4,105,guess,neutral,5,right,11,guess_choice,742,j,0,0,110,376740,2375358
6,18,female,Belg,4,105,guess,neutral,5,right,11,guess_outcome,0,undefined,0,0,110,375170,2376928
6,18,female,Belg,4,105,ITC,neutral,5,right,11,ITC_start,627,space,0,0,110,374541,2377557
6,18,female,Belg,4,105,ITC,neutral,5,right,11,ITC_choice,646,j,0,0,110,373894,2378204
6,18,female,Belg,4,105,ITC,neutral,5,right,11,ITC_wait,0,undefined,0,0,110,368883,2383215
6,18,female,Belg,4,105,ITC,neutral,5,right,11,ITC_collect,598,k,0,0,110,368282,2383816
6,18,female,Belg,4,105,ITC,neutral,5,right,11,ITC_outcome,0,undefined,0,0,130,367275,2384823
6,18,female,Belg,4,106,guess,loss,5,left,7,guess_start,658,space,0,0,130,366615,2385483
6,18,female,Belg,4,106,guess,loss,5,left,7,guess_choice,1040,f,0,0,130,365568,2386530
6,18,female,Belg,4,106,guess,loss,5,left,7,guess_outcome,0,undefined,0,0,115,364001,2388097
6,18,female,Belg,4,106,ITC,loss,5,left,7,ITC_start,741,space,0,0,115,363258,2388840
6,18,female,Belg,4,106,ITC,loss,5,left,7,ITC_choice,780,f,0,0,115,362475,2389623
6,18,female,Belg,4,106,ITC,loss,5,left,7,ITC_wait,0,undefined,0,0,115,357471,2394627
6,18,female,Belg,4,106,ITC,loss,5,left,7,ITC_collect,745,k,0,0,115,356724,2395374
6,18,female,Belg,4,106,ITC,loss,5,left,7,ITC_outcome,0,undefined,0,0,135,355710,2396388
6,18,female,Belg,4,107,guess,win,5,right,4,guess_start,636,space,0,0,135,355071,2397027
6,18,female,Belg,4,107,guess,win,5,right,4,guess_choice,548,j,0,0,135,354517,2397581
6,18,female,Belg,4,107,guess,win,5,right,4,guess_outcome,0,undefined,0,0,155,352947,2399151
6,18,female,Belg,4,107,ITC,win,5,right,4,ITC_start,1134,space,0,0,155,351810,2400288
6,18,female,Belg,4,107,ITC,win,5,right,4,ITC_choice,787,j,0,0,155,351020,2401078
6,18,female,Belg,4,107,ITC,win,5,right,4,ITC_wait,0,undefined,0,0,155,346016,2406082
6,18,female,Belg,4,107,ITC,win,5,right,4,ITC_collect,781,k,0,0,155,345232,2406866
6,18,female,Belg,4,107,ITC,win,5,right,4,ITC_outcome,0,undefined,0,0,175,344221,2407877
6,18,female,Belg,4,108,guess,loss,10,left,5,guess_start,647,space,0,0,175,343572,2408526
6,18,female,Belg,4,108,guess,loss,10,left,5,guess_choice,672,j,0,0,175,342895,2409203
6,18,female,Belg,4,108,guess,loss,10,left,5,guess_outcome,0,undefined,0,0,160,341331,2410767
6,18,female,Belg,4,108,ITC,loss,10,left,5,ITC_start,1774,space,0,0,160,339555,2412543
6,18,female,Belg,4,108,ITC,loss,10,left,5,ITC_choice,633,f,0,0,160,338919,2413179
6,18,female,Belg,4,109,guess,neutral,5,left,14,guess_start,921,space,0,0,180,326617,2425481
6,18,female,Belg,4,109,guess,neutral,5,left,14,guess_outcome,0,undefined,0,0,180,324328,2427770
6,18,female,Belg,4,108,ITC,loss,10,left,5,ITC_wait,0,undefined,0,0,160,328912,2423186
6,18,female,Belg,4,108,ITC,loss,10,left,5,ITC_collect,350,k,0,0,160,328559,2423539
6,18,female,Belg,4,108,ITC,loss,10,left,5,ITC_outcome,0,undefined,0,0,180,327540,2424558
6,18,female,Belg,4,109,guess,neutral,5,left,14,guess_choice,721,f,0,0,180,325891,2426207
6,18,female,Belg,4,109,ITC,neutral,5,left,14,ITC_start,2212,space,0,0,180,322114,2429984
6,18,female,Belg,4,109,ITC,neutral,5,left,14,ITC_choice,589,f,0,0,180,321523,2430575
6,18,female,Belg,4,109,ITC,neutral,5,left,14,ITC_wait,0,undefined,0,0,180,316506,2435592
6,18,female,Belg,4,109,ITC,neutral,5,left,14,ITC_collect,736,k,0,0,180,315765,2436333
6,18,female,Belg,4,109,ITC,neutral,5,left,14,ITC_outcome,0,undefined,0,0,200,314757,2437341
6,18,female,Belg,4,110,guess,win,5,right,7,guess_start,256,space,0,0,200,314498,2437600
6,18,female,Belg,4,110,guess,win,5,right,7,guess_choice,768,j,0,0,200,313725,2438373
6,18,female,Belg,4,110,guess,win,5,right,7,guess_outcome,0,undefined,0,0,220,312164,2439934
6,18,female,Belg,4,110,ITC,win,5,right,7,ITC_start,780,space,0,0,220,311382,2440716
6,18,female,Belg,4,110,ITC,win,5,right,7,ITC_choice,638,j,0,0,220,310742,2441356
6,18,female,Belg,4,110,ITC,win,5,right,7,ITC_wait,0,undefined,0,0,220,305726,2446372
6,18,female,Belg,4,110,ITC,win,5,right,7,ITC_collect,295,k,0,0,220,305429,2446669
6,18,female,Belg,4,110,ITC,win,5,right,7,ITC_outcome,0,undefined,0,0,240,304413,2447685
6,18,female,Belg,4,111,guess,loss,10,left,4,guess_start,920,space,0,0,240,303490,2448608
6,18,female,Belg,4,111,guess,loss,10,left,4,guess_choice,719,f,0,0,240,302766,2449332
6,18,female,Belg,4,111,guess,loss,10,left,4,guess_outcome,0,undefined,0,0,225,301200,2450898
6,18,female,Belg,4,111,ITC,loss,10,left,4,ITC_start,407,space,0,0,225,300792,2451306
6,18,female,Belg,4,111,ITC,loss,10,left,4,ITC_choice,546,f,0,0,225,300243,2451855
6,18,female,Belg,4,111,ITC,loss,10,left,4,ITC_wait,0,undefined,0,0,225,290226,2461872
6,18,female,Belg,4,111,ITC,loss,10,left,4,ITC_collect,381,k,0,0,225,289842,2462256
6,18,female,Belg,4,111,ITC,loss,10,left,4,ITC_outcome,0,undefined,0,0,245,288836,2463262
6,18,female,Belg,4,112,guess,win,10,right,1,guess_start,1148,space,0,0,245,287685,2464413
6,18,female,Belg,4,112,guess,win,10,right,1,guess_choice,584,j,0,0,245,287096,2465002
6,18,female,Belg,4,112,guess,win,10,right,1,guess_outcome,0,undefined,0,0,265,285533,2466565
6,18,female,Belg,4,112,ITC,win,10,right,1,ITC_start,675,space,0,0,265,284856,2467242
6,18,female,Belg,4,112,ITC,win,10,right,1,ITC_choice,693,j,0,0,265,284160,2467938
6,18,female,Belg,4,112,ITC,win,10,right,1,ITC_wait,0,undefined,0,0,265,274148,2477950
6,18,female,Belg,4,112,ITC,win,10,right,1,ITC_collect,530,k,0,0,265,273615,2478483
6,18,female,Belg,4,112,ITC,win,10,right,1,ITC_outcome,0,undefined,0,0,285,272601,2479497
6,18,female,Belg,4,113,guess,win,5,right,15,guess_start,622,space,0,0,285,271976,2480122
6,18,female,Belg,4,113,guess,win,5,right,15,guess_choice,533,j,0,0,285,271438,2480660
6,18,female,Belg,4,113,guess,win,5,right,15,guess_outcome,0,undefined,0,0,305,269881,2482217
6,18,female,Belg,4,113,ITC,win,5,right,15,ITC_start,854,space,0,0,305,269025,2483073
6,18,female,Belg,4,113,ITC,win,5,right,15,ITC_choice,624,j,0,0,305,268398,2483700
6,18,female,Belg,4,113,ITC,win,5,right,15,ITC_wait,0,undefined,0,0,305,263381,2488717
6,18,female,Belg,4,113,ITC,win,5,right,15,ITC_collect,1031,k,0,0,305,262347,2489751
6,18,female,Belg,4,113,ITC,win,5,right,15,ITC_outcome,0,undefined,0,0,325,261331,2490767
6,18,female,Belg,4,114,guess,neutral,5,left,1,guess_start,276,space,0,0,325,261052,2491046
6,18,female,Belg,4,114,guess,neutral,5,left,1,guess_choice,1413,f,0,0,325,259636,2492462
6,18,female,Belg,4,114,guess,neutral,5,left,1,guess_outcome,0,undefined,0,0,325,258076,2494022
6,18,female,Belg,4,114,ITC,neutral,5,left,1,ITC_start,559,space,0,0,325,257515,2494583
6,18,female,Belg,4,114,ITC,neutral,5,left,1,ITC_choice,1057,f,0,0,325,256455,2495643
6,18,female,Belg,4,114,ITC,neutral,5,left,1,ITC_wait,0,undefined,0,0,325,251447,2500651
6,18,female,Belg,4,114,ITC,neutral,5,left,1,ITC_collect,890,k,0,0,325,250555,2501543
6,18,female,Belg,4,114,ITC,neutral,5,left,1,ITC_outcome,0,undefined,0,0,345,249549,2502549
6,18,female,Belg,4,115,guess,neutral,5,right,3,guess_start,1070,space,0,0,345,248476,2503622
6,18,female,Belg,4,115,guess,neutral,5,right,3,guess_choice,621,j,0,0,345,247850,2504248
6,18,female,Belg,4,115,guess,neutral,5,right,3,guess_outcome,0,undefined,0,0,345,246294,2505804
6,18,female,Belg,4,115,ITC,neutral,5,right,3,ITC_start,725,space,0,0,345,245567,2506531
6,18,female,Belg,4,115,ITC,neutral,5,right,3,ITC_choice,996,j,0,0,345,244567,2507531
6,18,female,Belg,4,115,ITC,neutral,5,right,3,ITC_wait,0,undefined,0,0,345,239559,2512539
6,18,female,Belg,4,115,ITC,neutral,5,right,3,ITC_collect,924,k,0,0,345,238632,2513466
6,18,female,Belg,4,115,ITC,neutral,5,right,3,ITC_outcome,0,undefined,0,0,365,237628,2514470
6,18,female,Belg,4,116,guess,neutral,10,right,7,guess_start,846,space,0,0,365,236779,2515319
6,18,female,Belg,4,116,guess,neutral,10,right,7,guess_choice,1011,f,0,0,365,235763,2516335
6,18,female,Belg,4,116,guess,neutral,10,right,7,guess_outcome,0,undefined,0,0,365,234200,2517898
6,18,female,Belg,4,116,ITC,neutral,10,right,7,ITC_start,628,space,0,0,365,233570,2518528
6,18,female,Belg,4,116,ITC,neutral,10,right,7,ITC_choice,647,j,0,0,365,232920,2519178
6,18,female,Belg,4,116,ITC,neutral,10,right,7,ITC_wait,0,undefined,0,0,365,222914,2529184
6,18,female,Belg,4,116,ITC,neutral,10,right,7,ITC_collect,402,k,0,0,365,222508,2529590
6,18,female,Belg,4,116,ITC,neutral,10,right,7,ITC_outcome,0,undefined,0,0,385,221493,2530605
6,18,female,Belg,4,117,guess,win,10,left,6,guess_start,1847,space,0,0,385,219644,2532454
6,18,female,Belg,4,117,guess,win,10,left,6,guess_choice,630,j,0,0,385,219009,2533089
6,18,female,Belg,4,117,guess,win,10,left,6,guess_outcome,0,undefined,0,0,405,217442,2534656
6,18,female,Belg,4,117,ITC,win,10,left,6,ITC_start,557,space,0,0,405,216883,2535215
6,18,female,Belg,4,117,ITC,win,10,left,6,ITC_choice,1354,f,0,0,405,215527,2536571
6,18,female,Belg,4,117,ITC,win,10,left,6,ITC_wait,0,undefined,0,0,405,205518,2546580
6,18,female,Belg,4,117,ITC,win,10,left,6,ITC_collect,679,k,0,0,405,204836,2547262
6,18,female,Belg,4,117,ITC,win,10,left,6,ITC_outcome,0,undefined,0,0,425,203831,2548267
6,18,female,Belg,4,118,guess,neutral,5,right,8,guess_start,788,space,0,0,425,203041,2549057
6,18,female,Belg,4,118,guess,neutral,5,right,8,guess_choice,1160,f,0,0,425,201876,2550222
6,18,female,Belg,4,118,guess,neutral,5,right,8,guess_outcome,0,undefined,0,0,425,200310,2551788
6,18,female,Belg,4,118,ITC,neutral,5,right,8,ITC_start,617,space,0,0,425,199691,2552407
6,18,female,Belg,4,118,ITC,neutral,5,right,8,ITC_choice,2790,j,0,0,425,196899,2555199
6,18,female,Belg,4,118,ITC,neutral,5,right,8,ITC_wait,0,undefined,0,0,425,191888,2560210
6,18,female,Belg,4,118,ITC,neutral,5,right,8,ITC_collect,400,k,0,0,425,191485,2560613
6,18,female,Belg,4,118,ITC,neutral,5,right,8,ITC_outcome,0,undefined,0,0,445,190470,2561628
6,18,female,Belg,4,119,guess,win,5,left,11,guess_start,756,space,0,0,445,189712,2562386
6,18,female,Belg,4,119,guess,win,5,left,11,guess_choice,686,j,0,0,445,189020,2563078
6,18,female,Belg,4,119,guess,win,5,left,11,guess_outcome,0,undefined,0,0,465,187462,2564636
6,18,female,Belg,4,119,ITC,win,5,left,11,ITC_start,505,space,0,0,465,186954,2565144
6,18,female,Belg,4,119,ITC,win,5,left,11,ITC_choice,887,f,0,0,465,186065,2566033
6,18,female,Belg,4,119,ITC,win,5,left,11,ITC_wait,0,undefined,0,0,465,181060,2571038
6,18,female,Belg,4,119,ITC,win,5,left,11,ITC_collect,1558,k,0,0,465,179499,2572599
6,18,female,Belg,4,119,ITC,win,5,left,11,ITC_outcome,0,undefined,0,0,485,178494,2573604
6,18,female,Belg,4,120,guess,loss,5,left,3,guess_start,249,space,0,0,485,178241,2573857
6,18,female,Belg,4,120,guess,loss,5,left,3,guess_choice,861,j,0,0,485,177375,2574723
6,18,female,Belg,4,120,guess,loss,5,left,3,guess_outcome,0,undefined,0,0,470,175806,2576292
6,18,female,Belg,4,120,ITC,loss,5,left,3,ITC_start,706,space,0,0,470,175098,2577000
6,18,female,Belg,4,120,ITC,loss,5,left,3,ITC_choice,865,f,0,0,470,174230,2577868
6,18,female,Belg,4,120,ITC,loss,5,left,3,ITC_wait,0,undefined,0,0,470,169224,2582874
6,18,female,Belg,4,120,ITC,loss,5,left,3,ITC_collect,1459,k,0,0,470,167763,2584335
6,18,female,Belg,4,120,ITC,loss,5,left,3,ITC_outcome,0,undefined,0,0,490,166751,2585347
6,18,female,Belg,4,121,guess,win,5,left,13,guess_start,316,space,0,0,490,166431,2585667
6,18,female,Belg,4,121,guess,win,5,left,13,guess_choice,458,f,0,0,490,165967,2586131
6,18,female,Belg,4,121,guess,win,5,left,13,guess_outcome,0,undefined,0,0,510,164405,2587693
6,18,female,Belg,4,121,ITC,win,5,left,13,ITC_start,656,space,0,0,510,163748,2588350
6,18,female,Belg,4,121,ITC,win,5,left,13,ITC_choice,777,f,0,0,510,162968,2589130
6,18,female,Belg,4,121,ITC,win,5,left,13,ITC_wait,0,undefined,0,0,510,157964,2594134
6,18,female,Belg,4,121,ITC,win,5,left,13,ITC_collect,1183,k,0,0,510,156778,2595320
6,18,female,Belg,4,121,ITC,win,5,left,13,ITC_outcome,0,undefined,0,0,530,155770,2596328
6,18,female,Belg,4,122,guess,win,5,left,9,guess_start,336,space,0,0,530,155431,2596667
6,18,female,Belg,4,122,guess,win,5,left,9,guess_choice,1584,j,0,0,530,153841,2598257
6,18,female,Belg,4,122,guess,win,5,left,9,guess_outcome,0,undefined,0,0,550,152280,2599818
6,18,female,Belg,4,122,ITC,win,5,left,9,ITC_start,706,space,0,0,550,151571,2600527
6,18,female,Belg,4,122,ITC,win,5,left,9,ITC_choice,1384,f,0,0,550,150185,2601913
6,18,female,Belg,4,122,ITC,win,5,left,9,ITC_wait,0,undefined,0,0,550,145173,2606925
6,18,female,Belg,4,122,ITC,win,5,left,9,ITC_collect,1091,k,0,0,550,144080,2608018
6,18,female,Belg,4,122,ITC,win,5,left,9,ITC_outcome,0,undefined,0,0,570,143069,2609029
6,18,female,Belg,4,123,guess,win,5,left,1,guess_start,649,space,0,0,570,142415,2609683
6,18,female,Belg,4,123,guess,win,5,left,1,guess_choice,1862,j,0,0,570,140548,2611550
6,18,female,Belg,4,123,guess,win,5,left,1,guess_outcome,0,undefined,0,0,590,138989,2613109
6,18,female,Belg,4,123,ITC,win,5,left,1,ITC_start,823,space,0,0,590,138164,2613934
6,18,female,Belg,4,123,ITC,win,5,left,1,ITC_choice,1007,f,0,0,590,137154,2614944
6,18,female,Belg,4,123,ITC,win,5,left,1,ITC_wait,0,undefined,0,0,590,132136,2619962
6,18,female,Belg,4,123,ITC,win,5,left,1,ITC_collect,1678,k,0,0,590,130456,2621642
6,18,female,Belg,4,123,ITC,win,5,left,1,ITC_outcome,0,undefined,0,0,610,129439,2622659
6,18,female,Belg,4,124,guess,neutral,10,right,1,guess_start,625,space,0,0,610,128811,2623287
6,18,female,Belg,4,124,guess,neutral,10,right,1,guess_choice,768,f,0,0,610,128038,2624060
6,18,female,Belg,4,124,guess,neutral,10,right,1,guess_outcome,0,undefined,0,0,610,126473,2625625
6,18,female,Belg,4,124,ITC,neutral,10,right,1,ITC_start,698,space,0,0,610,125772,2626326
6,18,female,Belg,4,124,ITC,neutral,10,right,1,ITC_choice,1014,j,0,0,610,124755,2627343
6,18,female,Belg,4,124,ITC,neutral,10,right,1,ITC_wait,0,undefined,0,0,610,114738,2637360
6,18,female,Belg,4,124,ITC,neutral,10,right,1,ITC_collect,872,k,0,0,610,113863,2638235
6,18,female,Belg,4,124,ITC,neutral,10,right,1,ITC_outcome,0,undefined,0,0,630,112848,2639250
6,18,female,Belg,4,125,guess,neutral,10,right,4,guess_start,1259,space,0,0,630,111586,2640512
6,18,female,Belg,4,125,guess,neutral,10,right,4,guess_choice,853,j,0,0,630,110728,2641370
6,18,female,Belg,4,125,guess,neutral,10,right,4,guess_outcome,0,undefined,0,0,630,109159,2642939
6,18,female,Belg,4,125,ITC,neutral,10,right,4,ITC_start,433,space,0,0,630,108724,2643374
6,18,female,Belg,4,125,ITC,neutral,10,right,4,ITC_choice,743,j,0,0,630,107979,2644119
6,18,female,Belg,4,125,ITC,neutral,10,right,4,ITC_wait,0,undefined,0,0,630,97970,2654128
6,18,female,Belg,4,125,ITC,neutral,10,right,4,ITC_collect,620,k,0,0,630,97347,2654751
6,18,female,Belg,4,125,ITC,neutral,10,right,4,ITC_outcome,0,undefined,0,0,650,96342,2655756
6,18,female,Belg,4,126,guess,win,5,left,5,guess_start,1277,space,0,0,650,95062,2657036
6,18,female,Belg,4,126,guess,win,5,left,5,guess_choice,1097,j,0,0,650,93960,2658138
6,18,female,Belg,4,126,guess,win,5,left,5,guess_outcome,0,undefined,0,0,670,92402,2659696
6,18,female,Belg,4,126,ITC,win,5,left,5,ITC_start,4590,space,0,0,670,87810,2664288
6,18,female,Belg,4,126,ITC,win,5,left,5,ITC_choice,1056,f,0,0,670,86751,2665347
6,18,female,Belg,4,126,ITC,win,5,left,5,ITC_wait,0,undefined,0,0,670,81734,2670364
6,18,female,Belg,4,126,ITC,win,5,left,5,ITC_collect,2234,k,0,0,670,79495,2672603
6,18,female,Belg,4,126,ITC,win,5,left,5,ITC_outcome,0,undefined,0,0,690,78482,2673616
6,18,female,Belg,4,127,guess,loss,10,right,8,guess_start,1562,space,0,0,690,76918,2675180
6,18,female,Belg,4,127,guess,loss,10,right,8,guess_choice,762,j,0,0,690,76151,2675947
6,18,female,Belg,4,127,guess,loss,10,right,8,guess_outcome,0,undefined,0,0,675,74590,2677508
6,18,female,Belg,4,127,ITC,loss,10,right,8,ITC_start,997,space,0,0,675,73591,2678507
6,18,female,Belg,4,127,ITC,loss,10,right,8,ITC_choice,647,j,0,0,675,72941,2679157
6,18,female,Belg,4,127,ITC,loss,10,right,8,ITC_wait,0,undefined,0,0,675,62929,2689169
6,18,female,Belg,4,127,ITC,loss,10,right,8,ITC_collect,309,k,0,0,675,62617,2689481
6,18,female,Belg,4,127,ITC,loss,10,right,8,ITC_outcome,0,undefined,0,0,695,61600,2690498
6,18,female,Belg,4,128,guess,loss,10,left,1,guess_start,363,space,0,0,695,61234,2690864
6,18,female,Belg,4,128,guess,loss,10,left,1,guess_choice,751,f,0,0,695,60478,2691620
6,18,female,Belg,4,128,guess,loss,10,left,1,guess_outcome,0,undefined,0,0,680,58912,2693186
6,18,female,Belg,4,128,ITC,loss,10,left,1,ITC_start,1390,space,0,0,680,57520,2694578
6,18,female,Belg,4,128,ITC,loss,10,left,1,ITC_choice,746,f,0,0,680,56772,2695326
6,18,female,Belg,4,128,ITC,loss,10,left,1,ITC_wait,0,undefined,0,0,680,46759,2705339
6,18,female,Belg,4,128,ITC,loss,10,left,1,ITC_collect,357,k,0,0,680,46399,2705699
6,18,female,Belg,4,128,ITC,loss,10,left,1,ITC_outcome,0,undefined,0,0,700,45382,2706716
6,18,female,Belg,4,129,guess,win,5,left,2,guess_start,409,space,0,0,700,44970,2707128
6,18,female,Belg,4,129,guess,win,5,left,2,guess_choice,948,j,0,0,700,44016,2708082
6,18,female,Belg,4,129,guess,win,5,left,2,guess_outcome,0,undefined,0,0,720,42447,2709651
6,18,female,Belg,4,129,ITC,win,5,left,2,ITC_start,592,space,0,0,720,41852,2710246
6,18,female,Belg,4,129,ITC,win,5,left,2,ITC_choice,859,f,0,0,720,40990,2711108
6,18,female,Belg,4,129,ITC,win,5,left,2,ITC_wait,0,undefined,0,0,720,35973,2716125
6,18,female,Belg,4,129,ITC,win,5,left,2,ITC_collect,787,k,0,0,720,35183,2716915
6,18,female,Belg,4,129,ITC,win,5,left,2,ITC_outcome,0,undefined,0,0,740,34165,2717933
6,18,female,Belg,4,130,guess,neutral,5,right,15,guess_start,773,space,0,0,740,33389,2718709
6,18,female,Belg,4,130,guess,neutral,5,right,15,guess_choice,848,f,0,0,740,32535,2719563
6,18,female,Belg,4,130,guess,neutral,5,right,15,guess_outcome,0,undefined,0,0,740,30970,2721128
6,18,female,Belg,4,130,ITC,neutral,5,right,15,ITC_start,1950,space,0,0,740,29018,2723080
6,18,female,Belg,4,130,ITC,neutral,5,right,15,ITC_choice,721,j,0,0,740,28295,2723803
6,18,female,Belg,4,130,ITC,neutral,5,right,15,ITC_wait,0,undefined,0,0,740,23290,2728808
6,18,female,Belg,4,130,ITC,neutral,5,right,15,ITC_collect,596,k,0,0,740,22691,2729407
6,18,female,Belg,4,130,ITC,neutral,5,right,15,ITC_outcome,0,undefined,0,0,760,21683,2730415
6,18,female,Belg,4,131,guess,neutral,5,left,13,guess_start,555,space,0,0,760,21126,2730972
6,18,female,Belg,4,131,guess,neutral,5,left,13,guess_choice,829,f,0,0,760,20294,2731804
6,18,female,Belg,4,131,guess,neutral,5,left,13,guess_outcome,0,undefined,0,0,760,18731,2733367
6,18,female,Belg,4,131,ITC,neutral,5,left,13,ITC_start,684,space,0,0,760,18045,2734053
6,18,female,Belg,4,131,ITC,neutral,5,left,13,ITC_choice,565,f,0,0,760,17478,2734620
6,18,female,Belg,4,131,ITC,neutral,5,left,13,ITC_wait,0,undefined,0,0,760,12470,2739628
6,18,female,Belg,4,131,ITC,neutral,5,left,13,ITC_collect,1471,k,0,0,760,10997,2741101
6,18,female,Belg,4,131,ITC,neutral,5,left,13,ITC_outcome,0,undefined,0,0,780,9980,2742118
6,18,female,Belg,4,132,guess,neutral,10,left,6,guess_start,523,space,0,0,780,9454,2742644
6,18,female,Belg,4,132,guess,neutral,10,left,6,guess_choice,637,j,0,0,780,8812,2743286
6,18,female,Belg,4,132,guess,neutral,10,left,6,guess_outcome,0,undefined,0,0,780,7251,2744847
6,18,female,Belg,4,132,ITC,neutral,10,left,6,ITC_start,1124,space,0,0,780,6125,2745973
6,18,female,Belg,4,132,ITC,neutral,10,left,6,ITC_choice,705,f,0,0,780,5418,2746680
6,18,female,Belg,4,132,ITC,neutral,10,left,6,ITC_wait,0,undefined,0,0,780,-5,2752103
6,18,female,Belg,5,133,guess,neutral,10,right,3,guess_start,473,space,0,0,0,479526,2953679
6,18,female,Belg,5,133,guess,neutral,10,right,3,guess_choice,1160,f,0,0,0,478361,2954844
6,18,female,Belg,5,133,guess,neutral,10,right,3,guess_outcome,0,undefined,0,0,0,476800,2956405
6,18,female,Belg,5,133,ITC,neutral,10,right,3,ITC_start,612,space,0,0,0,476186,2957019
6,18,female,Belg,5,133,ITC,neutral,10,right,3,ITC_choice,562,j,0,0,0,475622,2957583
6,18,female,Belg,5,133,ITC,neutral,10,right,3,ITC_wait,0,undefined,0,0,0,465603,2967602
6,18,female,Belg,5,133,ITC,neutral,10,right,3,ITC_collect,795,k,0,0,0,464805,2968400
6,18,female,Belg,5,133,ITC,neutral,10,right,3,ITC_outcome,0,undefined,0,0,20,463790,2969415
6,18,female,Belg,5,134,guess,loss,5,right,5,guess_start,264,space,0,0,20,463523,2969682
6,18,female,Belg,5,134,guess,loss,5,right,5,guess_choice,356,f,0,0,20,463162,2970043
6,18,female,Belg,5,134,guess,loss,5,right,5,guess_outcome,0,undefined,0,0,5,461599,2971606
6,18,female,Belg,5,134,ITC,loss,5,right,5,ITC_start,628,space,0,0,5,460969,2972236
6,18,female,Belg,5,134,ITC,loss,5,right,5,ITC_choice,393,j,0,0,5,460574,2972631
6,18,female,Belg,5,134,ITC,loss,5,right,5,ITC_wait,0,undefined,0,0,5,455567,2977638
6,18,female,Belg,5,134,ITC,loss,5,right,5,ITC_collect,387,k,0,0,5,455177,2978028
6,18,female,Belg,5,134,ITC,loss,5,right,5,ITC_outcome,0,undefined,0,0,25,454162,2979043
6,18,female,Belg,5,135,guess,loss,10,right,2,guess_start,583,space,0,0,25,453576,2979629
6,18,female,Belg,5,135,guess,loss,10,right,2,guess_choice,669,j,0,0,25,452902,2980303
6,18,female,Belg,5,135,guess,loss,10,right,2,guess_outcome,0,undefined,0,0,10,451341,2981864
6,18,female,Belg,5,135,ITC,loss,10,right,2,ITC_start,959,space,0,0,10,450380,2982825
6,18,female,Belg,5,135,ITC,loss,10,right,2,ITC_choice,694,j,0,0,10,449683,2983522
6,18,female,Belg,5,135,ITC,loss,10,right,2,ITC_wait,0,undefined,0,0,10,439666,2993539
6,18,female,Belg,5,135,ITC,loss,10,right,2,ITC_collect,392,k,0,0,10,439272,2993933
6,18,female,Belg,5,135,ITC,loss,10,right,2,ITC_outcome,0,undefined,0,0,30,438260,2994945
6,18,female,Belg,5,136,guess,neutral,10,left,5,guess_start,357,space,0,0,30,437900,2995305
6,18,female,Belg,5,136,guess,neutral,10,left,5,guess_choice,857,f,0,0,30,437038,2996167
6,18,female,Belg,5,136,guess,neutral,10,left,5,guess_outcome,0,undefined,0,0,30,435478,2997727
6,18,female,Belg,5,136,ITC,neutral,10,left,5,ITC_start,809,space,0,0,30,434666,2998539
6,18,female,Belg,5,136,ITC,neutral,10,left,5,ITC_choice,762,f,0,0,30,433902,2999303
6,18,female,Belg,5,136,ITC,neutral,10,left,5,ITC_wait,0,undefined,0,0,30,423892,3009313
6,18,female,Belg,5,136,ITC,neutral,10,left,5,ITC_collect,530,k,0,0,30,423360,3009845
6,18,female,Belg,5,136,ITC,neutral,10,left,5,ITC_outcome,0,undefined,0,0,50,422345,3010860
6,18,female,Belg,5,137,guess,win,5,left,8,guess_start,583,space,0,0,50,421759,3011446
6,18,female,Belg,5,137,guess,win,5,left,8,guess_choice,830,j,0,0,50,420923,3012282
6,18,female,Belg,5,137,guess,win,5,left,8,guess_outcome,0,undefined,0,0,70,419354,3013851
6,18,female,Belg,5,137,ITC,win,5,left,8,ITC_start,426,space,0,0,70,418926,3014279
6,18,female,Belg,5,137,ITC,win,5,left,8,ITC_choice,512,f,0,0,70,418412,3014793
6,18,female,Belg,5,137,ITC,win,5,left,8,ITC_wait,0,undefined,0,0,70,413400,3019805
6,18,female,Belg,5,137,ITC,win,5,left,8,ITC_collect,767,k,0,0,70,412630,3020575
6,18,female,Belg,5,137,ITC,win,5,left,8,ITC_outcome,0,undefined,0,0,90,411625,3021580
6,18,female,Belg,5,138,guess,neutral,5,left,6,guess_start,513,space,0,0,90,411110,3022095
6,18,female,Belg,5,138,guess,neutral,5,left,6,guess_choice,746,j,0,0,90,410359,3022846
6,18,female,Belg,5,138,guess,neutral,5,left,6,guess_outcome,0,undefined,0,0,90,408800,3024405
6,18,female,Belg,5,138,ITC,neutral,5,left,6,ITC_start,625,space,0,0,90,408173,3025032
6,18,female,Belg,5,138,ITC,neutral,5,left,6,ITC_choice,566,f,0,0,90,407604,3025601
6,18,female,Belg,5,138,ITC,neutral,5,left,6,ITC_wait,0,undefined,0,0,90,402596,3030609
6,18,female,Belg,5,138,ITC,neutral,5,left,6,ITC_collect,682,k,0,0,90,401911,3031294
6,18,female,Belg,5,138,ITC,neutral,5,left,6,ITC_outcome,0,undefined,0,0,110,400894,3032311
6,18,female,Belg,5,139,guess,win,10,left,7,guess_start,781,space,0,0,110,400110,3033095
6,18,female,Belg,5,139,guess,win,10,left,7,guess_choice,557,j,0,0,110,399548,3033657
6,18,female,Belg,5,139,guess,win,10,left,7,guess_outcome,0,undefined,0,0,130,397977,3035228
6,18,female,Belg,5,139,ITC,win,10,left,7,ITC_start,1967,space,0,0,130,396008,3037197
6,18,female,Belg,5,139,ITC,win,10,left,7,ITC_choice,541,f,0,0,130,395464,3037741
6,18,female,Belg,5,139,ITC,win,10,left,7,ITC_wait,0,undefined,0,0,130,385456,3047749
6,18,female,Belg,5,139,ITC,win,10,left,7,ITC_collect,341,k,0,0,130,385112,3048093
6,18,female,Belg,5,139,ITC,win,10,left,7,ITC_outcome,0,undefined,0,0,150,384097,3049108
6,18,female,Belg,5,140,guess,neutral,5,right,10,guess_start,1090,space,0,0,150,383004,3050201
6,18,female,Belg,5,140,guess,neutral,5,right,10,guess_choice,845,f,0,0,150,382154,3051051
6,18,female,Belg,5,140,guess,neutral,5,right,10,guess_outcome,0,undefined,0,0,150,380586,3052619
6,18,female,Belg,5,140,ITC,neutral,5,right,10,ITC_start,623,space,0,0,150,379961,3053244
6,18,female,Belg,5,140,ITC,neutral,5,right,10,ITC_choice,923,j,0,0,150,379035,3054170
6,18,female,Belg,5,140,ITC,neutral,5,right,10,ITC_wait,0,undefined,0,0,150,374021,3059184
6,18,female,Belg,5,140,ITC,neutral,5,right,10,ITC_collect,2607,k,0,0,150,371411,3061794
6,18,female,Belg,5,140,ITC,neutral,5,right,10,ITC_outcome,0,undefined,0,0,170,370405,3062800
6,18,female,Belg,5,141,guess,neutral,5,right,12,guess_start,478,space,0,0,170,369924,3063281
6,18,female,Belg,5,141,guess,neutral,5,right,12,guess_choice,973,f,0,0,170,368945,3064260
6,18,female,Belg,5,141,guess,neutral,5,right,12,guess_outcome,0,undefined,0,0,170,367380,3065825
6,18,female,Belg,5,141,ITC,neutral,5,right,12,ITC_start,569,space,0,0,170,366809,3066396
6,18,female,Belg,5,141,ITC,neutral,5,right,12,ITC_choice,555,f,0,0,170,366251,3066954
6,18,female,Belg,5,141,ITC,neutral,5,right,12,ITC_wait,0,undefined,0,0,170,366247,3066958
6,18,female,Belg,5,141,ITC,neutral,5,right,12,ITC_collect,1185,k,0,0,170,365060,3068145
6,18,female,Belg,5,141,ITC,neutral,5,right,12,ITC_outcome,0,undefined,0,0,182,364043,3069162
6,18,female,Belg,5,142,guess,neutral,10,right,8,guess_start,698,space,0,0,182,363342,3069863
6,18,female,Belg,5,142,guess,neutral,10,right,8,guess_choice,749,f,0,0,182,362588,3070617
6,18,female,Belg,5,142,guess,neutral,10,right,8,guess_outcome,0,undefined,0,0,182,361027,3072178
6,18,female,Belg,5,142,ITC,neutral,10,right,8,ITC_start,481,space,0,0,182,360543,3072662
6,18,female,Belg,5,142,ITC,neutral,10,right,8,ITC_choice,606,f,0,0,182,359935,3073270
6,18,female,Belg,5,142,ITC,neutral,10,right,8,ITC_wait,0,undefined,0,0,182,359931,3073274
6,18,female,Belg,5,142,ITC,neutral,10,right,8,ITC_collect,853,k,0,0,182,359075,3074130
6,18,female,Belg,5,142,ITC,neutral,10,right,8,ITC_outcome,0,undefined,0,0,190,358062,3075143
6,18,female,Belg,5,143,guess,win,10,left,5,guess_start,456,space,0,0,190,357603,3075602
6,18,female,Belg,5,143,guess,win,10,left,5,guess_choice,1316,j,0,0,190,356283,3076922
6,18,female,Belg,5,143,guess,win,10,left,5,guess_outcome,0,undefined,0,0,210,354716,3078489
6,18,female,Belg,5,143,ITC,win,10,left,5,ITC_start,482,space,0,0,210,354231,3078974
6,18,female,Belg,5,143,ITC,win,10,left,5,ITC_choice,1262,j,0,0,210,352967,3080238
6,18,female,Belg,5,143,ITC,win,10,left,5,ITC_wait,0,undefined,0,0,210,352963,3080242
6,18,female,Belg,5,143,ITC,win,10,left,5,ITC_collect,3027,k,0,0,210,349934,3083271
6,18,female,Belg,5,143,ITC,win,10,left,5,ITC_outcome,0,undefined,0,0,215,348916,3084289
6,18,female,Belg,5,144,guess,loss,5,right,12,guess_start,325,space,0,0,215,348588,3084617
6,18,female,Belg,5,144,guess,loss,5,right,12,guess_choice,1192,j,0,0,215,347390,3085815
6,18,female,Belg,5,144,guess,loss,5,right,12,guess_outcome,0,undefined,0,0,200,345824,3087381
6,18,female,Belg,5,144,ITC,loss,5,right,12,ITC_start,568,space,0,0,200,345254,3087951
6,18,female,Belg,5,144,ITC,loss,5,right,12,ITC_choice,868,f,0,0,200,344383,3088822
6,18,female,Belg,5,144,ITC,loss,5,right,12,ITC_wait,0,undefined,0,0,200,344379,3088826
6,18,female,Belg,5,144,ITC,loss,5,right,12,ITC_collect,724,k,0,0,200,343654,3089551
6,18,female,Belg,5,144,ITC,loss,5,right,12,ITC_outcome,0,undefined,0,0,212,342646,3090559
6,18,female,Belg,5,145,guess,win,10,right,1,guess_start,276,space,0,0,212,342367,3090838
6,18,female,Belg,5,145,guess,win,10,right,1,guess_choice,771,f,0,0,212,341591,3091614
6,18,female,Belg,5,145,guess,win,10,right,1,guess_outcome,0,undefined,0,0,232,340022,3093183
6,18,female,Belg,5,145,ITC,win,10,right,1,ITC_start,1225,space,0,0,232,338795,3094410
6,18,female,Belg,5,145,ITC,win,10,right,1,ITC_choice,758,f,0,0,232,338034,3095171
6,18,female,Belg,5,145,ITC,win,10,right,1,ITC_wait,0,undefined,0,0,232,338030,3095175
6,18,female,Belg,5,145,ITC,win,10,right,1,ITC_collect,1173,k,0,0,232,336856,3096349
6,18,female,Belg,5,145,ITC,win,10,right,1,ITC_outcome,0,undefined,0,0,233,335838,3097367
6,18,female,Belg,5,146,guess,neutral,10,left,7,guess_start,618,space,0,0,233,335217,3097988
6,18,female,Belg,5,146,guess,neutral,10,left,7,guess_choice,571,j,0,0,233,334640,3098565
6,18,female,Belg,5,146,guess,neutral,10,left,7,guess_outcome,0,undefined,0,0,233,333070,3100135
6,18,female,Belg,5,146,ITC,neutral,10,left,7,ITC_start,680,space,0,0,233,332388,3100817
6,18,female,Belg,5,146,ITC,neutral,10,left,7,ITC_choice,924,j,0,0,233,331461,3101744
6,18,female,Belg,5,146,ITC,neutral,10,left,7,ITC_wait,0,undefined,0,0,233,331457,3101748
