subjectID,age,gender,nationality,block_number,trial_number,trial_type,guess_outcome,delay_time,delay_pos,immediate_amount,stage,respRT,respKey,blur_count,focus_count,total_points,remaining_duration,time_elapsed
34,18,female,Belg,1,1,guess,loss,10,right,6,guess_start,2392,space,0,0,0,477607,311939
34,18,female,Belg,1,1,guess,loss,10,right,6,guess_choice,1106,j,0,0,0,476496,313050
34,18,female,Belg,1,1,guess,loss,10,right,6,guess_outcome,0,undefined,0,0,-15,474928,314618
34,18,female,Belg,1,1,ITC,loss,10,right,6,ITC_start,2552,space,0,0,-15,472374,317172
34,18,female,Belg,1,1,ITC,loss,10,right,6,ITC_choice,1540,j,0,0,-15,470832,318714
34,18,female,Belg,1,1,ITC,loss,10,right,6,ITC_wait,0,undefined,0,0,-15,460819,328727
34,18,female,Belg,1,1,ITC,loss,10,right,6,ITC_collect,284,k,0,0,-15,460532,329014
34,18,female,Belg,1,1,ITC,loss,10,right,6,ITC_outcome,0,undefined,0,0,5,459510,330036
34,18,female,Belg,1,2,guess,loss,10,left,5,guess_start,1881,space,0,0,5,457625,331921
34,18,female,Belg,1,2,guess,loss,10,left,5,guess_choice,652,f,0,0,5,456968,332578
34,18,female,Belg,1,2,guess,loss,10,left,5,guess_outcome,0,undefined,0,0,-10,455400,334146
34,18,female,Belg,1,2,ITC,loss,10,left,5,ITC_start,1712,space,0,0,-10,453686,335860
34,18,female,Belg,1,2,ITC,loss,10,left,5,ITC_choice,1658,f,0,0,-10,452025,337521
34,18,female,Belg,1,2,ITC,loss,10,left,5,ITC_wait,0,undefined,0,0,-10,442021,347525
34,18,female,Belg,1,2,ITC,loss,10,left,5,ITC_collect,330,k,0,0,-10,441688,347858
34,18,female,Belg,1,2,ITC,loss,10,left,5,ITC_outcome,0,undefined,0,0,10,440672,348874
34,18,female,Belg,1,3,guess,win,5,right,3,guess_start,909,space,0,0,10,439760,349786
34,18,female,Belg,1,3,guess,win,5,right,3,guess_choice,910,j,0,0,10,438846,350700
34,18,female,Belg,1,3,guess,win,5,right,3,guess_outcome,0,undefined,0,0,30,437282,352264
34,18,female,Belg,1,3,ITC,win,5,right,3,ITC_start,672,space,0,0,30,436608,352938
34,18,female,Belg,1,3,ITC,win,5,right,3,ITC_choice,2189,j,0,0,30,434417,355129
34,18,female,Belg,1,3,ITC,win,5,right,3,ITC_wait,0,undefined,0,0,30,429402,360144
34,18,female,Belg,1,3,ITC,win,5,right,3,ITC_collect,304,k,0,0,30,429096,360450
34,18,female,Belg,1,3,ITC,win,5,right,3,ITC_outcome,0,undefined,0,0,50,428073,361473
34,18,female,Belg,1,4,guess,win,5,right,7,guess_start,709,space,0,0,50,427362,362184
34,18,female,Belg,1,4,guess,win,5,right,7,guess_choice,1608,j,0,0,50,425750,363796
34,18,female,Belg,1,4,guess,win,5,right,7,guess_outcome,0,undefined,0,0,70,424192,365354
34,18,female,Belg,1,4,ITC,win,5,right,7,ITC_start,1038,space,0,0,70,423152,366394
34,18,female,Belg,1,4,ITC,win,5,right,7,ITC_choice,1243,f,0,0,70,421907,367639
34,18,female,Belg,1,4,ITC,win,5,right,7,ITC_wait,0,undefined,0,0,70,421904,367642
34,18,female,Belg,1,4,ITC,win,5,right,7,ITC_collect,1590,k,0,0,70,420310,369236
34,18,female,Belg,1,4,ITC,win,5,right,7,ITC_outcome,0,undefined,0,0,77,419301,370245
34,18,female,Belg,1,5,guess,loss,10,right,7,guess_start,1699,space,0,0,77,417599,371947
34,18,female,Belg,1,5,guess,loss,10,right,7,guess_choice,1506,f,0,0,77,416090,373456
34,18,female,Belg,1,5,guess,loss,10,right,7,guess_outcome,0,undefined,0,0,62,414531,375015
34,18,female,Belg,1,5,ITC,loss,10,right,7,ITC_start,1036,space,0,0,62,413493,376053
34,18,female,Belg,1,5,ITC,loss,10,right,7,ITC_choice,1974,j,0,0,62,411516,378030
34,18,female,Belg,1,5,ITC,loss,10,right,7,ITC_wait,0,undefined,0,0,62,401503,388043
34,18,female,Belg,1,5,ITC,loss,10,right,7,ITC_collect,568,k,0,0,62,400933,388613
34,18,female,Belg,1,5,ITC,loss,10,right,7,ITC_outcome,0,undefined,0,0,82,399929,389617
34,18,female,Belg,1,6,guess,win,5,right,5,guess_start,1398,space,0,0,82,398529,391017
34,18,female,Belg,1,6,guess,win,5,right,5,guess_choice,1215,j,0,0,82,397310,392236
34,18,female,Belg,1,6,guess,win,5,right,5,guess_outcome,0,undefined,0,0,102,395739,393807
34,18,female,Belg,1,6,ITC,win,5,right,5,ITC_start,4516,space,0,0,102,391221,398325
34,18,female,Belg,1,6,ITC,win,5,right,5,ITC_choice,1943,j,0,0,102,389275,400271
34,18,female,Belg,1,6,ITC,win,5,right,5,ITC_wait,0,undefined,0,0,102,384263,405283
34,18,female,Belg,1,6,ITC,win,5,right,5,ITC_collect,237,k,0,0,102,384023,405523
34,18,female,Belg,1,6,ITC,win,5,right,5,ITC_outcome,0,undefined,0,0,122,383018,406528
34,18,female,Belg,1,7,guess,neutral,5,right,3,guess_start,630,space,0,0,122,382385,407161
34,18,female,Belg,1,7,guess,neutral,5,right,3,guess_choice,1099,j,0,0,122,381284,408262
34,18,female,Belg,1,7,guess,neutral,5,right,3,guess_outcome,0,undefined,0,0,122,379718,409828
34,18,female,Belg,1,7,ITC,neutral,5,right,3,ITC_start,1364,space,0,0,122,378352,411194
34,18,female,Belg,1,7,ITC,neutral,5,right,3,ITC_choice,1503,j,0,0,122,376847,412699
34,18,female,Belg,1,7,ITC,neutral,5,right,3,ITC_wait,0,undefined,0,0,122,371838,417708
34,18,female,Belg,1,7,ITC,neutral,5,right,3,ITC_collect,302,k,0,0,122,371534,418012
34,18,female,Belg,1,7,ITC,neutral,5,right,3,ITC_outcome,0,undefined,0,0,142,370518,419028
34,18,female,Belg,1,8,guess,neutral,5,left,7,guess_start,531,space,0,0,142,369984,419562
34,18,female,Belg,1,8,guess,neutral,5,left,7,guess_choice,811,f,0,0,142,369169,420377
34,18,female,Belg,1,8,guess,neutral,5,left,7,guess_outcome,0,undefined,0,0,142,367608,421938
34,18,female,Belg,1,8,ITC,neutral,5,left,7,ITC_start,155,space,0,0,142,367451,422095
34,18,female,Belg,1,8,ITC,neutral,5,left,7,ITC_choice,925,j,0,0,142,366523,423023
34,18,female,Belg,1,8,ITC,neutral,5,left,7,ITC_wait,0,undefined,0,0,142,366520,423026
34,18,female,Belg,1,8,ITC,neutral,5,left,7,ITC_collect,1129,k,0,0,142,365389,424157
34,18,female,Belg,1,8,ITC,neutral,5,left,7,ITC_outcome,0,undefined,0,0,149,364378,425168
34,18,female,Belg,1,9,guess,neutral,5,right,11,guess_start,461,space,0,0,149,363915,425631
34,18,female,Belg,1,9,guess,neutral,5,right,11,guess_choice,975,f,0,0,149,362936,426610
34,18,female,Belg,1,9,guess,neutral,5,right,11,guess_outcome,0,undefined,0,0,149,361378,428168
34,18,female,Belg,1,9,ITC,neutral,5,right,11,ITC_start,890,space,0,0,149,360487,429059
34,18,female,Belg,1,9,ITC,neutral,5,right,11,ITC_choice,1436,j,0,0,149,359049,430497
34,18,female,Belg,1,9,ITC,neutral,5,right,11,ITC_wait,0,undefined,0,0,149,354028,435518
34,18,female,Belg,1,9,ITC,neutral,5,right,11,ITC_collect,273,k,0,0,149,353753,435793
34,18,female,Belg,1,9,ITC,neutral,5,right,11,ITC_outcome,0,undefined,0,0,169,352748,436798
34,18,female,Belg,1,10,guess,neutral,5,left,14,guess_start,233,space,0,0,169,352513,437033
34,18,female,Belg,1,10,guess,neutral,5,left,14,guess_choice,1925,j,0,0,169,350584,438962
34,18,female,Belg,1,10,guess,neutral,5,left,14,guess_outcome,0,undefined,0,0,169,349028,440518
34,18,female,Belg,1,10,ITC,neutral,5,left,14,ITC_start,2597,space,0,0,169,346429,443117
34,18,female,Belg,1,10,ITC,neutral,5,left,14,ITC_choice,1101,j,0,0,169,345326,444220
34,18,female,Belg,1,10,ITC,neutral,5,left,14,ITC_wait,0,undefined,0,0,169,345323,444223
34,18,female,Belg,1,10,ITC,neutral,5,left,14,ITC_collect,2222,k,0,0,169,343099,446447
34,18,female,Belg,1,10,ITC,neutral,5,left,14,ITC_outcome,0,undefined,0,0,183,342088,447458
34,18,female,Belg,1,11,guess,win,10,left,1,guess_start,284,space,0,0,183,341802,447744
34,18,female,Belg,1,11,guess,win,10,left,1,guess_choice,1282,j,0,0,183,340516,449030
34,18,female,Belg,1,11,guess,win,10,left,1,guess_outcome,0,undefined,0,0,203,338958,450588
34,18,female,Belg,1,11,ITC,win,10,left,1,ITC_start,405,space,0,0,203,338551,450995
34,18,female,Belg,1,11,ITC,win,10,left,1,ITC_choice,884,j,0,0,203,337666,451880
34,18,female,Belg,1,11,ITC,win,10,left,1,ITC_wait,0,undefined,0,0,203,337663,451883
34,18,female,Belg,1,11,ITC,win,10,left,1,ITC_collect,1172,k,0,0,203,336489,453057
34,18,female,Belg,1,11,ITC,win,10,left,1,ITC_outcome,0,undefined,0,0,204,335468,454078
34,18,female,Belg,1,12,guess,loss,10,left,4,guess_start,895,space,0,0,204,334571,454975
34,18,female,Belg,1,12,guess,loss,10,left,4,guess_choice,953,f,0,0,204,333613,455933
34,18,female,Belg,1,12,guess,loss,10,left,4,guess_outcome,0,undefined,0,0,189,332048,457498
34,18,female,Belg,1,12,ITC,loss,10,left,4,ITC_start,739,space,0,0,189,331307,458239
34,18,female,Belg,1,12,ITC,loss,10,left,4,ITC_choice,1093,f,0,0,189,330211,459335
34,18,female,Belg,1,12,ITC,loss,10,left,4,ITC_wait,0,undefined,0,0,189,320201,469345
34,18,female,Belg,1,12,ITC,loss,10,left,4,ITC_collect,306,k,0,0,189,319894,469652
34,18,female,Belg,1,12,ITC,loss,10,left,4,ITC_outcome,0,undefined,0,0,209,318882,470664
34,18,female,Belg,1,13,guess,win,10,left,8,guess_start,946,space,0,0,209,317934,471612
34,18,female,Belg,1,13,guess,win,10,left,8,guess_choice,928,j,0,0,209,317003,472543
34,18,female,Belg,1,13,guess,win,10,left,8,guess_outcome,0,undefined,0,0,229,315432,474114
34,18,female,Belg,1,13,ITC,win,10,left,8,ITC_start,572,space,0,0,229,314859,474687
34,18,female,Belg,1,13,ITC,win,10,left,8,ITC_choice,844,j,0,0,229,314013,475533
34,18,female,Belg,1,13,ITC,win,10,left,8,ITC_wait,0,undefined,0,0,229,314010,475536
34,18,female,Belg,1,13,ITC,win,10,left,8,ITC_collect,1096,k,0,0,229,312912,476634
34,18,female,Belg,1,13,ITC,win,10,left,8,ITC_outcome,0,undefined,0,0,237,311903,477643
34,18,female,Belg,1,14,guess,win,5,right,1,guess_start,1074,space,0,0,237,310826,478720
34,18,female,Belg,1,14,guess,win,5,right,1,guess_choice,807,f,0,0,237,310015,479531
34,18,female,Belg,1,14,guess,win,5,right,1,guess_outcome,0,undefined,0,0,257,308442,481104
34,18,female,Belg,1,14,ITC,win,5,right,1,ITC_start,1355,space,0,0,257,307085,482461
34,18,female,Belg,1,14,ITC,win,5,right,1,ITC_choice,964,f,0,0,257,306118,483428
34,18,female,Belg,1,14,ITC,win,5,right,1,ITC_wait,0,undefined,0,0,257,306115,483431
34,18,female,Belg,1,14,ITC,win,5,right,1,ITC_collect,1250,k,0,0,257,304863,484683
34,18,female,Belg,1,14,ITC,win,5,right,1,ITC_outcome,0,undefined,0,0,258,303852,485694
34,18,female,Belg,1,15,guess,win,5,left,14,guess_start,618,space,0,0,258,303232,486314
34,18,female,Belg,1,15,guess,win,5,left,14,guess_choice,929,j,0,0,258,302299,487247
34,18,female,Belg,1,15,guess,win,5,left,14,guess_outcome,0,undefined,0,0,278,300732,488814
34,18,female,Belg,1,15,ITC,win,5,left,14,ITC_start,1148,space,0,0,278,299582,489964
34,18,female,Belg,1,15,ITC,win,5,left,14,ITC_choice,1888,f,0,0,278,297693,491853
34,18,female,Belg,1,15,ITC,win,5,left,14,ITC_wait,0,undefined,0,0,278,292673,496873
34,18,female,Belg,1,15,ITC,win,5,left,14,ITC_collect,289,k,0,0,278,292380,497166
34,18,female,Belg,1,15,ITC,win,5,left,14,ITC_outcome,0,undefined,0,0,298,291363,498183
34,18,female,Belg,1,16,guess,loss,5,left,2,guess_start,257,space,0,0,298,291104,498442
34,18,female,Belg,1,16,guess,loss,5,left,2,guess_choice,717,f,0,0,298,290383,499163
34,18,female,Belg,1,16,guess,loss,5,left,2,guess_outcome,0,undefined,0,0,283,288823,500723
34,18,female,Belg,1,16,ITC,loss,5,left,2,ITC_start,1023,space,0,0,283,287798,501748
34,18,female,Belg,1,16,ITC,loss,5,left,2,ITC_choice,1415,f,0,0,283,286381,503165
34,18,female,Belg,1,16,ITC,loss,5,left,2,ITC_wait,0,undefined,0,0,283,281373,508173
34,18,female,Belg,1,16,ITC,loss,5,left,2,ITC_collect,896,k,0,0,283,280475,509071
34,18,female,Belg,1,16,ITC,loss,5,left,2,ITC_outcome,0,undefined,0,0,303,279463,510083
34,18,female,Belg,1,17,guess,win,5,right,10,guess_start,407,space,0,0,303,279054,510492
34,18,female,Belg,1,17,guess,win,5,right,10,guess_choice,809,j,0,0,303,278241,511305
34,18,female,Belg,1,17,guess,win,5,right,10,guess_outcome,0,undefined,0,0,323,276682,512864
34,18,female,Belg,1,17,ITC,win,5,right,10,ITC_start,528,space,0,0,323,276153,513393
34,18,female,Belg,1,17,ITC,win,5,right,10,ITC_choice,836,j,0,0,323,275315,514231
34,18,female,Belg,1,17,ITC,win,5,right,10,ITC_wait,0,undefined,0,0,323,270292,519254
34,18,female,Belg,1,17,ITC,win,5,right,10,ITC_collect,311,k,0,0,323,269979,519567
34,18,female,Belg,1,17,ITC,win,5,right,10,ITC_outcome,0,undefined,0,0,343,268972,520574
34,18,female,Belg,1,18,guess,loss,5,right,12,guess_start,289,space,0,0,343,268681,520865
34,18,female,Belg,1,18,guess,loss,5,right,12,guess_choice,801,f,0,0,343,267876,521670
34,18,female,Belg,1,18,guess,loss,5,right,12,guess_outcome,0,undefined,0,0,328,266313,523233
34,18,female,Belg,1,18,ITC,loss,5,right,12,ITC_start,264,space,0,0,328,266047,523499
34,18,female,Belg,1,18,ITC,loss,5,right,12,ITC_choice,853,j,0,0,328,265191,524355
34,18,female,Belg,1,18,ITC,loss,5,right,12,ITC_wait,0,undefined,0,0,328,260183,529363
34,18,female,Belg,1,18,ITC,loss,5,right,12,ITC_collect,237,k,0,0,328,259944,529602
34,18,female,Belg,1,18,ITC,loss,5,right,12,ITC_outcome,0,undefined,0,0,348,258933,530613
34,18,female,Belg,1,19,guess,loss,5,left,6,guess_start,598,space,0,0,348,258332,531214
34,18,female,Belg,1,19,guess,loss,5,left,6,guess_choice,475,f,0,0,348,257852,531694
34,18,female,Belg,1,19,guess,loss,5,left,6,guess_outcome,0,undefined,0,0,333,256291,533255
34,18,female,Belg,1,19,ITC,loss,5,left,6,ITC_start,596,space,0,0,333,255694,533852
34,18,female,Belg,1,19,ITC,loss,5,left,6,ITC_choice,948,f,0,0,333,254743,534803
34,18,female,Belg,1,19,ITC,loss,5,left,6,ITC_wait,0,undefined,0,0,333,249723,539823
34,18,female,Belg,1,19,ITC,loss,5,left,6,ITC_collect,307,k,0,0,333,249413,540133
34,18,female,Belg,1,19,ITC,loss,5,left,6,ITC_outcome,0,undefined,0,0,353,248402,541144
34,18,female,Belg,1,20,guess,neutral,5,right,15,guess_start,729,space,0,0,353,247672,541874
34,18,female,Belg,1,20,guess,neutral,5,right,15,guess_choice,1761,j,0,0,353,245907,543639
34,18,female,Belg,1,20,guess,neutral,5,right,15,guess_outcome,0,undefined,0,0,353,244352,545194
34,18,female,Belg,1,20,ITC,neutral,5,right,15,ITC_start,1055,space,0,0,353,243296,546250
34,18,female,Belg,1,20,ITC,neutral,5,right,15,ITC_choice,990,j,0,0,353,242304,547242
34,18,female,Belg,1,20,ITC,neutral,5,right,15,ITC_wait,0,undefined,0,0,353,237282,552264
34,18,female,Belg,1,20,ITC,neutral,5,right,15,ITC_collect,296,k,0,0,353,236984,552562
34,18,female,Belg,1,20,ITC,neutral,5,right,15,ITC_outcome,0,undefined,0,0,373,235972,553574
34,18,female,Belg,1,21,guess,neutral,10,right,8,guess_start,167,space,0,0,373,235803,553743
34,18,female,Belg,1,21,guess,neutral,10,right,8,guess_choice,988,j,0,0,373,234811,554735
34,18,female,Belg,1,21,guess,neutral,10,right,8,guess_outcome,0,undefined,0,0,373,233242,556304
34,18,female,Belg,1,21,ITC,neutral,10,right,8,ITC_start,420,space,0,0,373,232820,556726
34,18,female,Belg,1,21,ITC,neutral,10,right,8,ITC_choice,1010,j,0,0,373,231808,557738
34,18,female,Belg,1,21,ITC,neutral,10,right,8,ITC_wait,0,undefined,0,0,373,221790,567756
34,18,female,Belg,1,21,ITC,neutral,10,right,8,ITC_collect,387,k,0,0,373,221401,568145
34,18,female,Belg,1,21,ITC,neutral,10,right,8,ITC_outcome,0,undefined,0,0,393,220381,569165
34,18,female,Belg,1,22,guess,neutral,10,right,1,guess_start,291,space,0,0,393,220089,569457
34,18,female,Belg,1,22,guess,neutral,10,right,1,guess_choice,810,f,0,0,393,219274,570272
34,18,female,Belg,1,22,guess,neutral,10,right,1,guess_outcome,0,undefined,0,0,393,217701,571845
34,18,female,Belg,1,22,ITC,neutral,10,right,1,ITC_start,431,space,0,0,393,217268,572278
34,18,female,Belg,1,22,ITC,neutral,10,right,1,ITC_choice,888,j,0,0,393,216377,573169
34,18,female,Belg,1,22,ITC,neutral,10,right,1,ITC_wait,0,undefined,0,0,393,206366,583180
34,18,female,Belg,1,22,ITC,neutral,10,right,1,ITC_collect,394,k,0,0,393,205969,583577
34,18,female,Belg,1,22,ITC,neutral,10,right,1,ITC_outcome,0,undefined,0,0,413,204959,584587
34,18,female,Belg,1,23,guess,neutral,10,left,4,guess_start,268,space,0,0,413,204689,584857
34,18,female,Belg,1,23,guess,neutral,10,left,4,guess_choice,852,f,0,0,413,203833,585713
34,18,female,Belg,1,23,guess,neutral,10,left,4,guess_outcome,0,undefined,0,0,413,202259,587287
34,18,female,Belg,1,23,ITC,neutral,10,left,4,ITC_start,389,space,0,0,413,201868,587678
34,18,female,Belg,1,23,ITC,neutral,10,left,4,ITC_choice,945,f,0,0,413,200921,588625
34,18,female,Belg,1,23,ITC,neutral,10,left,4,ITC_wait,0,undefined,0,0,413,190918,598628
34,18,female,Belg,1,23,ITC,neutral,10,left,4,ITC_collect,541,k,0,0,413,190375,599171
34,18,female,Belg,1,23,ITC,neutral,10,left,4,ITC_outcome,0,undefined,0,0,433,189365,600181
34,18,female,Belg,1,24,guess,loss,5,right,11,guess_start,305,space,0,0,433,189058,600488
34,18,female,Belg,1,24,guess,loss,5,right,11,guess_choice,899,j,0,0,433,188155,601391
34,18,female,Belg,1,24,guess,loss,5,right,11,guess_outcome,0,undefined,0,0,418,186596,602950
34,18,female,Belg,1,24,ITC,loss,5,right,11,ITC_start,444,space,0,0,418,186150,603396
34,18,female,Belg,1,24,ITC,loss,5,right,11,ITC_choice,783,j,0,0,418,185364,604182
34,18,female,Belg,1,24,ITC,loss,5,right,11,ITC_wait,0,undefined,0,0,418,180346,609200
34,18,female,Belg,1,24,ITC,loss,5,right,11,ITC_collect,305,k,0,0,418,180038,609508
34,18,female,Belg,1,24,ITC,loss,5,right,11,ITC_outcome,0,undefined,0,0,438,179025,610521
34,18,female,Belg,1,25,guess,win,5,left,16,guess_start,160,space,0,0,438,178863,610683
34,18,female,Belg,1,25,guess,win,5,left,16,guess_choice,788,f,0,0,438,178071,611475
34,18,female,Belg,1,25,guess,win,5,left,16,guess_outcome,0,undefined,0,0,458,176515,613031
34,18,female,Belg,1,25,ITC,win,5,left,16,ITC_start,314,space,0,0,458,176199,613347
34,18,female,Belg,1,25,ITC,win,5,left,16,ITC_choice,798,f,0,0,458,175399,614147
34,18,female,Belg,1,25,ITC,win,5,left,16,ITC_wait,0,undefined,0,0,458,170386,619160
34,18,female,Belg,1,25,ITC,win,5,left,16,ITC_collect,296,k,0,0,458,170087,619459
34,18,female,Belg,1,25,ITC,win,5,left,16,ITC_outcome,0,undefined,0,0,478,169065,620481
34,18,female,Belg,1,26,guess,loss,5,left,13,guess_start,368,space,0,0,478,168695,620851
34,18,female,Belg,1,26,guess,loss,5,left,13,guess_choice,700,j,0,0,478,167991,621555
34,18,female,Belg,1,26,guess,loss,5,left,13,guess_outcome,0,undefined,0,0,463,166425,623121
34,18,female,Belg,1,26,ITC,loss,5,left,13,ITC_start,23,space,0,0,463,166400,623146
34,18,female,Belg,1,26,ITC,loss,5,left,13,ITC_choice,1270,f,0,0,463,165129,624417
34,18,female,Belg,1,26,ITC,loss,5,left,13,ITC_wait,0,undefined,0,0,463,160114,629432
34,18,female,Belg,1,26,ITC,loss,5,left,13,ITC_collect,316,k,0,0,463,159796,629750
34,18,female,Belg,1,26,ITC,loss,5,left,13,ITC_outcome,0,undefined,0,0,483,158785,630761
34,18,female,Belg,1,27,guess,loss,5,left,16,guess_start,212,space,0,0,483,158571,630975
34,18,female,Belg,1,27,guess,loss,5,left,16,guess_choice,520,j,0,0,483,158048,631498
34,18,female,Belg,1,27,guess,loss,5,left,16,guess_outcome,0,undefined,0,0,468,156475,633071
34,18,female,Belg,1,27,ITC,loss,5,left,16,ITC_start,1428,space,0,0,468,155045,634501
34,18,female,Belg,1,27,ITC,loss,5,left,16,ITC_choice,859,f,0,0,468,154184,635362
34,18,female,Belg,1,27,ITC,loss,5,left,16,ITC_wait,0,undefined,0,0,468,149176,640370
34,18,female,Belg,1,27,ITC,loss,5,left,16,ITC_collect,299,k,0,0,468,148875,640671
34,18,female,Belg,1,27,ITC,loss,5,left,16,ITC_outcome,0,undefined,0,0,488,147865,641681
34,18,female,Belg,1,28,guess,neutral,5,right,2,guess_start,386,space,0,0,488,147477,642069
34,18,female,Belg,1,28,guess,neutral,5,right,2,guess_choice,928,f,0,0,488,146546,643000
34,18,female,Belg,1,28,guess,neutral,5,right,2,guess_outcome,0,undefined,0,0,488,144985,644561
34,18,female,Belg,1,28,ITC,neutral,5,right,2,ITC_start,332,space,0,0,488,144652,644894
34,18,female,Belg,1,28,ITC,neutral,5,right,2,ITC_choice,1058,j,0,0,488,143592,645954
34,18,female,Belg,1,28,ITC,neutral,5,right,2,ITC_wait,0,undefined,0,0,488,138575,650971
34,18,female,Belg,1,28,ITC,neutral,5,right,2,ITC_collect,330,k,0,0,488,138243,651303
34,18,female,Belg,1,28,ITC,neutral,5,right,2,ITC_outcome,0,undefined,0,0,508,137235,652311
34,18,female,Belg,1,29,guess,loss,5,left,9,guess_start,245,space,0,0,508,136988,652558
34,18,female,Belg,1,29,guess,loss,5,left,9,guess_choice,472,j,0,0,508,136512,653034
34,18,female,Belg,1,29,guess,loss,5,left,9,guess_outcome,0,undefined,0,0,493,134955,654591
34,18,female,Belg,1,29,ITC,loss,5,left,9,ITC_start,785,space,0,0,493,134168,655378
34,18,female,Belg,1,29,ITC,loss,5,left,9,ITC_choice,689,f,0,0,493,133477,656069
34,18,female,Belg,1,29,ITC,loss,5,left,9,ITC_wait,0,undefined,0,0,493,128475,661071
34,18,female,Belg,1,29,ITC,loss,5,left,9,ITC_collect,278,k,0,0,493,128194,661352
34,18,female,Belg,1,29,ITC,loss,5,left,9,ITC_outcome,0,undefined,0,0,513,127175,662371
34,18,female,Belg,1,30,guess,loss,10,left,1,guess_start,516,space,0,0,513,126657,662889
34,18,female,Belg,1,30,guess,loss,10,left,1,guess_choice,608,f,0,0,513,126046,663500
34,18,female,Belg,1,30,guess,loss,10,left,1,guess_outcome,0,undefined,0,0,498,124485,665061
34,18,female,Belg,1,30,ITC,loss,10,left,1,ITC_start,798,space,0,0,498,123686,665860
34,18,female,Belg,1,30,ITC,loss,10,left,1,ITC_choice,656,f,0,0,498,123028,666518
34,18,female,Belg,1,30,ITC,loss,10,left,1,ITC_wait,0,undefined,0,0,498,113024,676522
34,18,female,Belg,1,30,ITC,loss,10,left,1,ITC_collect,358,k,0,0,498,112664,676882
34,18,female,Belg,1,30,ITC,loss,10,left,1,ITC_outcome,0,undefined,0,0,518,111656,677890
34,18,female,Belg,1,31,guess,neutral,10,left,6,guess_start,202,space,0,0,518,111452,678094
34,18,female,Belg,1,31,guess,neutral,10,left,6,guess_choice,548,j,0,0,518,110900,678646
34,18,female,Belg,1,31,guess,neutral,10,left,6,guess_outcome,0,undefined,0,0,518,109336,680210
34,18,female,Belg,1,31,ITC,neutral,10,left,6,ITC_start,4957,space,0,0,518,104377,685169
34,18,female,Belg,1,31,ITC,neutral,10,left,6,ITC_choice,843,f,0,0,518,103532,686014
34,18,female,Belg,1,31,ITC,neutral,10,left,6,ITC_wait,0,undefined,0,0,518,93527,696019
34,18,female,Belg,1,31,ITC,neutral,10,left,6,ITC_collect,266,k,0,0,518,93258,696288
34,18,female,Belg,1,31,ITC,neutral,10,left,6,ITC_outcome,0,undefined,0,0,538,92249,697297
34,18,female,Belg,1,32,guess,loss,5,left,5,guess_start,290,space,0,0,538,91957,697589
34,18,female,Belg,1,32,guess,loss,5,left,5,guess_choice,748,j,0,0,538,91205,698341
34,18,female,Belg,1,32,guess,loss,5,left,5,guess_outcome,0,undefined,0,0,523,89649,699897
34,18,female,Belg,1,32,ITC,loss,5,left,5,ITC_start,497,space,0,0,523,89150,700396
34,18,female,Belg,1,32,ITC,loss,5,left,5,ITC_choice,723,j,0,0,523,88425,701121
34,18,female,Belg,1,32,ITC,loss,5,left,5,ITC_wait,0,undefined,0,0,523,88422,701124
34,18,female,Belg,1,32,ITC,loss,5,left,5,ITC_collect,1075,k,0,0,523,87346,702200
34,18,female,Belg,1,32,ITC,loss,5,left,5,ITC_outcome,0,undefined,0,0,528,86338,703208
34,18,female,Belg,1,33,guess,neutral,5,right,6,guess_start,429,space,0,0,528,85908,703638
34,18,female,Belg,1,33,guess,neutral,5,right,6,guess_choice,712,f,0,0,528,85192,704354
34,18,female,Belg,1,33,guess,neutral,5,right,6,guess_outcome,0,undefined,0,0,528,83628,705918
34,18,female,Belg,1,33,ITC,neutral,5,right,6,ITC_start,292,space,0,0,528,83335,706211
34,18,female,Belg,1,33,ITC,neutral,5,right,6,ITC_choice,849,f,0,0,528,82484,707062
34,18,female,Belg,1,33,ITC,neutral,5,right,6,ITC_wait,0,undefined,0,0,528,82481,707065
34,18,female,Belg,1,33,ITC,neutral,5,right,6,ITC_collect,511,k,0,0,528,81968,707578
34,18,female,Belg,1,33,ITC,neutral,5,right,6,ITC_outcome,0,undefined,0,0,534,80948,708598
34,18,female,Belg,1,34,guess,win,5,left,13,guess_start,296,space,0,0,534,80650,708896
34,18,female,Belg,1,34,guess,win,5,left,13,guess_choice,1032,f,0,0,534,79614,709932
34,18,female,Belg,1,34,guess,win,5,left,13,guess_outcome,0,undefined,0,0,554,78048,711498
34,18,female,Belg,1,34,ITC,win,5,left,13,ITC_start,627,space,0,0,554,77419,712127
34,18,female,Belg,1,34,ITC,win,5,left,13,ITC_choice,666,j,0,0,554,76751,712795
34,18,female,Belg,1,34,ITC,win,5,left,13,ITC_wait,0,undefined,0,0,554,76748,712798
34,18,female,Belg,1,34,ITC,win,5,left,13,ITC_collect,492,k,0,0,554,76254,713292
34,18,female,Belg,1,34,ITC,win,5,left,13,ITC_outcome,0,undefined,0,0,567,75238,714308
34,18,female,Belg,1,35,guess,win,5,right,2,guess_start,467,space,0,0,567,74770,714776
34,18,female,Belg,1,35,guess,win,5,right,2,guess_choice,689,f,0,0,567,74077,715469
34,18,female,Belg,1,35,guess,win,5,right,2,guess_outcome,0,undefined,0,0,587,72508,717038
34,18,female,Belg,1,35,ITC,win,5,right,2,ITC_start,253,space,0,0,587,72253,717293
34,18,female,Belg,1,35,ITC,win,5,right,2,ITC_choice,1305,f,0,0,587,70946,718600
34,18,female,Belg,1,35,ITC,win,5,right,2,ITC_wait,0,undefined,0,0,587,70943,718603
34,18,female,Belg,1,35,ITC,win,5,right,2,ITC_collect,567,k,0,0,587,70374,719172
34,18,female,Belg,1,35,ITC,win,5,right,2,ITC_outcome,0,undefined,0,0,589,69368,720178
34,18,female,Belg,1,36,guess,neutral,5,right,8,guess_start,235,space,0,0,589,69131,720415
34,18,female,Belg,1,36,guess,neutral,5,right,8,guess_choice,796,f,0,0,589,68331,721215
34,18,female,Belg,1,36,guess,neutral,5,right,8,guess_outcome,0,undefined,0,0,589,66758,722788
34,18,female,Belg,1,36,ITC,neutral,5,right,8,ITC_start,117,space,0,0,589,66639,722907
34,18,female,Belg,1,36,ITC,neutral,5,right,8,ITC_choice,837,f,0,0,589,65800,723746
34,18,female,Belg,1,36,ITC,neutral,5,right,8,ITC_wait,0,undefined,0,0,589,65797,723749
34,18,female,Belg,1,36,ITC,neutral,5,right,8,ITC_collect,386,k,0,0,589,65409,724137
34,18,female,Belg,1,36,ITC,neutral,5,right,8,ITC_outcome,0,undefined,0,0,597,64388,725158
34,18,female,Belg,1,37,guess,loss,10,right,2,guess_start,451,space,0,0,597,63935,725611
34,18,female,Belg,1,37,guess,loss,10,right,2,guess_choice,1056,f,0,0,597,62875,726671
34,18,female,Belg,1,37,guess,loss,10,right,2,guess_outcome,0,undefined,0,0,582,61310,728236
34,18,female,Belg,1,37,ITC,loss,10,right,2,ITC_start,438,space,0,0,582,60870,728676
34,18,female,Belg,1,37,ITC,loss,10,right,2,ITC_choice,919,j,0,0,582,59949,729597
34,18,female,Belg,1,37,ITC,loss,10,right,2,ITC_wait,0,undefined,0,0,582,49934,739612
34,18,female,Belg,1,37,ITC,loss,10,right,2,ITC_collect,413,k,0,0,582,49518,740028
34,18,female,Belg,1,37,ITC,loss,10,right,2,ITC_outcome,0,undefined,0,0,602,48504,741042
34,18,female,Belg,1,38,guess,win,5,left,11,guess_start,118,space,0,0,602,48384,741162
34,18,female,Belg,1,38,guess,win,5,left,11,guess_choice,614,j,0,0,602,47765,741781
34,18,female,Belg,1,38,guess,win,5,left,11,guess_outcome,0,undefined,0,0,622,46204,743342
34,18,female,Belg,1,38,ITC,win,5,left,11,ITC_start,1019,space,0,0,622,45183,744363
34,18,female,Belg,1,38,ITC,win,5,left,11,ITC_choice,684,j,0,0,622,44497,745049
34,18,female,Belg,1,38,ITC,win,5,left,11,ITC_wait,0,undefined,0,0,622,44494,745052
34,18,female,Belg,1,38,ITC,win,5,left,11,ITC_collect,456,k,0,0,622,44036,745510
34,18,female,Belg,1,38,ITC,win,5,left,11,ITC_outcome,0,undefined,0,0,633,43024,746522
34,18,female,Belg,1,39,guess,win,5,right,15,guess_start,398,space,0,0,633,42624,746922
34,18,female,Belg,1,39,guess,win,5,right,15,guess_choice,669,f,0,0,633,41951,747595
34,18,female,Belg,1,39,guess,win,5,right,15,guess_outcome,0,undefined,0,0,653,40394,749152
34,18,female,Belg,1,39,ITC,win,5,right,15,ITC_start,84,space,0,0,653,40308,749238
34,18,female,Belg,1,39,ITC,win,5,right,15,ITC_choice,625,f,0,0,653,39681,749865
34,18,female,Belg,1,39,ITC,win,5,right,15,ITC_wait,0,undefined,0,0,653,39677,749869
34,18,female,Belg,1,39,ITC,win,5,right,15,ITC_collect,354,k,0,0,653,39321,750225
34,18,female,Belg,1,39,ITC,win,5,right,15,ITC_outcome,0,undefined,0,0,668,38314,751232
34,18,female,Belg,1,40,guess,neutral,5,right,12,guess_start,330,space,0,0,668,37983,751563
34,18,female,Belg,1,40,guess,neutral,5,right,12,guess_choice,463,j,0,0,668,37516,752030
34,18,female,Belg,1,40,guess,neutral,5,right,12,guess_outcome,0,undefined,0,0,668,35954,753592
34,18,female,Belg,1,40,ITC,neutral,5,right,12,ITC_start,93,space,0,0,668,35858,753688
34,18,female,Belg,1,40,ITC,neutral,5,right,12,ITC_choice,873,f,0,0,668,34983,754563
34,18,female,Belg,1,40,ITC,neutral,5,right,12,ITC_wait,0,undefined,0,0,668,34980,754566
34,18,female,Belg,1,40,ITC,neutral,5,right,12,ITC_collect,318,k,0,0,668,34660,754886
34,18,female,Belg,1,40,ITC,neutral,5,right,12,ITC_outcome,0,undefined,0,0,680,33644,755902
34,18,female,Belg,1,41,guess,neutral,10,right,3,guess_start,220,space,0,0,680,33422,756124
34,18,female,Belg,1,41,guess,neutral,10,right,3,guess_choice,553,f,0,0,680,32865,756681
34,18,female,Belg,1,41,guess,neutral,10,right,3,guess_outcome,0,undefined,0,0,680,31293,758253
34,18,female,Belg,1,41,ITC,neutral,10,right,3,ITC_start,323,space,0,0,680,30968,758578
34,18,female,Belg,1,41,ITC,neutral,10,right,3,ITC_choice,861,f,0,0,680,30106,759440
34,18,female,Belg,1,41,ITC,neutral,10,right,3,ITC_wait,0,undefined,0,0,680,30102,759444
34,18,female,Belg,1,41,ITC,neutral,10,right,3,ITC_collect,543,k,0,0,680,29558,759988
34,18,female,Belg,1,41,ITC,neutral,10,right,3,ITC_outcome,0,undefined,0,0,683,28543,761003
34,18,female,Belg,1,42,guess,loss,5,left,3,guess_start,5,space,0,0,683,28536,761010
34,18,female,Belg,1,42,guess,loss,5,left,3,guess_choice,591,f,0,0,683,27943,761603
34,18,female,Belg,1,42,guess,loss,5,left,3,guess_outcome,0,undefined,0,0,668,26384,763162
34,18,female,Belg,1,42,ITC,loss,5,left,3,ITC_start,509,space,0,0,668,25873,763673
34,18,female,Belg,1,42,ITC,loss,5,left,3,ITC_choice,867,f,0,0,668,25004,764542
34,18,female,Belg,1,42,ITC,loss,5,left,3,ITC_wait,0,undefined,0,0,668,19994,769552
34,18,female,Belg,1,42,ITC,loss,5,left,3,ITC_collect,93,k,0,0,668,19898,769648
34,18,female,Belg,1,42,ITC,loss,5,left,3,ITC_outcome,0,undefined,0,0,688,18894,770652
34,18,female,Belg,1,43,guess,loss,5,right,8,guess_start,417,space,0,0,688,18474,771072
34,18,female,Belg,1,43,guess,loss,5,right,8,guess_choice,1049,f,0,0,688,17422,772124
34,18,female,Belg,1,43,guess,loss,5,right,8,guess_outcome,0,undefined,0,0,673,15864,773682
34,18,female,Belg,1,43,ITC,loss,5,right,8,ITC_start,426,space,0,0,673,15436,774110
34,18,female,Belg,1,43,ITC,loss,5,right,8,ITC_choice,736,j,0,0,673,14698,774848
34,18,female,Belg,1,43,ITC,loss,5,right,8,ITC_wait,0,undefined,0,0,673,9694,779852
34,18,female,Belg,1,43,ITC,loss,5,right,8,ITC_collect,305,k,0,0,673,9387,780159
34,18,female,Belg,1,43,ITC,loss,5,right,8,ITC_outcome,0,undefined,0,0,693,8373,781173
34,18,female,Belg,1,44,guess,loss,5,left,4,guess_start,373,space,0,0,693,7998,781548
34,18,female,Belg,1,44,guess,loss,5,left,4,guess_choice,547,f,0,0,693,7447,782099
34,18,female,Belg,1,44,guess,loss,5,left,4,guess_outcome,0,undefined,0,0,678,5884,783662
34,18,female,Belg,1,44,ITC,loss,5,left,4,ITC_start,612,space,0,0,678,5271,784275
34,18,female,Belg,1,44,ITC,loss,5,left,4,ITC_choice,606,j,0,0,678,4663,784883
34,18,female,Belg,1,44,ITC,loss,5,left,4,ITC_wait,0,undefined,0,0,678,4660,784886
34,18,female,Belg,1,44,ITC,loss,5,left,4,ITC_collect,603,k,0,0,678,4055,785491
34,18,female,Belg,1,44,ITC,loss,5,left,4,ITC_outcome,0,undefined,0,0,682,3043,786503
34,18,female,Belg,1,45,guess,win,10,left,4,guess_start,288,space,0,0,682,2754,786792
34,18,female,Belg,1,45,guess,win,10,left,4,guess_choice,452,j,0,0,682,2298,787248
34,18,female,Belg,1,45,guess,win,10,left,4,guess_outcome,0,undefined,0,0,702,734,788812
34,18,female,Belg,1,45,ITC,win,10,left,4,ITC_start,297,space,0,0,702,435,789111
34,18,female,Belg,1,45,ITC,win,10,left,4,ITC_choice,0,undefined,0,0,702,-6,789552
34,18,female,Belg,2,46,guess,neutral,5,right,10,guess_start,708,space,0,0,0,479291,806325
34,18,female,Belg,2,46,guess,neutral,5,right,10,guess_choice,881,f,0,0,0,478406,807210
34,18,female,Belg,2,46,guess,neutral,5,right,10,guess_outcome,0,undefined,0,0,0,476840,808776
34,18,female,Belg,2,46,ITC,neutral,5,right,10,ITC_start,480,space,0,0,0,476358,809258
34,18,female,Belg,2,46,ITC,neutral,5,right,10,ITC_choice,663,j,0,0,0,475694,809922
34,18,female,Belg,2,46,ITC,neutral,5,right,10,ITC_wait,0,undefined,0,0,0,470677,814939
34,18,female,Belg,2,46,ITC,neutral,5,right,10,ITC_collect,306,k,0,0,0,470369,815247
34,18,female,Belg,2,46,ITC,neutral,5,right,10,ITC_outcome,0,undefined,0,0,20,469357,816259
34,18,female,Belg,2,47,guess,loss,5,left,1,guess_start,408,space,0,0,20,468947,816669
34,18,female,Belg,2,47,guess,loss,5,left,1,guess_choice,439,f,0,0,20,468504,817112
34,18,female,Belg,2,47,guess,loss,5,left,1,guess_outcome,0,undefined,0,0,5,466937,818679
34,18,female,Belg,2,47,ITC,loss,5,left,1,ITC_start,17,space,0,0,5,466918,818698
34,18,female,Belg,2,47,ITC,loss,5,left,1,ITC_choice,844,j,0,0,5,466073,819543
34,18,female,Belg,2,47,ITC,loss,5,left,1,ITC_wait,0,undefined,0,0,5,466069,819547
34,18,female,Belg,2,47,ITC,loss,5,left,1,ITC_collect,349,k,0,0,5,465719,819897
34,18,female,Belg,2,47,ITC,loss,5,left,1,ITC_outcome,0,undefined,0,0,6,464707,820909
34,18,female,Belg,2,48,guess,neutral,10,right,7,guess_start,357,space,0,0,6,464348,821268
34,18,female,Belg,2,48,guess,neutral,10,right,7,guess_choice,1061,j,0,0,6,463285,822331
34,18,female,Belg,2,48,guess,neutral,10,right,7,guess_outcome,0,undefined,0,0,6,461728,823888
34,18,female,Belg,2,48,ITC,neutral,10,right,7,ITC_start,383,space,0,0,6,461343,824273
34,18,female,Belg,2,48,ITC,neutral,10,right,7,ITC_choice,1465,j,0,0,6,459877,825739
34,18,female,Belg,2,48,ITC,neutral,10,right,7,ITC_wait,0,undefined,0,0,6,449874,835742
34,18,female,Belg,2,48,ITC,neutral,10,right,7,ITC_collect,365,k,0,0,6,449507,836109
34,18,female,Belg,2,48,ITC,neutral,10,right,7,ITC_outcome,0,undefined,0,0,26,448489,837127
34,18,female,Belg,2,49,guess,win,5,right,9,guess_start,790,space,0,0,26,447698,837918
34,18,female,Belg,2,49,guess,win,5,right,9,guess_choice,579,f,0,0,26,447116,838500
34,18,female,Belg,2,49,guess,win,5,right,9,guess_outcome,0,undefined,0,0,46,445560,840056
34,18,female,Belg,2,49,ITC,win,5,right,9,ITC_start,308,space,0,0,46,445251,840365
34,18,female,Belg,2,49,ITC,win,5,right,9,ITC_choice,754,f,0,0,46,444495,841121
34,18,female,Belg,2,49,ITC,win,5,right,9,ITC_wait,0,undefined,0,0,46,444493,841123
34,18,female,Belg,2,49,ITC,win,5,right,9,ITC_collect,397,k,0,0,46,444095,841521
34,18,female,Belg,2,49,ITC,win,5,right,9,ITC_outcome,0,undefined,0,0,55,443079,842537
34,18,female,Belg,2,50,guess,win,10,right,5,guess_start,247,space,0,0,55,442830,842786
34,18,female,Belg,2,50,guess,win,10,right,5,guess_choice,475,f,0,0,55,442352,843264
34,18,female,Belg,2,50,guess,win,10,right,5,guess_outcome,0,undefined,0,0,75,440789,844827
34,18,female,Belg,2,50,ITC,win,10,right,5,ITC_start,265,space,0,0,75,440522,845094
34,18,female,Belg,2,50,ITC,win,10,right,5,ITC_choice,691,f,0,0,75,439829,845787
34,18,female,Belg,2,50,ITC,win,10,right,5,ITC_wait,0,undefined,0,0,75,439826,845790
34,18,female,Belg,2,50,ITC,win,10,right,5,ITC_collect,506,k,0,0,75,439318,846298
34,18,female,Belg,2,50,ITC,win,10,right,5,ITC_outcome,0,undefined,0,0,80,438310,847306
34,18,female,Belg,2,51,guess,win,5,right,6,guess_start,216,space,0,0,80,438091,847525
34,18,female,Belg,2,51,guess,win,5,right,6,guess_choice,629,f,0,0,80,437458,848158
34,18,female,Belg,2,51,guess,win,5,right,6,guess_outcome,0,undefined,0,0,100,435889,849727
34,18,female,Belg,2,51,ITC,win,5,right,6,ITC_start,561,space,0,0,100,435327,850289
34,18,female,Belg,2,51,ITC,win,5,right,6,ITC_choice,946,f,0,0,100,434379,851237
34,18,female,Belg,2,51,ITC,win,5,right,6,ITC_wait,0,undefined,0,0,100,434376,851240
34,18,female,Belg,2,51,ITC,win,5,right,6,ITC_collect,589,k,0,0,100,433784,851832
34,18,female,Belg,2,51,ITC,win,5,right,6,ITC_outcome,0,undefined,0,0,106,432770,852846
34,18,female,Belg,2,52,guess,win,5,right,8,guess_start,391,space,0,0,106,432376,853240
34,18,female,Belg,2,52,guess,win,5,right,8,guess_choice,605,f,0,0,106,431767,853849
34,18,female,Belg,2,52,guess,win,5,right,8,guess_outcome,0,undefined,0,0,126,430209,855407
34,18,female,Belg,2,52,ITC,win,5,right,8,ITC_start,620,space,0,0,126,429588,856028
34,18,female,Belg,2,52,ITC,win,5,right,8,ITC_choice,942,j,0,0,126,428644,856972
34,18,female,Belg,2,52,ITC,win,5,right,8,ITC_wait,0,undefined,0,0,126,423640,861976
34,18,female,Belg,2,52,ITC,win,5,right,8,ITC_collect,293,k,0,0,126,423345,862271
34,18,female,Belg,2,52,ITC,win,5,right,8,ITC_outcome,0,undefined,0,0,146,422329,863287
34,18,female,Belg,2,53,guess,loss,5,right,7,guess_start,257,space,0,0,146,422071,863545
34,18,female,Belg,2,53,guess,loss,5,right,7,guess_choice,516,f,0,0,146,421552,864064
34,18,female,Belg,2,53,guess,loss,5,right,7,guess_outcome,0,undefined,0,0,131,419988,865628
34,18,female,Belg,2,53,ITC,loss,5,right,7,ITC_start,467,space,0,0,131,419519,866097
34,18,female,Belg,2,53,ITC,loss,5,right,7,ITC_choice,926,j,0,0,131,418591,867025
34,18,female,Belg,2,53,ITC,loss,5,right,7,ITC_wait,0,undefined,0,0,131,413578,872038
34,18,female,Belg,2,53,ITC,loss,5,right,7,ITC_collect,321,k,0,0,131,413255,872361
34,18,female,Belg,2,53,ITC,loss,5,right,7,ITC_outcome,0,undefined,0,0,151,412248,873368
34,18,female,Belg,2,54,guess,neutral,10,left,5,guess_start,263,space,0,0,151,411982,873634
34,18,female,Belg,2,54,guess,neutral,10,left,5,guess_choice,577,f,0,0,151,411401,874215
34,18,female,Belg,2,54,guess,neutral,10,left,5,guess_outcome,0,undefined,0,0,151,409827,875789
34,18,female,Belg,2,54,ITC,neutral,10,left,5,ITC_start,401,space,0,0,151,409425,876191
34,18,female,Belg,2,54,ITC,neutral,10,left,5,ITC_choice,667,f,0,0,151,408755,876861
34,18,female,Belg,2,54,ITC,neutral,10,left,5,ITC_wait,0,undefined,0,0,151,398752,886864
34,18,female,Belg,2,54,ITC,neutral,10,left,5,ITC_collect,591,k,0,0,151,398159,887457
34,18,female,Belg,2,54,ITC,neutral,10,left,5,ITC_outcome,0,undefined,0,0,171,397142,888474
34,18,female,Belg,2,55,guess,neutral,5,left,13,guess_start,496,space,0,0,171,396644,888972
34,18,female,Belg,2,55,guess,neutral,5,left,13,guess_choice,603,f,0,0,171,396037,889579
34,18,female,Belg,2,55,guess,neutral,5,left,13,guess_outcome,0,undefined,0,0,171,394477,891139
34,18,female,Belg,2,55,ITC,neutral,5,left,13,ITC_start,452,space,0,0,171,394024,891592
34,18,female,Belg,2,55,ITC,neutral,5,left,13,ITC_choice,692,j,0,0,171,393330,892286
34,18,female,Belg,2,55,ITC,neutral,5,left,13,ITC_wait,0,undefined,0,0,171,393327,892289
34,18,female,Belg,2,55,ITC,neutral,5,left,13,ITC_collect,342,k,0,0,171,392983,892633
34,18,female,Belg,2,55,ITC,neutral,5,left,13,ITC_outcome,0,undefined,0,0,184,391968,893648
34,18,female,Belg,2,56,guess,win,10,right,2,guess_start,283,space,0,0,184,391683,893933
34,18,female,Belg,2,56,guess,win,10,right,2,guess_choice,691,j,0,0,184,390988,894628
34,18,female,Belg,2,56,guess,win,10,right,2,guess_outcome,0,undefined,0,0,204,389428,896188
34,18,female,Belg,2,56,ITC,win,10,right,2,ITC_start,370,space,0,0,204,389057,896559
34,18,female,Belg,2,56,ITC,win,10,right,2,ITC_wait,0,undefined,0,0,204,388475,897141
34,18,female,Belg,2,56,ITC,win,10,right,2,ITC_choice,576,f,0,0,204,388478,897138
34,18,female,Belg,2,56,ITC,win,10,right,2,ITC_collect,358,k,0,0,204,388115,897501
34,18,female,Belg,2,56,ITC,win,10,right,2,ITC_outcome,0,undefined,0,0,206,387108,898508
34,18,female,Belg,2,57,guess,loss,5,left,15,guess_start,277,space,0,0,206,386828,898788
34,18,female,Belg,2,57,guess,loss,5,left,15,guess_choice,780,f,0,0,206,386045,899571
34,18,female,Belg,2,57,guess,loss,5,left,15,guess_outcome,0,undefined,0,0,191,384488,901128
34,18,female,Belg,2,57,ITC,loss,5,left,15,ITC_start,306,space,0,0,191,384179,901437
34,18,female,Belg,2,57,ITC,loss,5,left,15,ITC_choice,489,j,0,0,191,383688,901928
34,18,female,Belg,2,57,ITC,loss,5,left,15,ITC_wait,0,undefined,0,0,191,383685,901931
34,18,female,Belg,2,57,ITC,loss,5,left,15,ITC_collect,410,k,0,0,191,383273,902343
34,18,female,Belg,2,57,ITC,loss,5,left,15,ITC_outcome,0,undefined,0,0,206,382268,903348
34,18,female,Belg,2,58,guess,neutral,5,right,9,guess_start,268,space,0,0,206,381997,903619
34,18,female,Belg,2,58,guess,neutral,5,right,9,guess_choice,1836,j,0,0,206,380158,905458
34,18,female,Belg,2,58,guess,neutral,5,right,9,guess_outcome,0,undefined,0,0,206,378588,907028
34,18,female,Belg,2,58,ITC,neutral,5,right,9,ITC_start,334,space,0,0,206,378252,907364
34,18,female,Belg,2,58,ITC,neutral,5,right,9,ITC_choice,805,j,0,0,206,377445,908171
34,18,female,Belg,2,58,ITC,neutral,5,right,9,ITC_wait,0,undefined,0,0,206,372428,913188
34,18,female,Belg,2,58,ITC,neutral,5,right,9,ITC_collect,290,k,0,0,206,372135,913481
34,18,female,Belg,2,58,ITC,neutral,5,right,9,ITC_outcome,0,undefined,0,0,226,371128,914488
34,18,female,Belg,2,59,guess,win,10,left,3,guess_start,313,space,0,0,226,370812,914804
34,18,female,Belg,2,59,guess,win,10,left,3,guess_choice,545,f,0,0,226,370263,915353
34,18,female,Belg,2,59,guess,win,10,left,3,guess_outcome,0,undefined,0,0,246,368697,916919
34,18,female,Belg,2,59,ITC,win,10,left,3,ITC_start,299,space,0,0,246,368396,917220
34,18,female,Belg,2,59,ITC,win,10,left,3,ITC_choice,630,j,0,0,246,367764,917852
34,18,female,Belg,2,59,ITC,win,10,left,3,ITC_wait,0,undefined,0,0,246,367761,917855
34,18,female,Belg,2,59,ITC,win,10,left,3,ITC_collect,350,k,0,0,246,367409,918207
34,18,female,Belg,2,59,ITC,win,10,left,3,ITC_outcome,0,undefined,0,0,249,366406,919210
34,18,female,Belg,2,60,guess,loss,10,left,3,guess_start,329,space,0,0,249,366073,919543
34,18,female,Belg,2,60,guess,loss,10,left,3,guess_choice,488,f,0,0,249,365581,920035
34,18,female,Belg,2,60,guess,loss,10,left,3,guess_outcome,0,undefined,0,0,234,364008,921608
34,18,female,Belg,2,60,ITC,loss,10,left,3,ITC_start,462,space,0,0,234,363544,922072
34,18,female,Belg,2,60,ITC,loss,10,left,3,ITC_choice,608,j,0,0,234,362935,922681
34,18,female,Belg,2,60,ITC,loss,10,left,3,ITC_wait,0,undefined,0,0,234,362933,922683
34,18,female,Belg,2,60,ITC,loss,10,left,3,ITC_collect,545,k,0,0,234,362386,923230
34,18,female,Belg,2,60,ITC,loss,10,left,3,ITC_outcome,0,undefined,0,0,237,361368,924248
34,18,female,Belg,2,61,guess,win,10,right,6,guess_start,367,space,0,0,237,360998,924618
34,18,female,Belg,2,61,guess,win,10,right,6,guess_choice,591,f,0,0,237,360403,925213
34,18,female,Belg,2,61,guess,win,10,right,6,guess_outcome,0,undefined,0,0,257,358849,926767
34,18,female,Belg,2,61,ITC,win,10,right,6,ITC_start,313,space,0,0,257,358534,927082
34,18,female,Belg,2,61,ITC,win,10,right,6,ITC_choice,626,j,0,0,257,357906,927710
34,18,female,Belg,2,61,ITC,win,10,right,6,ITC_wait,0,undefined,0,0,257,347893,937723
34,18,female,Belg,2,61,ITC,win,10,right,6,ITC_collect,525,k,0,0,257,347366,938250
34,18,female,Belg,2,61,ITC,win,10,right,6,ITC_outcome,0,undefined,0,0,277,346361,939255
34,18,female,Belg,2,62,guess,neutral,5,left,4,guess_start,57,space,0,0,277,346301,939315
34,18,female,Belg,2,62,guess,neutral,5,left,4,guess_choice,396,j,0,0,277,345900,939716
34,18,female,Belg,2,62,guess,neutral,5,left,4,guess_outcome,0,undefined,0,0,277,344341,941275
34,18,female,Belg,2,62,ITC,neutral,5,left,4,ITC_start,395,space,0,0,277,343943,941673
34,18,female,Belg,2,62,ITC,neutral,5,left,4,ITC_choice,448,j,0,0,277,343493,942123
34,18,female,Belg,2,62,ITC,neutral,5,left,4,ITC_wait,0,undefined,0,0,277,343490,942126
34,18,female,Belg,2,62,ITC,neutral,5,left,4,ITC_collect,350,k,0,0,277,343139,942477
34,18,female,Belg,2,62,ITC,neutral,5,left,4,ITC_outcome,0,undefined,0,0,281,342135,943481
34,18,female,Belg,2,63,guess,loss,5,right,10,guess_start,312,space,0,0,281,341821,943795
34,18,female,Belg,2,63,guess,loss,5,right,10,guess_choice,493,j,0,0,281,341324,944292
34,18,female,Belg,2,63,guess,loss,5,right,10,guess_outcome,0,undefined,0,0,266,339761,945855
34,18,female,Belg,2,63,ITC,loss,5,right,10,ITC_start,375,space,0,0,266,339384,946232
34,18,female,Belg,2,63,ITC,loss,5,right,10,ITC_choice,839,j,0,0,266,338542,947074
34,18,female,Belg,2,63,ITC,loss,5,right,10,ITC_wait,0,undefined,0,0,266,333521,952095
34,18,female,Belg,2,63,ITC,loss,5,right,10,ITC_collect,484,k,0,0,266,333034,952582
34,18,female,Belg,2,63,ITC,loss,5,right,10,ITC_outcome,0,undefined,0,0,286,332020,953596
34,18,female,Belg,2,64,guess,loss,5,left,14,guess_start,100,space,0,0,286,331918,953698
34,18,female,Belg,2,64,guess,loss,5,left,14,guess_choice,402,f,0,0,286,331511,954105
34,18,female,Belg,2,64,guess,loss,5,left,14,guess_outcome,0,undefined,0,0,271,329950,955666
34,18,female,Belg,2,64,ITC,loss,5,left,14,ITC_start,241,space,0,0,271,329708,955908
34,18,female,Belg,2,64,ITC,loss,5,left,14,ITC_choice,682,j,0,0,271,329024,956592
34,18,female,Belg,2,64,ITC,loss,5,left,14,ITC_wait,0,undefined,0,0,271,329021,956595
34,18,female,Belg,2,64,ITC,loss,5,left,14,ITC_collect,881,k,0,0,271,328137,957479
34,18,female,Belg,2,64,ITC,loss,5,left,14,ITC_outcome,0,undefined,0,0,285,327134,958482
34,18,female,Belg,2,65,guess,neutral,5,right,1,guess_start,467,space,0,0,285,326664,958952
34,18,female,Belg,2,65,guess,neutral,5,right,1,guess_choice,868,f,0,0,285,325792,959824
34,18,female,Belg,2,65,guess,neutral,5,right,1,guess_outcome,0,undefined,0,0,285,324220,961396
34,18,female,Belg,2,65,ITC,neutral,5,right,1,ITC_start,1010,space,0,0,285,323208,962408
34,18,female,Belg,2,65,ITC,neutral,5,right,1,ITC_choice,1305,j,0,0,285,321901,963715
34,18,female,Belg,2,65,ITC,neutral,5,right,1,ITC_wait,0,undefined,0,0,285,316891,968725
34,18,female,Belg,2,65,ITC,neutral,5,right,1,ITC_collect,497,k,0,0,285,316391,969225
34,18,female,Belg,2,65,ITC,neutral,5,right,1,ITC_outcome,0,undefined,0,0,305,315381,970235
34,18,female,Belg,2,66,guess,win,5,left,12,guess_start,155,space,0,0,305,315224,970392
34,18,female,Belg,2,66,guess,win,5,left,12,guess_choice,402,j,0,0,305,314818,970798
34,18,female,Belg,2,66,guess,win,5,left,12,guess_outcome,0,undefined,0,0,325,313251,972365
34,18,female,Belg,2,66,ITC,win,5,left,12,ITC_start,336,space,0,0,325,312913,972703
34,18,female,Belg,2,66,ITC,win,5,left,12,ITC_choice,524,j,0,0,325,312387,973229
34,18,female,Belg,2,66,ITC,win,5,left,12,ITC_wait,0,undefined,0,0,325,312384,973232
34,18,female,Belg,2,66,ITC,win,5,left,12,ITC_collect,492,k,0,0,325,311890,973726
34,18,female,Belg,2,66,ITC,win,5,left,12,ITC_outcome,0,undefined,0,0,337,310881,974735
34,18,female,Belg,2,67,guess,neutral,5,right,5,guess_start,327,space,0,0,337,310552,975064
34,18,female,Belg,2,67,guess,neutral,5,right,5,guess_choice,574,f,0,0,337,309974,975642
34,18,female,Belg,2,67,guess,neutral,5,right,5,guess_outcome,0,undefined,0,0,337,308401,977215
34,18,female,Belg,2,67,ITC,neutral,5,right,5,ITC_start,325,space,0,0,337,308074,977542
34,18,female,Belg,2,67,ITC,neutral,5,right,5,ITC_choice,674,j,0,0,337,307398,978218
34,18,female,Belg,2,67,ITC,neutral,5,right,5,ITC_wait,0,undefined,0,0,337,302391,983225
34,18,female,Belg,2,67,ITC,neutral,5,right,5,ITC_collect,252,k,0,0,337,302137,983479
34,18,female,Belg,2,67,ITC,neutral,5,right,5,ITC_outcome,0,undefined,0,0,357,301120,984496
34,18,female,Belg,2,68,guess,win,10,right,7,guess_start,135,space,0,0,357,300983,984633
34,18,female,Belg,2,68,guess,win,10,right,7,guess_choice,636,j,0,0,357,300342,985274
34,18,female,Belg,2,68,guess,win,10,right,7,guess_outcome,0,undefined,0,0,377,298786,986830
34,18,female,Belg,2,68,ITC,win,10,right,7,ITC_start,748,space,0,0,377,298036,987580
34,18,female,Belg,2,68,ITC,win,10,right,7,ITC_choice,581,j,0,0,377,297453,988163
34,18,female,Belg,2,68,ITC,win,10,right,7,ITC_wait,0,undefined,0,0,377,287449,998167
34,18,female,Belg,2,68,ITC,win,10,right,7,ITC_collect,427,k,0,0,377,287020,998596
34,18,female,Belg,2,68,ITC,win,10,right,7,ITC_outcome,0,undefined,0,0,397,286015,999601
34,18,female,Belg,2,69,guess,loss,10,right,8,guess_start,305,space,0,0,397,285709,999907
34,18,female,Belg,2,69,guess,loss,10,right,8,guess_choice,366,f,0,0,397,285338,1000278
34,18,female,Belg,2,69,guess,loss,10,right,8,guess_outcome,0,undefined,0,0,382,283771,1001845
34,18,female,Belg,2,69,ITC,loss,10,right,8,ITC_start,106,space,0,0,382,283664,1001952
34,18,female,Belg,2,69,ITC,loss,10,right,8,ITC_choice,574,j,0,0,382,283088,1002528
34,18,female,Belg,2,69,ITC,loss,10,right,8,ITC_wait,0,undefined,0,0,382,273073,1012543
34,18,female,Belg,2,69,ITC,loss,10,right,8,ITC_collect,311,k,0,0,382,272760,1012856
34,18,female,Belg,2,69,ITC,loss,10,right,8,ITC_outcome,0,undefined,0,0,402,271745,1013871
34,18,female,Belg,2,70,guess,neutral,5,left,16,guess_start,115,space,0,0,402,271627,1013989
34,18,female,Belg,2,70,guess,neutral,5,left,16,guess_choice,859,j,0,0,402,270764,1014852
34,18,female,Belg,2,70,guess,neutral,5,left,16,guess_outcome,0,undefined,0,0,402,269200,1016416
34,18,female,Belg,2,70,ITC,neutral,5,left,16,ITC_start,303,space,0,0,402,268895,1016721
34,18,female,Belg,2,70,ITC,neutral,5,left,16,ITC_choice,563,j,0,0,402,268330,1017286
34,18,female,Belg,2,70,ITC,neutral,5,left,16,ITC_wait,0,undefined,0,0,402,268328,1017288
34,18,female,Belg,2,70,ITC,neutral,5,left,16,ITC_collect,379,k,0,0,402,267946,1017670
34,18,female,Belg,2,70,ITC,neutral,5,left,16,ITC_outcome,0,undefined,0,0,418,266942,1018674
34,18,female,Belg,2,71,guess,win,5,left,4,guess_start,296,space,0,0,418,266644,1018972
34,18,female,Belg,2,71,guess,win,5,left,4,guess_choice,519,j,0,0,418,266120,1019496
34,18,female,Belg,2,71,guess,win,5,left,4,guess_outcome,0,undefined,0,0,438,264555,1021061
34,18,female,Belg,2,71,ITC,win,5,left,4,ITC_start,249,space,0,0,438,264304,1021312
34,18,female,Belg,2,71,ITC,win,5,left,4,ITC_choice,504,j,0,0,438,263798,1021818
34,18,female,Belg,2,71,ITC,win,5,left,4,ITC_wait,0,undefined,0,0,438,263794,1021822
34,18,female,Belg,2,71,ITC,win,5,left,4,ITC_collect,325,k,0,0,438,263468,1022148
34,18,female,Belg,2,71,ITC,win,5,left,4,ITC_outcome,0,undefined,0,0,442,262460,1023156
34,18,female,Belg,2,72,guess,neutral,10,right,2,guess_start,344,space,0,0,442,262113,1023503
34,18,female,Belg,2,72,guess,neutral,10,right,2,guess_choice,502,j,0,0,442,261607,1024009
34,18,female,Belg,2,72,guess,neutral,10,right,2,guess_outcome,0,undefined,0,0,442,260039,1025577
34,18,female,Belg,2,72,ITC,neutral,10,right,2,ITC_start,737,space,0,0,442,259300,1026316
34,18,female,Belg,2,72,ITC,neutral,10,right,2,ITC_choice,748,j,0,0,442,258550,1027066
34,18,female,Belg,2,72,ITC,neutral,10,right,2,ITC_wait,0,undefined,0,0,442,248540,1037076
34,18,female,Belg,2,72,ITC,neutral,10,right,2,ITC_collect,329,k,0,0,442,248208,1037408
34,18,female,Belg,2,72,ITC,neutral,10,right,2,ITC_outcome,0,undefined,0,0,462,247186,1038430
34,18,female,Belg,2,73,guess,loss,5,right,14,guess_start,46,space,0,0,462,247138,1038478
34,18,female,Belg,2,73,guess,loss,5,right,14,guess_choice,411,j,0,0,462,246723,1038893
34,18,female,Belg,2,73,guess,loss,5,right,14,guess_outcome,0,undefined,0,0,447,245167,1040449
34,18,female,Belg,2,73,ITC,loss,5,right,14,ITC_start,291,space,0,0,447,244873,1040743
34,18,female,Belg,2,73,ITC,loss,5,right,14,ITC_choice,456,j,0,0,447,244416,1041200
34,18,female,Belg,2,73,ITC,loss,5,right,14,ITC_wait,0,undefined,0,0,447,239406,1046210
34,18,female,Belg,2,73,ITC,loss,5,right,14,ITC_collect,317,k,0,0,447,239087,1046529
34,18,female,Belg,2,73,ITC,loss,5,right,14,ITC_outcome,0,undefined,0,0,467,238075,1047541
34,18,female,Belg,2,74,guess,loss,5,right,7,guess_start,358,space,0,0,467,237715,1047901
34,18,female,Belg,2,74,guess,loss,5,right,7,guess_choice,270,f,0,0,467,237441,1048175
34,18,female,Belg,2,74,guess,loss,5,right,7,guess_outcome,0,undefined,0,0,452,235885,1049731
34,18,female,Belg,2,74,ITC,loss,5,right,7,ITC_start,440,space,0,0,452,235444,1050172
34,18,female,Belg,2,74,ITC,loss,5,right,7,ITC_choice,397,j,0,0,452,235045,1050571
34,18,female,Belg,2,74,ITC,loss,5,right,7,ITC_wait,0,undefined,0,0,452,230026,1055590
34,18,female,Belg,2,74,ITC,loss,5,right,7,ITC_collect,297,k,0,0,452,229726,1055890
34,18,female,Belg,2,74,ITC,loss,5,right,7,ITC_outcome,0,undefined,0,0,472,228706,1056910
34,18,female,Belg,2,75,guess,win,5,left,2,guess_start,18,space,0,0,472,228686,1056930
34,18,female,Belg,2,75,guess,win,5,left,2,guess_choice,375,f,0,0,472,228306,1057310
34,18,female,Belg,2,75,guess,win,5,left,2,guess_outcome,0,undefined,0,0,492,226746,1058870
34,18,female,Belg,2,75,ITC,win,5,left,2,ITC_start,377,space,0,0,492,226367,1059249
34,18,female,Belg,2,75,ITC,win,5,left,2,ITC_choice,431,j,0,0,492,225933,1059683
34,18,female,Belg,2,75,ITC,win,5,left,2,ITC_wait,0,undefined,0,0,492,225930,1059686
34,18,female,Belg,2,75,ITC,win,5,left,2,ITC_collect,357,k,0,0,492,225571,1060045
34,18,female,Belg,2,75,ITC,win,5,left,2,ITC_outcome,0,undefined,0,0,494,224556,1061060
34,18,female,Belg,2,76,guess,loss,10,left,6,guess_start,243,space,0,0,494,224311,1061305
34,18,female,Belg,2,76,guess,loss,10,left,6,guess_choice,441,f,0,0,494,223865,1061751
34,18,female,Belg,2,76,guess,loss,10,left,6,guess_outcome,0,undefined,0,0,479,222295,1063321
34,18,female,Belg,2,76,ITC,loss,10,left,6,ITC_start,382,space,0,0,479,221911,1063705
34,18,female,Belg,2,76,ITC,loss,10,left,6,ITC_choice,745,j,0,0,479,221164,1064452
34,18,female,Belg,2,76,ITC,loss,10,left,6,ITC_wait,0,undefined,0,0,479,221161,1064455
34,18,female,Belg,2,76,ITC,loss,10,left,6,ITC_collect,349,k,0,0,479,220810,1064806
34,18,female,Belg,2,76,ITC,loss,10,left,6,ITC_outcome,0,undefined,0,0,485,219795,1065821
34,18,female,Belg,2,77,guess,win,5,right,12,guess_start,168,space,0,0,485,219625,1065991
34,18,female,Belg,2,77,guess,win,5,right,12,guess_choice,300,f,0,0,485,219321,1066295
34,18,female,Belg,2,77,guess,win,5,right,12,guess_outcome,0,undefined,0,0,505,217766,1067850
34,18,female,Belg,2,77,ITC,win,5,right,12,ITC_start,408,space,0,0,505,217356,1068260
34,18,female,Belg,2,77,ITC,win,5,right,12,ITC_choice,663,j,0,0,505,216691,1068925
34,18,female,Belg,2,77,ITC,win,5,right,12,ITC_wait,0,undefined,0,0,505,211686,1073930
34,18,female,Belg,2,77,ITC,win,5,right,12,ITC_collect,273,k,0,0,505,211410,1074206
34,18,female,Belg,2,77,ITC,win,5,right,12,ITC_outcome,0,undefined,0,0,525,210406,1075210
34,18,female,Belg,2,78,guess,win,10,left,6,guess_start,187,space,0,0,525,210216,1075400
34,18,female,Belg,2,78,guess,win,10,left,6,guess_choice,315,f,0,0,525,209897,1075719
34,18,female,Belg,2,78,guess,win,10,left,6,guess_outcome,0,undefined,0,0,545,208336,1077280
34,18,female,Belg,2,78,ITC,win,10,left,6,ITC_start,351,space,0,0,545,207984,1077632
34,18,female,Belg,2,78,ITC,win,10,left,6,ITC_choice,383,j,0,0,545,207599,1078017
34,18,female,Belg,2,78,ITC,win,10,left,6,ITC_wait,0,undefined,0,0,545,207596,1078020
34,18,female,Belg,2,78,ITC,win,10,left,6,ITC_collect,350,k,0,0,545,207244,1078372
34,18,female,Belg,2,78,ITC,win,10,left,6,ITC_outcome,0,undefined,0,0,551,206236,1079380
34,18,female,Belg,2,79,guess,neutral,5,left,9,guess_start,288,space,0,0,551,205946,1079670
34,18,female,Belg,2,79,guess,neutral,5,left,9,guess_choice,1471,f,0,0,551,204471,1081145
34,18,female,Belg,2,79,guess,neutral,5,left,9,guess_outcome,0,undefined,0,0,551,202917,1082699
34,18,female,Belg,2,79,ITC,neutral,5,left,9,ITC_start,329,space,0,0,551,202586,1083030
34,18,female,Belg,2,79,ITC,neutral,5,left,9,ITC_choice,677,f,0,0,551,201908,1083708
34,18,female,Belg,2,79,ITC,neutral,5,left,9,ITC_wait,0,undefined,0,0,551,196896,1088720
34,18,female,Belg,2,79,ITC,neutral,5,left,9,ITC_collect,331,k,0,0,551,196563,1089053
34,18,female,Belg,2,79,ITC,neutral,5,left,9,ITC_outcome,0,undefined,0,0,571,195545,1090071
34,18,female,Belg,2,80,guess,neutral,5,right,7,guess_start,247,space,0,0,571,195296,1090320
34,18,female,Belg,2,80,guess,neutral,5,right,7,guess_choice,360,j,0,0,571,194933,1090683
34,18,female,Belg,2,80,guess,neutral,5,right,7,guess_outcome,0,undefined,0,0,571,193365,1092251
34,18,female,Belg,2,80,ITC,neutral,5,right,7,ITC_start,19,space,0,0,571,193345,1092271
34,18,female,Belg,2,80,ITC,neutral,5,right,7,ITC_choice,605,j,0,0,571,192737,1092879
34,18,female,Belg,2,80,ITC,neutral,5,right,7,ITC_wait,0,undefined,0,0,571,187716,1097900
34,18,female,Belg,2,80,ITC,neutral,5,right,7,ITC_collect,313,k,0,0,571,187400,1098216
34,18,female,Belg,2,80,ITC,neutral,5,right,7,ITC_outcome,0,undefined,0,0,591,186386,1099230
34,18,female,Belg,2,81,guess,neutral,5,left,12,guess_start,58,space,0,0,591,186325,1099291
34,18,female,Belg,2,81,guess,neutral,5,left,12,guess_choice,606,j,0,0,591,185716,1099900
34,18,female,Belg,2,81,guess,neutral,5,left,12,guess_outcome,0,undefined,0,0,591,184145,1101471
34,18,female,Belg,2,81,ITC,neutral,5,left,12,ITC_start,378,space,0,0,591,183766,1101850
34,18,female,Belg,2,81,ITC,neutral,5,left,12,ITC_choice,610,j,0,0,591,183154,1102462
34,18,female,Belg,2,81,ITC,neutral,5,left,12,ITC_wait,0,undefined,0,0,591,183151,1102465
34,18,female,Belg,2,81,ITC,neutral,5,left,12,ITC_collect,376,k,0,0,591,182773,1102843
34,18,female,Belg,2,81,ITC,neutral,5,left,12,ITC_outcome,0,undefined,0,0,603,181766,1103850
34,18,female,Belg,2,82,guess,loss,10,right,8,guess_start,251,space,0,0,603,181512,1104104
34,18,female,Belg,2,82,guess,loss,10,right,8,guess_choice,368,f,0,0,603,181140,1104476
34,18,female,Belg,2,82,guess,loss,10,right,8,guess_outcome,0,undefined,0,0,588,179575,1106041
34,18,female,Belg,2,82,ITC,loss,10,right,8,ITC_start,318,space,0,0,588,179256,1106360
34,18,female,Belg,2,82,ITC,loss,10,right,8,ITC_choice,303,j,0,0,588,178952,1106664
34,18,female,Belg,2,82,ITC,loss,10,right,8,ITC_wait,0,undefined,0,0,588,168950,1116666
34,18,female,Belg,2,82,ITC,loss,10,right,8,ITC_collect,419,k,0,0,588,168527,1117089
34,18,female,Belg,2,82,ITC,loss,10,right,8,ITC_outcome,0,undefined,0,0,608,167505,1118111
34,18,female,Belg,2,83,guess,win,5,right,11,guess_start,867,space,0,0,608,166637,1118979
34,18,female,Belg,2,83,guess,win,5,right,11,guess_choice,427,f,0,0,608,166207,1119409
34,18,female,Belg,2,83,guess,win,5,right,11,guess_outcome,0,undefined,0,0,628,164645,1120971
34,18,female,Belg,2,83,ITC,win,5,right,11,ITC_start,319,space,0,0,628,164323,1121293
34,18,female,Belg,2,83,ITC,win,5,right,11,ITC_choice,861,j,0,0,628,163461,1122155
34,18,female,Belg,2,83,ITC,win,5,right,11,ITC_wait,0,undefined,0,0,628,158444,1127172
34,18,female,Belg,2,83,ITC,win,5,right,11,ITC_collect,290,k,0,0,628,158152,1127464
34,18,female,Belg,2,83,ITC,win,5,right,11,ITC_outcome,0,undefined,0,0,648,157144,1128472
34,18,female,Belg,2,84,guess,win,5,right,16,guess_start,15,space,0,0,648,157128,1128488
34,18,female,Belg,2,84,guess,win,5,right,16,guess_choice,370,f,0,0,648,156753,1128863
34,18,female,Belg,2,84,guess,win,5,right,16,guess_outcome,0,undefined,0,0,668,155184,1130432
34,18,female,Belg,2,84,ITC,win,5,right,16,ITC_start,451,space,0,0,668,154732,1130884
34,18,female,Belg,2,84,ITC,win,5,right,16,ITC_choice,358,j,0,0,668,154372,1131244
34,18,female,Belg,2,84,ITC,win,5,right,16,ITC_wait,0,undefined,0,0,668,149365,1136251
34,18,female,Belg,2,84,ITC,win,5,right,16,ITC_collect,323,k,0,0,668,149040,1136576
34,18,female,Belg,2,84,ITC,win,5,right,16,ITC_outcome,0,undefined,0,0,688,148025,1137591
34,18,female,Belg,2,85,guess,neutral,5,left,11,guess_start,175,space,0,0,688,147848,1137768
34,18,female,Belg,2,85,guess,neutral,5,left,11,guess_choice,744,f,0,0,688,147098,1138518
34,18,female,Belg,2,85,guess,neutral,5,left,11,guess_outcome,0,undefined,0,0,688,145525,1140091
34,18,female,Belg,2,85,ITC,neutral,5,left,11,ITC_start,338,space,0,0,688,145184,1140432
34,18,female,Belg,2,85,ITC,neutral,5,left,11,ITC_choice,643,j,0,0,688,144540,1141076
34,18,female,Belg,2,85,ITC,neutral,5,left,11,ITC_wait,0,undefined,0,0,688,144537,1141079
34,18,female,Belg,2,85,ITC,neutral,5,left,11,ITC_collect,572,k,0,0,688,143963,1141653
34,18,female,Belg,2,85,ITC,neutral,5,left,11,ITC_outcome,0,undefined,0,0,699,142955,1142661
34,18,female,Belg,2,86,guess,neutral,10,left,8,guess_start,236,space,0,0,699,142716,1142900
34,18,female,Belg,2,86,guess,neutral,10,left,8,guess_choice,514,j,0,0,699,142198,1143418
34,18,female,Belg,2,86,guess,neutral,10,left,8,guess_outcome,0,undefined,0,0,699,140625,1144991
34,18,female,Belg,2,86,ITC,neutral,10,left,8,ITC_start,209,space,0,0,699,140413,1145203
34,18,female,Belg,2,86,ITC,neutral,10,left,8,ITC_choice,489,j,0,0,699,139923,1145693
34,18,female,Belg,2,86,ITC,neutral,10,left,8,ITC_wait,0,undefined,0,0,699,139919,1145697
34,18,female,Belg,2,86,ITC,neutral,10,left,8,ITC_collect,304,k,0,0,699,139614,1146002
34,18,female,Belg,2,86,ITC,neutral,10,left,8,ITC_outcome,0,undefined,0,0,707,138605,1147011
34,18,female,Belg,2,87,guess,win,5,right,1,guess_start,216,space,0,0,707,138386,1147230
34,18,female,Belg,2,87,guess,win,5,right,1,guess_choice,584,f,0,0,707,137799,1147817
34,18,female,Belg,2,87,guess,win,5,right,1,guess_outcome,0,undefined,0,0,727,136245,1149371
34,18,female,Belg,2,87,ITC,win,5,right,1,ITC_start,113,space,0,0,727,136131,1149485
34,18,female,Belg,2,87,ITC,win,5,right,1,ITC_choice,672,j,0,0,727,135455,1150161
34,18,female,Belg,2,87,ITC,win,5,right,1,ITC_wait,0,undefined,0,0,727,130445,1155171
34,18,female,Belg,2,87,ITC,win,5,right,1,ITC_collect,389,k,0,0,727,130053,1155563
34,18,female,Belg,2,87,ITC,win,5,right,1,ITC_outcome,0,undefined,0,0,747,129044,1156572
34,18,female,Belg,2,88,guess,loss,10,left,1,guess_start,340,space,0,0,747,128702,1156914
34,18,female,Belg,2,88,guess,loss,10,left,1,guess_choice,458,f,0,0,747,128239,1157377
34,18,female,Belg,2,88,guess,loss,10,left,1,guess_outcome,0,undefined,0,0,732,126674,1158942
34,18,female,Belg,2,88,ITC,loss,10,left,1,ITC_start,613,space,0,0,732,126059,1159557
34,18,female,Belg,2,88,ITC,loss,10,left,1,ITC_choice,519,j,0,0,732,125539,1160077
34,18,female,Belg,2,88,ITC,loss,10,left,1,ITC_wait,0,undefined,0,0,732,125536,1160080
34,18,female,Belg,2,88,ITC,loss,10,left,1,ITC_collect,365,k,0,0,732,125169,1160447
34,18,female,Belg,2,88,ITC,loss,10,left,1,ITC_outcome,0,undefined,0,0,733,124166,1161450
34,18,female,Belg,2,89,guess,win,5,left,6,guess_start,368,space,0,0,733,123795,1161821
34,18,female,Belg,2,89,guess,win,5,left,6,guess_choice,537,j,0,0,733,123254,1162362
34,18,female,Belg,2,89,guess,win,5,left,6,guess_outcome,0,undefined,0,0,753,121699,1163917
34,18,female,Belg,2,89,ITC,win,5,left,6,ITC_start,434,space,0,0,753,121263,1164353
34,18,female,Belg,2,89,ITC,win,5,left,6,ITC_choice,424,j,0,0,753,120837,1164779
34,18,female,Belg,2,89,ITC,win,5,left,6,ITC_wait,0,undefined,0,0,753,120834,1164782
34,18,female,Belg,2,89,ITC,win,5,left,6,ITC_collect,343,k,0,0,753,120488,1165128
34,18,female,Belg,2,89,ITC,win,5,left,6,ITC_outcome,0,undefined,0,0,759,119482,1166134
34,18,female,Belg,2,90,guess,neutral,10,right,7,guess_start,373,space,0,0,759,119106,1166510
34,18,female,Belg,2,90,guess,neutral,10,right,7,guess_choice,738,f,0,0,759,118365,1167251
34,18,female,Belg,2,90,guess,neutral,10,right,7,guess_outcome,0,undefined,0,0,759,116810,1168806
34,18,female,Belg,2,90,ITC,neutral,10,right,7,ITC_start,396,space,0,0,759,116412,1169204
34,18,female,Belg,2,90,ITC,neutral,10,right,7,ITC_choice,561,j,0,0,759,115850,1169766
34,18,female,Belg,2,90,ITC,neutral,10,right,7,ITC_wait,0,undefined,0,0,759,105834,1179782
34,18,female,Belg,2,90,ITC,neutral,10,right,7,ITC_collect,359,k,0,0,759,105472,1180144
34,18,female,Belg,2,90,ITC,neutral,10,right,7,ITC_outcome,0,undefined,0,0,779,104463,1181153
34,18,female,Belg,2,91,guess,loss,5,left,12,guess_start,346,space,0,0,779,104114,1181502
34,18,female,Belg,2,91,guess,loss,5,left,12,guess_choice,416,j,0,0,779,103693,1181923
34,18,female,Belg,2,91,guess,loss,5,left,12,guess_outcome,0,undefined,0,0,764,102133,1183483
34,18,female,Belg,2,91,ITC,loss,5,left,12,ITC_start,356,space,0,0,764,101775,1183841
34,18,female,Belg,2,91,ITC,loss,5,left,12,ITC_choice,512,j,0,0,764,101262,1184354
34,18,female,Belg,2,91,ITC,loss,5,left,12,ITC_wait,0,undefined,0,0,764,101258,1184358
34,18,female,Belg,2,91,ITC,loss,5,left,12,ITC_collect,595,k,0,0,764,100662,1184954
34,18,female,Belg,2,91,ITC,loss,5,left,12,ITC_outcome,0,undefined,0,0,776,99658,1185958
34,18,female,Belg,2,92,guess,neutral,10,left,4,guess_start,310,space,0,0,776,99344,1186272
34,18,female,Belg,2,92,guess,neutral,10,left,4,guess_choice,360,f,0,0,776,98980,1186636
34,18,female,Belg,2,92,guess,neutral,10,left,4,guess_outcome,0,undefined,0,0,776,97424,1188192
34,18,female,Belg,2,92,ITC,neutral,10,left,4,ITC_start,303,space,0,0,776,97120,1188496
34,18,female,Belg,2,92,ITC,neutral,10,left,4,ITC_choice,541,j,0,0,776,96578,1189038
34,18,female,Belg,2,92,ITC,neutral,10,left,4,ITC_wait,0,undefined,0,0,776,96575,1189041
34,18,female,Belg,2,92,ITC,neutral,10,left,4,ITC_collect,335,k,0,0,776,96238,1189378
34,18,female,Belg,2,92,ITC,neutral,10,left,4,ITC_outcome,0,undefined,0,0,780,95233,1190383
34,18,female,Belg,2,93,guess,win,5,left,14,guess_start,279,space,0,0,780,94952,1190664
34,18,female,Belg,2,93,guess,win,5,left,14,guess_choice,467,f,0,0,780,94481,1191135
34,18,female,Belg,2,93,guess,win,5,left,14,guess_outcome,0,undefined,0,0,800,92913,1192703
34,18,female,Belg,2,93,ITC,win,5,left,14,ITC_start,335,space,0,0,800,92576,1193040
34,18,female,Belg,2,93,ITC,win,5,left,14,ITC_choice,647,j,0,0,800,91927,1193689
34,18,female,Belg,2,93,ITC,win,5,left,14,ITC_wait,0,undefined,0,0,800,91924,1193692
34,18,female,Belg,2,93,ITC,win,5,left,14,ITC_collect,293,k,0,0,800,91629,1193987
34,18,female,Belg,2,93,ITC,win,5,left,14,ITC_outcome,0,undefined,0,0,814,90621,1194995
34,18,female,Belg,2,94,guess,neutral,5,right,8,guess_start,251,space,0,0,814,90368,1195248
34,18,female,Belg,2,94,guess,neutral,5,right,8,guess_choice,713,j,0,0,814,89651,1195965
34,18,female,Belg,2,94,guess,neutral,5,right,8,guess_outcome,0,undefined,0,0,814,88082,1197534
34,18,female,Belg,2,94,ITC,neutral,5,right,8,ITC_start,340,space,0,0,814,87741,1197875
34,18,female,Belg,2,94,ITC,neutral,5,right,8,ITC_choice,600,j,0,0,814,87138,1198478
34,18,female,Belg,2,94,ITC,neutral,5,right,8,ITC_wait,0,undefined,0,0,814,82133,1203483
34,18,female,Belg,2,94,ITC,neutral,5,right,8,ITC_collect,324,k,0,0,814,81807,1203809
34,18,female,Belg,2,94,ITC,neutral,5,right,8,ITC_outcome,0,undefined,0,0,834,80793,1204823
34,18,female,Belg,2,95,guess,loss,5,left,15,guess_start,60,space,0,0,834,80730,1204886
34,18,female,Belg,2,95,guess,loss,5,left,15,guess_choice,438,f,0,0,834,80288,1205328
34,18,female,Belg,2,95,guess,loss,5,left,15,guess_outcome,0,undefined,0,0,819,78723,1206893
34,18,female,Belg,2,95,ITC,loss,5,left,15,ITC_start,384,space,0,0,819,78337,1207279
34,18,female,Belg,2,95,ITC,loss,5,left,15,ITC_choice,382,j,0,0,819,77953,1207663
34,18,female,Belg,2,95,ITC,loss,5,left,15,ITC_wait,0,undefined,0,0,819,77950,1207666
34,18,female,Belg,2,95,ITC,loss,5,left,15,ITC_collect,568,k,0,0,819,77380,1208236
34,18,female,Belg,2,95,ITC,loss,5,left,15,ITC_outcome,0,undefined,0,0,834,76373,1209243
34,18,female,Belg,2,96,guess,loss,5,right,5,guess_start,247,space,0,0,834,76123,1209493
34,18,female,Belg,2,96,guess,loss,5,right,5,guess_choice,382,j,0,0,834,75737,1209879
34,18,female,Belg,2,96,guess,loss,5,right,5,guess_outcome,0,undefined,0,0,819,74162,1211454
34,18,female,Belg,2,96,ITC,loss,5,right,5,ITC_start,350,space,0,0,819,73811,1211805
34,18,female,Belg,2,96,ITC,loss,5,right,5,ITC_choice,754,j,0,0,819,73055,1212561
34,18,female,Belg,2,96,ITC,loss,5,right,5,ITC_wait,0,undefined,0,0,819,68033,1217583
34,18,female,Belg,2,96,ITC,loss,5,right,5,ITC_collect,398,k,0,0,819,67632,1217984
34,18,female,Belg,2,96,ITC,loss,5,right,5,ITC_outcome,0,undefined,0,0,839,66613,1219003
34,18,female,Belg,2,97,guess,neutral,10,right,6,guess_start,1008,space,0,0,839,65602,1220014
34,18,female,Belg,2,97,guess,neutral,10,right,6,guess_choice,894,f,0,0,839,64705,1220911
34,18,female,Belg,2,97,guess,neutral,10,right,6,guess_outcome,0,undefined,0,0,839,63143,1222473
34,18,female,Belg,2,97,ITC,neutral,10,right,6,ITC_start,638,space,0,0,839,62503,1223113
34,18,female,Belg,2,97,ITC,neutral,10,right,6,ITC_choice,626,j,0,0,839,61874,1223742
34,18,female,Belg,2,97,ITC,neutral,10,right,6,ITC_wait,0,undefined,0,0,839,51857,1233759
34,18,female,Belg,2,97,ITC,neutral,10,right,6,ITC_collect,338,k,0,0,839,51516,1234100
34,18,female,Belg,2,97,ITC,neutral,10,right,6,ITC_outcome,0,undefined,0,0,859,50493,1235123
34,18,female,Belg,2,98,guess,neutral,5,right,10,guess_start,307,space,0,0,859,50184,1235432
34,18,female,Belg,2,98,guess,neutral,5,right,10,guess_choice,497,f,0,0,859,49683,1235933
34,18,female,Belg,2,98,guess,neutral,5,right,10,guess_outcome,0,undefined,0,0,859,48123,1237493
34,18,female,Belg,2,98,ITC,neutral,5,right,10,ITC_start,354,space,0,0,859,47768,1237848
34,18,female,Belg,2,98,ITC,neutral,5,right,10,ITC_choice,571,j,0,0,859,47195,1238421
34,18,female,Belg,2,98,ITC,neutral,5,right,10,ITC_wait,0,undefined,0,0,859,42188,1243428
34,18,female,Belg,2,98,ITC,neutral,5,right,10,ITC_collect,299,k,0,0,859,41886,1243730
34,18,female,Belg,2,98,ITC,neutral,5,right,10,ITC_outcome,0,undefined,0,0,879,40873,1244743
34,18,female,Belg,2,99,guess,win,5,right,9,guess_start,323,space,0,0,879,40547,1245069
34,18,female,Belg,2,99,guess,win,5,right,9,guess_choice,742,f,0,0,879,39802,1245814
34,18,female,Belg,2,99,guess,win,5,right,9,guess_outcome,0,undefined,0,0,899,38233,1247383
34,18,female,Belg,2,99,ITC,win,5,right,9,ITC_start,299,space,0,0,899,37933,1247683
34,18,female,Belg,2,99,ITC,win,5,right,9,ITC_choice,647,j,0,0,899,37283,1248333
34,18,female,Belg,2,99,ITC,win,5,right,9,ITC_wait,0,undefined,0,0,899,32264,1253352
34,18,female,Belg,2,99,ITC,win,5,right,9,ITC_collect,341,k,0,0,899,31921,1253695
34,18,female,Belg,2,99,ITC,win,5,right,9,ITC_outcome,0,undefined,0,0,919,30903,1254713
34,18,female,Belg,2,100,guess,loss,5,left,16,guess_start,283,space,0,0,919,30616,1255000
34,18,female,Belg,2,100,guess,loss,5,left,16,guess_choice,578,j,0,0,919,30034,1255582
34,18,female,Belg,2,100,guess,loss,5,left,16,guess_outcome,0,undefined,0,0,904,28474,1257142
34,18,female,Belg,2,100,ITC,loss,5,left,16,ITC_start,427,space,0,0,904,28045,1257571
34,18,female,Belg,2,100,ITC,loss,5,left,16,ITC_choice,865,j,0,0,904,27177,1258439
34,18,female,Belg,2,100,ITC,loss,5,left,16,ITC_wait,0,undefined,0,0,904,27174,1258442
34,18,female,Belg,2,100,ITC,loss,5,left,16,ITC_collect,282,k,0,0,904,26890,1258726
34,18,female,Belg,2,100,ITC,loss,5,left,16,ITC_outcome,0,undefined,0,0,920,25873,1259743
34,18,female,Belg,2,101,guess,win,5,left,13,guess_start,335,space,0,0,920,25536,1260080
34,18,female,Belg,2,101,guess,win,5,left,13,guess_choice,466,f,0,0,920,25066,1260550
34,18,female,Belg,2,101,guess,win,5,left,13,guess_outcome,0,undefined,0,0,940,23504,1262112
34,18,female,Belg,2,101,ITC,win,5,left,13,ITC_start,376,space,0,0,940,23126,1262490
34,18,female,Belg,2,101,ITC,win,5,left,13,ITC_choice,486,j,0,0,940,22638,1262978
34,18,female,Belg,2,101,ITC,win,5,left,13,ITC_wait,0,undefined,0,0,940,22635,1262981
34,18,female,Belg,2,101,ITC,win,5,left,13,ITC_collect,339,k,0,0,940,22294,1263322
34,18,female,Belg,2,101,ITC,win,5,left,13,ITC_outcome,0,undefined,0,0,953,21290,1264326
34,18,female,Belg,2,102,guess,win,5,left,15,guess_start,272,space,0,0,953,21016,1264600
34,18,female,Belg,2,102,guess,win,5,left,15,guess_choice,493,f,0,0,953,20518,1265098
34,18,female,Belg,2,102,guess,win,5,left,15,guess_outcome,0,undefined,0,0,973,18964,1266652
34,18,female,Belg,2,102,ITC,win,5,left,15,ITC_start,368,space,0,0,973,18594,1267022
34,18,female,Belg,2,102,ITC,win,5,left,15,ITC_choice,550,j,0,0,973,18042,1267574
34,18,female,Belg,2,102,ITC,win,5,left,15,ITC_wait,0,undefined,0,0,973,18039,1267577
34,18,female,Belg,2,102,ITC,win,5,left,15,ITC_collect,330,k,0,0,973,17707,1267909
34,18,female,Belg,2,102,ITC,win,5,left,15,ITC_outcome,0,undefined,0,0,988,16694,1268922
34,18,female,Belg,2,103,guess,win,5,right,4,guess_start,388,space,0,0,988,16304,1269312
34,18,female,Belg,2,103,guess,win,5,right,4,guess_choice,823,j,0,0,988,15477,1270139
34,18,female,Belg,2,103,guess,win,5,right,4,guess_outcome,0,undefined,0,0,1008,13903,1271713
34,18,female,Belg,2,103,ITC,win,5,right,4,ITC_start,498,space,0,0,1008,13403,1272213
34,18,female,Belg,2,103,ITC,win,5,right,4,ITC_choice,698,j,0,0,1008,12703,1272913
34,18,female,Belg,2,103,ITC,win,5,right,4,ITC_wait,0,undefined,0,0,1008,7694,1277922
34,18,female,Belg,2,103,ITC,win,5,right,4,ITC_collect,359,k,0,0,1008,7333,1278283
34,18,female,Belg,2,103,ITC,win,5,right,4,ITC_outcome,0,undefined,0,0,1028,6324,1279292
34,18,female,Belg,2,104,guess,win,10,right,2,guess_start,193,space,0,0,1028,6128,1279488
34,18,female,Belg,2,104,guess,win,10,right,2,guess_choice,490,f,0,0,1028,5634,1279982
34,18,female,Belg,2,104,guess,win,10,right,2,guess_outcome,0,undefined,0,0,1048,4078,1281538
34,18,female,Belg,2,104,ITC,win,10,right,2,ITC_start,1395,space,0,0,1048,2681,1282935
34,18,female,Belg,2,104,ITC,win,10,right,2,ITC_choice,338,j,0,0,1048,2342,1283274
34,18,female,Belg,2,104,ITC,win,10,right,2,ITC_wait,0,undefined,0,0,1048,-17,1285633
34,18,female,Belg,3,105,guess,loss,5,left,4,guess_start,345,space,0,0,0,479653,1297683
34,18,female,Belg,3,105,guess,loss,5,left,4,guess_choice,436,j,0,0,0,479213,1298123
34,18,female,Belg,3,105,guess,loss,5,left,4,guess_outcome,0,undefined,0,0,-15,477643,1299693
34,18,female,Belg,3,105,ITC,loss,5,left,4,ITC_start,333,space,0,0,-15,477308,1300028
34,18,female,Belg,3,105,ITC,loss,5,left,4,ITC_choice,397,j,0,0,-15,476909,1300427
34,18,female,Belg,3,105,ITC,loss,5,left,4,ITC_wait,0,undefined,0,0,-15,476906,1300430
34,18,female,Belg,3,105,ITC,loss,5,left,4,ITC_collect,593,k,0,0,-15,476311,1301025
34,18,female,Belg,3,105,ITC,loss,5,left,4,ITC_outcome,0,undefined,0,0,-11,475291,1302045
34,18,female,Belg,3,106,guess,neutral,5,left,15,guess_start,286,space,0,0,-11,475002,1302334
34,18,female,Belg,3,106,guess,neutral,5,left,15,guess_choice,558,f,0,0,-11,474440,1302896
34,18,female,Belg,3,106,guess,neutral,5,left,15,guess_outcome,0,undefined,0,0,-11,472881,1304455
34,18,female,Belg,3,106,ITC,neutral,5,left,15,ITC_start,114,space,0,0,-11,472764,1304572
34,18,female,Belg,3,106,ITC,neutral,5,left,15,ITC_choice,455,j,0,0,-11,472308,1305028
34,18,female,Belg,3,106,ITC,neutral,5,left,15,ITC_wait,0,undefined,0,0,-11,472305,1305031
34,18,female,Belg,3,106,ITC,neutral,5,left,15,ITC_collect,1582,k,0,0,-11,470721,1306615
34,18,female,Belg,3,106,ITC,neutral,5,left,15,ITC_outcome,0,undefined,0,0,4,469701,1307635
34,18,female,Belg,3,107,guess,loss,5,left,9,guess_start,300,space,0,0,4,469398,1307938
34,18,female,Belg,3,107,guess,loss,5,left,9,guess_choice,364,j,0,0,4,469030,1308306
34,18,female,Belg,3,107,guess,loss,5,left,9,guess_outcome,0,undefined,0,0,-11,467471,1309865
34,18,female,Belg,3,107,ITC,loss,5,left,9,ITC_start,395,space,0,0,-11,467073,1310263
34,18,female,Belg,3,107,ITC,loss,5,left,9,ITC_choice,388,j,0,0,-11,466684,1310652
34,18,female,Belg,3,107,ITC,loss,5,left,9,ITC_wait,0,undefined,0,0,-11,466680,1310656
34,18,female,Belg,3,107,ITC,loss,5,left,9,ITC_collect,425,k,0,0,-11,466253,1311083
34,18,female,Belg,3,107,ITC,loss,5,left,9,ITC_outcome,0,undefined,0,0,-2,465241,1312095
34,18,female,Belg,3,108,guess,neutral,5,left,16,guess_start,542,space,0,0,-2,464697,1312639
34,18,female,Belg,3,108,guess,neutral,5,left,16,guess_choice,710,j,0,0,-2,463983,1313353
34,18,female,Belg,3,108,guess,neutral,5,left,16,guess_outcome,0,undefined,0,0,-2,462420,1314916
34,18,female,Belg,3,108,ITC,neutral,5,left,16,ITC_start,285,space,0,0,-2,462133,1315203
34,18,female,Belg,3,108,ITC,neutral,5,left,16,ITC_choice,1542,f,0,0,-2,460589,1316747
34,18,female,Belg,3,108,ITC,neutral,5,left,16,ITC_wait,0,undefined,0,0,-2,455581,1321755
34,18,female,Belg,3,108,ITC,neutral,5,left,16,ITC_collect,320,k,0,0,-2,455258,1322078
34,18,female,Belg,3,108,ITC,neutral,5,left,16,ITC_outcome,0,undefined,0,0,18,454251,1323085
34,18,female,Belg,3,109,guess,loss,5,right,6,guess_start,248,space,0,0,18,454000,1323336
34,18,female,Belg,3,109,guess,loss,5,right,6,guess_choice,842,f,0,0,18,453154,1324182
34,18,female,Belg,3,109,guess,loss,5,right,6,guess_outcome,0,undefined,0,0,3,451580,1325756
34,18,female,Belg,3,109,ITC,loss,5,right,6,ITC_start,390,space,0,0,3,451188,1326148
34,18,female,Belg,3,109,ITC,loss,5,right,6,ITC_choice,763,j,0,0,3,450423,1326913
34,18,female,Belg,3,109,ITC,loss,5,right,6,ITC_wait,0,undefined,0,0,3,445411,1331925
34,18,female,Belg,3,109,ITC,loss,5,right,6,ITC_collect,270,k,0,0,3,445139,1332197
34,18,female,Belg,3,109,ITC,loss,5,right,6,ITC_outcome,0,undefined,0,0,23,444131,1333205
34,18,female,Belg,3,110,guess,loss,5,left,13,guess_start,104,space,0,0,23,444024,1333312
34,18,female,Belg,3,110,guess,loss,5,left,13,guess_choice,339,j,0,0,23,443681,1333655
34,18,female,Belg,3,110,guess,loss,5,left,13,guess_outcome,0,undefined,0,0,8,442121,1335215
34,18,female,Belg,3,110,ITC,loss,5,left,13,ITC_start,579,space,0,0,8,441539,1335797
34,18,female,Belg,3,110,ITC,loss,5,left,13,ITC_choice,505,j,0,0,8,441033,1336303
34,18,female,Belg,3,110,ITC,loss,5,left,13,ITC_wait,0,undefined,0,0,8,441029,1336307
34,18,female,Belg,3,110,ITC,loss,5,left,13,ITC_collect,389,k,0,0,8,440638,1336698
34,18,female,Belg,3,110,ITC,loss,5,left,13,ITC_outcome,0,undefined,0,0,21,439632,1337704
34,18,female,Belg,3,111,guess,win,5,right,3,guess_start,248,space,0,0,21,439382,1337954
34,18,female,Belg,3,111,guess,win,5,right,3,guess_choice,348,j,0,0,21,439030,1338306
34,18,female,Belg,3,111,guess,win,5,right,3,guess_outcome,0,undefined,0,0,41,437471,1339865
34,18,female,Belg,3,111,ITC,win,5,right,3,ITC_start,366,space,0,0,41,437103,1340233
34,18,female,Belg,3,111,ITC,win,5,right,3,ITC_choice,424,j,0,0,41,436678,1340658
34,18,female,Belg,3,111,ITC,win,5,right,3,ITC_wait,0,undefined,0,0,41,431671,1345665
34,18,female,Belg,3,111,ITC,win,5,right,3,ITC_collect,287,k,0,0,41,431381,1345955
34,18,female,Belg,3,111,ITC,win,5,right,3,ITC_outcome,0,undefined,0,0,61,430361,1346975
34,18,female,Belg,3,112,guess,neutral,5,right,1,guess_start,250,space,0,0,61,430108,1347228
34,18,female,Belg,3,112,guess,neutral,5,right,1,guess_choice,303,f,0,0,61,429800,1347536
34,18,female,Belg,3,112,guess,neutral,5,right,1,guess_outcome,0,undefined,0,0,61,428235,1349101
34,18,female,Belg,3,112,ITC,neutral,5,right,1,ITC_start,415,space,0,0,61,427818,1349518
34,18,female,Belg,3,112,ITC,neutral,5,right,1,ITC_choice,420,j,0,0,61,427396,1349940
34,18,female,Belg,3,112,ITC,neutral,5,right,1,ITC_wait,0,undefined,0,0,61,422379,1354957
34,18,female,Belg,3,112,ITC,neutral,5,right,1,ITC_collect,429,k,0,0,61,421948,1355388
34,18,female,Belg,3,112,ITC,neutral,5,right,1,ITC_outcome,0,undefined,0,0,81,420926,1356410
34,18,female,Belg,3,113,guess,win,10,left,1,guess_start,525,space,0,0,81,420399,1356937
34,18,female,Belg,3,113,guess,win,10,left,1,guess_choice,439,f,0,0,81,419956,1357380
34,18,female,Belg,3,113,guess,win,10,left,1,guess_outcome,0,undefined,0,0,101,418397,1358939
34,18,female,Belg,3,113,ITC,win,10,left,1,ITC_start,350,space,0,0,101,418045,1359291
34,18,female,Belg,3,113,ITC,win,10,left,1,ITC_choice,399,j,0,0,101,417644,1359692
34,18,female,Belg,3,113,ITC,win,10,left,1,ITC_wait,0,undefined,0,0,101,417641,1359695
34,18,female,Belg,3,113,ITC,win,10,left,1,ITC_collect,345,k,0,0,101,417295,1360041
34,18,female,Belg,3,113,ITC,win,10,left,1,ITC_outcome,0,undefined,0,0,102,416287,1361049
34,18,female,Belg,3,114,guess,loss,5,left,3,guess_start,280,space,0,0,102,416006,1361330
34,18,female,Belg,3,114,guess,loss,5,left,3,guess_choice,365,f,0,0,102,415637,1361699
34,18,female,Belg,3,114,guess,loss,5,left,3,guess_outcome,0,undefined,0,0,87,414066,1363270
34,18,female,Belg,3,114,ITC,loss,5,left,3,ITC_start,287,space,0,0,87,413777,1363559
34,18,female,Belg,3,114,ITC,loss,5,left,3,ITC_choice,347,j,0,0,87,413428,1363908
34,18,female,Belg,3,114,ITC,loss,5,left,3,ITC_wait,0,undefined,0,0,87,413424,1363912
34,18,female,Belg,3,114,ITC,loss,5,left,3,ITC_collect,307,k,0,0,87,413115,1364221
34,18,female,Belg,3,114,ITC,loss,5,left,3,ITC_outcome,0,undefined,0,0,90,412097,1365239
34,18,female,Belg,3,115,guess,neutral,5,right,6,guess_start,218,space,0,0,90,411876,1365460
34,18,female,Belg,3,115,guess,neutral,5,right,6,guess_choice,1253,f,0,0,90,410619,1366717
34,18,female,Belg,3,115,guess,neutral,5,right,6,guess_outcome,0,undefined,0,0,90,409046,1368290
34,18,female,Belg,3,115,ITC,neutral,5,right,6,ITC_start,292,space,0,0,90,408753,1368583
34,18,female,Belg,3,115,ITC,neutral,5,right,6,ITC_choice,556,j,0,0,90,408195,1369141
34,18,female,Belg,3,115,ITC,neutral,5,right,6,ITC_wait,0,undefined,0,0,90,403185,1374151
34,18,female,Belg,3,115,ITC,neutral,5,right,6,ITC_collect,332,k,0,0,90,402850,1374486
34,18,female,Belg,3,115,ITC,neutral,5,right,6,ITC_outcome,0,undefined,0,0,110,401846,1375490
34,18,female,Belg,3,116,guess,loss,5,left,1,guess_start,629,space,0,0,110,401215,1376121
34,18,female,Belg,3,116,guess,loss,5,left,1,guess_choice,483,f,0,0,110,400727,1376609
34,18,female,Belg,3,116,guess,loss,5,left,1,guess_outcome,0,undefined,0,0,95,399156,1378180
34,18,female,Belg,3,116,ITC,loss,5,left,1,ITC_start,418,space,0,0,95,398736,1378600
34,18,female,Belg,3,116,ITC,loss,5,left,1,ITC_choice,368,j,0,0,95,398366,1378970
34,18,female,Belg,3,116,ITC,loss,5,left,1,ITC_wait,0,undefined,0,0,95,398363,1378973
34,18,female,Belg,3,116,ITC,loss,5,left,1,ITC_collect,313,k,0,0,95,398047,1379289
34,18,female,Belg,3,116,ITC,loss,5,left,1,ITC_outcome,0,undefined,0,0,96,397036,1380300
34,18,female,Belg,3,117,guess,neutral,10,left,1,guess_start,225,space,0,0,96,396809,1380527
34,18,female,Belg,3,117,guess,neutral,10,left,1,guess_choice,305,j,0,0,96,396500,1380836
34,18,female,Belg,3,117,guess,neutral,10,left,1,guess_outcome,0,undefined,0,0,96,394936,1382400
34,18,female,Belg,3,117,ITC,neutral,10,left,1,ITC_start,362,space,0,0,96,394573,1382763
34,18,female,Belg,3,117,ITC,neutral,10,left,1,ITC_choice,445,j,0,0,96,394126,1383210
34,18,female,Belg,3,117,ITC,neutral,10,left,1,ITC_wait,0,undefined,0,0,96,394123,1383213
34,18,female,Belg,3,117,ITC,neutral,10,left,1,ITC_collect,345,k,0,0,96,393776,1383560
34,18,female,Belg,3,117,ITC,neutral,10,left,1,ITC_outcome,0,undefined,0,0,97,392766,1384570
34,18,female,Belg,3,118,guess,loss,10,left,7,guess_start,264,space,0,0,97,392500,1384836
34,18,female,Belg,3,118,guess,loss,10,left,7,guess_choice,466,f,0,0,97,392030,1385306
34,18,female,Belg,3,118,guess,loss,10,left,7,guess_outcome,0,undefined,0,0,82,390476,1386860
34,18,female,Belg,3,118,ITC,loss,10,left,7,ITC_start,253,space,0,0,82,390220,1387116
34,18,female,Belg,3,118,ITC,loss,10,left,7,ITC_choice,698,f,0,0,82,389520,1387816
34,18,female,Belg,3,118,ITC,loss,10,left,7,ITC_wait,0,undefined,0,0,82,379509,1397827
34,18,female,Belg,3,118,ITC,loss,10,left,7,ITC_collect,340,k,0,0,82,379166,1398170
34,18,female,Belg,3,118,ITC,loss,10,left,7,ITC_outcome,0,undefined,0,0,102,378160,1399176
34,18,female,Belg,3,119,guess,loss,10,left,5,guess_start,126,space,0,0,102,378031,1399305
34,18,female,Belg,3,119,guess,loss,10,left,5,guess_choice,442,f,0,0,102,377585,1399751
34,18,female,Belg,3,119,guess,loss,10,left,5,guess_outcome,0,undefined,0,0,87,376030,1401306
34,18,female,Belg,3,119,ITC,loss,10,left,5,ITC_start,419,space,0,0,87,375609,1401727
34,18,female,Belg,3,119,ITC,loss,10,left,5,ITC_choice,545,j,0,0,87,375062,1402274
34,18,female,Belg,3,119,ITC,loss,10,left,5,ITC_wait,0,undefined,0,0,87,375058,1402278
34,18,female,Belg,3,119,ITC,loss,10,left,5,ITC_collect,274,k,0,0,87,374782,1402554
34,18,female,Belg,3,119,ITC,loss,10,left,5,ITC_outcome,0,undefined,0,0,92,373769,1403567
34,18,female,Belg,3,120,guess,win,10,left,7,guess_start,260,space,0,0,92,373506,1403830
34,18,female,Belg,3,120,guess,win,10,left,7,guess_choice,366,f,0,0,92,373137,1404199
34,18,female,Belg,3,120,guess,win,10,left,7,guess_outcome,0,undefined,0,0,112,371569,1405767
34,18,female,Belg,3,120,ITC,win,10,left,7,ITC_start,297,space,0,0,112,371270,1406066
34,18,female,Belg,3,120,ITC,win,10,left,7,ITC_choice,560,f,0,0,112,370708,1406628
34,18,female,Belg,3,120,ITC,win,10,left,7,ITC_wait,0,undefined,0,0,112,360693,1416643
34,18,female,Belg,3,120,ITC,win,10,left,7,ITC_collect,348,k,0,0,112,360343,1416993
34,18,female,Belg,3,120,ITC,win,10,left,7,ITC_outcome,0,undefined,0,0,132,359333,1418003
34,18,female,Belg,3,121,guess,neutral,10,right,5,guess_start,102,space,0,0,132,359228,1418108
34,18,female,Belg,3,121,guess,neutral,10,right,5,guess_choice,448,f,0,0,132,358776,1418560
34,18,female,Belg,3,121,guess,neutral,10,right,5,guess_outcome,0,undefined,0,0,132,357222,1420114
34,18,female,Belg,3,121,ITC,neutral,10,right,5,ITC_start,317,space,0,0,132,356903,1420433
34,18,female,Belg,3,121,ITC,neutral,10,right,5,ITC_choice,350,j,0,0,132,356551,1420785
34,18,female,Belg,3,121,ITC,neutral,10,right,5,ITC_wait,0,undefined,0,0,132,346545,1430791
34,18,female,Belg,3,121,ITC,neutral,10,right,5,ITC_collect,520,k,0,0,132,346022,1431314
34,18,female,Belg,3,121,ITC,neutral,10,right,5,ITC_outcome,0,undefined,0,0,152,345001,1432335
34,18,female,Belg,3,122,guess,neutral,5,right,4,guess_start,642,space,0,0,152,344356,1432980
34,18,female,Belg,3,122,guess,neutral,5,right,4,guess_choice,578,f,0,0,152,343773,1433563
34,18,female,Belg,3,122,guess,neutral,5,right,4,guess_outcome,0,undefined,0,0,152,342201,1435135
34,18,female,Belg,3,122,ITC,neutral,5,right,4,ITC_start,291,space,0,0,152,341908,1435428
34,18,female,Belg,3,122,ITC,neutral,5,right,4,ITC_choice,687,j,0,0,152,341219,1436117
34,18,female,Belg,3,122,ITC,neutral,5,right,4,ITC_wait,0,undefined,0,0,152,336211,1441125
34,18,female,Belg,3,122,ITC,neutral,5,right,4,ITC_collect,403,k,0,0,152,335806,1441530
34,18,female,Belg,3,122,ITC,neutral,5,right,4,ITC_outcome,0,undefined,0,0,172,334791,1442545
34,18,female,Belg,3,123,guess,neutral,5,left,14,guess_start,298,space,0,0,172,334490,1442846
34,18,female,Belg,3,123,guess,neutral,5,left,14,guess_choice,492,j,0,0,172,333994,1443342
34,18,female,Belg,3,123,guess,neutral,5,left,14,guess_outcome,0,undefined,0,0,172,332431,1444905
34,18,female,Belg,3,123,ITC,neutral,5,left,14,ITC_start,306,space,0,0,172,332123,1445213
34,18,female,Belg,3,123,ITC,neutral,5,left,14,ITC_choice,773,j,0,0,172,331348,1445988
34,18,female,Belg,3,123,ITC,neutral,5,left,14,ITC_wait,0,undefined,0,0,172,331345,1445991
34,18,female,Belg,3,123,ITC,neutral,5,left,14,ITC_collect,356,k,0,0,172,330987,1446349
34,18,female,Belg,3,123,ITC,neutral,5,left,14,ITC_outcome,0,undefined,0,0,186,329981,1447355
34,18,female,Belg,3,124,guess,win,5,left,10,guess_start,199,space,0,0,186,329779,1447557
34,18,female,Belg,3,124,guess,win,5,left,10,guess_choice,462,j,0,0,186,329314,1448022
34,18,female,Belg,3,124,guess,win,5,left,10,guess_outcome,0,undefined,0,0,206,327741,1449595
34,18,female,Belg,3,124,ITC,win,5,left,10,ITC_start,475,space,0,0,206,327264,1450072
34,18,female,Belg,3,124,ITC,win,5,left,10,ITC_choice,767,j,0,0,206,326495,1450841
34,18,female,Belg,3,124,ITC,win,5,left,10,ITC_wait,0,undefined,0,0,206,326491,1450845
34,18,female,Belg,3,124,ITC,win,5,left,10,ITC_collect,350,k,0,0,206,326139,1451197
34,18,female,Belg,3,124,ITC,win,5,left,10,ITC_outcome,0,undefined,0,0,216,325131,1452205
34,18,female,Belg,3,125,guess,loss,5,right,8,guess_start,202,space,0,0,216,324927,1452409
34,18,female,Belg,3,125,guess,loss,5,right,8,guess_choice,595,f,0,0,216,324328,1453008
34,18,female,Belg,3,125,guess,loss,5,right,8,guess_outcome,0,undefined,0,0,201,322771,1454565
34,18,female,Belg,3,125,ITC,loss,5,right,8,ITC_start,291,space,0,0,201,322478,1454858
34,18,female,Belg,3,125,ITC,loss,5,right,8,ITC_choice,955,j,0,0,201,321521,1455815
34,18,female,Belg,3,125,ITC,loss,5,right,8,ITC_wait,0,undefined,0,0,201,316509,1460827
34,18,female,Belg,3,125,ITC,loss,5,right,8,ITC_collect,283,k,0,0,201,316224,1461112
34,18,female,Belg,3,125,ITC,loss,5,right,8,ITC_outcome,0,undefined,0,0,221,315220,1462116
34,18,female,Belg,3,126,guess,win,10,right,3,guess_start,294,space,0,0,221,314923,1462413
34,18,female,Belg,3,126,guess,win,10,right,3,guess_choice,371,j,0,0,221,314547,1462789
34,18,female,Belg,3,126,guess,win,10,right,3,guess_outcome,0,undefined,0,0,241,312980,1464356
34,18,female,Belg,3,126,ITC,win,10,right,3,ITC_start,357,space,0,0,241,312621,1464715
34,18,female,Belg,3,126,ITC,win,10,right,3,ITC_choice,453,j,0,0,241,312166,1465170
34,18,female,Belg,3,126,ITC,win,10,right,3,ITC_wait,0,undefined,0,0,241,302153,1475183
34,18,female,Belg,3,126,ITC,win,10,right,3,ITC_collect,347,k,0,0,241,301804,1475532
34,18,female,Belg,3,126,ITC,win,10,right,3,ITC_outcome,0,undefined,0,0,261,300795,1476541
34,18,female,Belg,3,127,guess,loss,5,right,10,guess_start,291,space,0,0,261,300501,1476835
34,18,female,Belg,3,127,guess,loss,5,right,10,guess_choice,339,f,0,0,261,300157,1477179
34,18,female,Belg,3,127,guess,loss,5,right,10,guess_outcome,0,undefined,0,0,246,298595,1478741
34,18,female,Belg,3,127,ITC,loss,5,right,10,ITC_start,377,space,0,0,246,298216,1479120
34,18,female,Belg,3,127,ITC,loss,5,right,10,ITC_choice,566,j,0,0,246,297648,1479688
34,18,female,Belg,3,127,ITC,loss,5,right,10,ITC_wait,0,undefined,0,0,246,292629,1484707
34,18,female,Belg,3,127,ITC,loss,5,right,10,ITC_collect,344,k,0,0,246,292283,1485053
34,18,female,Belg,3,127,ITC,loss,5,right,10,ITC_outcome,0,undefined,0,0,266,291265,1486071
34,18,female,Belg,3,128,guess,win,5,left,5,guess_start,242,space,0,0,266,291021,1486315
34,18,female,Belg,3,128,guess,win,5,left,5,guess_choice,374,j,0,0,266,290643,1486693
34,18,female,Belg,3,128,guess,win,5,left,5,guess_outcome,0,undefined,0,0,286,289085,1488251
34,18,female,Belg,3,128,ITC,win,5,left,5,ITC_start,488,space,0,0,286,288595,1488741
34,18,female,Belg,3,128,ITC,win,5,left,5,ITC_choice,468,j,0,0,286,288125,1489211
34,18,female,Belg,3,128,ITC,win,5,left,5,ITC_wait,0,undefined,0,0,286,288122,1489214
34,18,female,Belg,3,128,ITC,win,5,left,5,ITC_collect,442,k,0,0,286,287678,1489658
34,18,female,Belg,3,128,ITC,win,5,left,5,ITC_outcome,0,undefined,0,0,291,286665,1490671
34,18,female,Belg,3,129,guess,win,10,left,8,guess_start,220,space,0,0,291,286443,1490893
34,18,female,Belg,3,129,guess,win,10,left,8,guess_choice,397,j,0,0,291,286042,1491294
34,18,female,Belg,3,129,guess,win,10,left,8,guess_outcome,0,undefined,0,0,311,284476,1492860
34,18,female,Belg,3,129,ITC,win,10,left,8,ITC_start,375,space,0,0,311,284098,1493238
34,18,female,Belg,3,129,ITC,win,10,left,8,ITC_choice,479,j,0,0,311,283617,1493719
34,18,female,Belg,3,129,ITC,win,10,left,8,ITC_wait,0,undefined,0,0,311,283614,1493722
34,18,female,Belg,3,129,ITC,win,10,left,8,ITC_collect,297,k,0,0,311,283315,1494021
34,18,female,Belg,3,129,ITC,win,10,left,8,ITC_outcome,0,undefined,0,0,319,282295,1495041
34,18,female,Belg,3,130,guess,win,5,left,7,guess_start,240,space,0,0,319,282053,1495283
34,18,female,Belg,3,130,guess,win,5,left,7,guess_choice,347,j,0,0,319,281703,1495633
34,18,female,Belg,3,130,guess,win,5,left,7,guess_outcome,0,undefined,0,0,339,280135,1497201
34,18,female,Belg,3,130,ITC,win,5,left,7,ITC_start,422,space,0,0,339,279712,1497624
34,18,female,Belg,3,130,ITC,win,5,left,7,ITC_wait,0,undefined,0,0,339,279343,1497993
34,18,female,Belg,3,130,ITC,win,5,left,7,ITC_choice,362,j,0,0,339,279346,1497990
34,18,female,Belg,3,130,ITC,win,5,left,7,ITC_collect,528,k,0,0,339,278813,1498523
34,18,female,Belg,3,130,ITC,win,5,left,7,ITC_outcome,0,undefined,0,0,346,277805,1499531
34,18,female,Belg,3,131,guess,neutral,5,left,3,guess_start,226,space,0,0,346,277577,1499759
34,18,female,Belg,3,131,guess,neutral,5,left,3,guess_choice,944,f,0,0,346,276628,1500708
34,18,female,Belg,3,131,guess,neutral,5,left,3,guess_outcome,0,undefined,0,0,346,275059,1502277
34,18,female,Belg,3,131,ITC,neutral,5,left,3,ITC_start,361,space,0,0,346,274697,1502639
34,18,female,Belg,3,131,ITC,neutral,5,left,3,ITC_choice,434,j,0,0,346,274261,1503075
34,18,female,Belg,3,131,ITC,neutral,5,left,3,ITC_wait,0,undefined,0,0,346,274257,1503079
34,18,female,Belg,3,131,ITC,neutral,5,left,3,ITC_collect,339,k,0,0,346,273916,1503420
34,18,female,Belg,3,131,ITC,neutral,5,left,3,ITC_outcome,0,undefined,0,0,349,272899,1504437
34,18,female,Belg,3,132,guess,neutral,5,left,13,guess_start,258,space,0,0,349,272639,1504697
34,18,female,Belg,3,132,guess,neutral,5,left,13,guess_choice,373,f,0,0,349,272262,1505074
34,18,female,Belg,3,132,guess,neutral,5,left,13,guess_outcome,0,undefined,0,0,349,270700,1506636
34,18,female,Belg,3,132,ITC,neutral,5,left,13,ITC_start,293,space,0,0,349,270403,1506933
34,18,female,Belg,3,132,ITC,neutral,5,left,13,ITC_choice,722,j,0,0,349,269679,1507657
34,18,female,Belg,3,132,ITC,neutral,5,left,13,ITC_wait,0,undefined,0,0,349,269676,1507660
34,18,female,Belg,3,132,ITC,neutral,5,left,13,ITC_collect,438,k,0,0,349,269237,1508099
34,18,female,Belg,3,132,ITC,neutral,5,left,13,ITC_outcome,0,undefined,0,0,362,268230,1509106
34,18,female,Belg,3,133,guess,loss,10,left,2,guess_start,237,space,0,0,362,267990,1509346
34,18,female,Belg,3,133,guess,loss,10,left,2,guess_choice,477,f,0,0,362,267509,1509827
34,18,female,Belg,3,133,guess,loss,10,left,2,guess_outcome,0,undefined,0,0,347,265950,1511386
34,18,female,Belg,3,133,ITC,loss,10,left,2,ITC_start,405,space,0,0,347,265543,1511793
34,18,female,Belg,3,133,ITC,loss,10,left,2,ITC_wait,0,undefined,0,0,347,265168,1512168
34,18,female,Belg,3,133,ITC,loss,10,left,2,ITC_choice,369,j,0,0,347,265172,1512164
34,18,female,Belg,3,133,ITC,loss,10,left,2,ITC_collect,319,k,0,0,347,264848,1512488
34,18,female,Belg,3,133,ITC,loss,10,left,2,ITC_outcome,0,undefined,0,0,349,263840,1513496
34,18,female,Belg,3,134,guess,neutral,5,right,5,guess_start,227,space,0,0,349,263610,1513726
34,18,female,Belg,3,134,guess,neutral,5,right,5,guess_choice,1101,f,0,0,349,262506,1514830
34,18,female,Belg,3,134,guess,neutral,5,right,5,guess_outcome,0,undefined,0,0,349,260935,1516401
34,18,female,Belg,3,134,ITC,neutral,5,right,5,ITC_start,409,space,0,0,349,260525,1516811
34,18,female,Belg,3,134,ITC,neutral,5,right,5,ITC_choice,368,j,0,0,349,260155,1517181
34,18,female,Belg,3,134,ITC,neutral,5,right,5,ITC_wait,0,undefined,0,0,349,255145,1522191
34,18,female,Belg,3,134,ITC,neutral,5,right,5,ITC_collect,264,k,0,0,349,254879,1522457
34,18,female,Belg,3,134,ITC,neutral,5,right,5,ITC_outcome,0,undefined,0,0,369,253865,1523471
34,18,female,Belg,3,135,guess,loss,5,right,11,guess_start,241,space,0,0,369,253622,1523714
34,18,female,Belg,3,135,guess,loss,5,right,11,guess_choice,321,f,0,0,369,253296,1524040
34,18,female,Belg,3,135,guess,loss,5,right,11,guess_outcome,0,undefined,0,0,354,251725,1525611
34,18,female,Belg,3,135,ITC,loss,5,right,11,ITC_start,418,space,0,0,354,251305,1526031
34,18,female,Belg,3,135,ITC,loss,5,right,11,ITC_choice,344,j,0,0,354,250959,1526377
34,18,female,Belg,3,135,ITC,loss,5,right,11,ITC_wait,0,undefined,0,0,354,245956,1531380
34,18,female,Belg,3,135,ITC,loss,5,right,11,ITC_collect,271,k,0,0,354,245682,1531654
34,18,female,Belg,3,135,ITC,loss,5,right,11,ITC_outcome,0,undefined,0,0,374,244679,1532657
34,18,female,Belg,3,136,guess,loss,10,right,4,guess_start,225,space,0,0,374,244451,1532885
34,18,female,Belg,3,136,guess,loss,10,right,4,guess_choice,301,j,0,0,374,244146,1533190
34,18,female,Belg,3,136,guess,loss,10,right,4,guess_outcome,0,undefined,0,0,359,242586,1534750
34,18,female,Belg,3,136,ITC,loss,10,right,4,ITC_start,1298,space,0,0,359,241285,1536051
34,18,female,Belg,3,136,ITC,loss,10,right,4,ITC_choice,639,j,0,0,359,240644,1536692
34,18,female,Belg,3,136,ITC,loss,10,right,4,ITC_wait,0,undefined,0,0,359,230627,1546709
34,18,female,Belg,3,136,ITC,loss,10,right,4,ITC_collect,309,k,0,0,359,230316,1547020
34,18,female,Belg,3,136,ITC,loss,10,right,4,ITC_outcome,0,undefined,0,0,379,229303,1548033
34,18,female,Belg,3,137,guess,win,10,left,5,guess_start,279,space,0,0,379,229021,1548315
34,18,female,Belg,3,137,guess,win,10,left,5,guess_choice,350,j,0,0,379,228668,1548668
34,18,female,Belg,3,137,guess,win,10,left,5,guess_outcome,0,undefined,0,0,399,227093,1550243
34,18,female,Belg,3,137,ITC,win,10,left,5,ITC_start,310,space,0,0,399,226781,1550555
34,18,female,Belg,3,137,ITC,win,10,left,5,ITC_choice,495,j,0,0,399,226284,1551052
34,18,female,Belg,3,137,ITC,win,10,left,5,ITC_wait,0,undefined,0,0,399,226281,1551055
34,18,female,Belg,3,137,ITC,win,10,left,5,ITC_collect,324,k,0,0,399,225955,1551381
34,18,female,Belg,3,137,ITC,win,10,left,5,ITC_outcome,0,undefined,0,0,404,224933,1552403
34,18,female,Belg,3,138,guess,win,5,left,8,guess_start,235,space,0,0,404,224694,1552642
34,18,female,Belg,3,138,guess,win,5,left,8,guess_choice,640,f,0,0,404,224051,1553285
34,18,female,Belg,3,138,guess,win,5,left,8,guess_outcome,0,undefined,0,0,424,222497,1554839
34,18,female,Belg,3,138,ITC,win,5,left,8,ITC_start,146,space,0,0,424,222348,1554988
34,18,female,Belg,3,138,ITC,win,5,left,8,ITC_choice,394,j,0,0,424,221952,1555384
34,18,female,Belg,3,138,ITC,win,5,left,8,ITC_wait,0,undefined,0,0,424,221949,1555387
34,18,female,Belg,3,138,ITC,win,5,left,8,ITC_collect,257,k,0,0,424,221690,1555646
34,18,female,Belg,3,138,ITC,win,5,left,8,ITC_outcome,0,undefined,0,0,432,220683,1556653
34,18,female,Belg,3,139,guess,win,10,left,4,guess_start,198,space,0,0,432,220483,1556853
34,18,female,Belg,3,139,guess,win,10,left,4,guess_choice,296,f,0,0,432,220183,1557153
34,18,female,Belg,3,139,guess,win,10,left,4,guess_outcome,0,undefined,0,0,452,218613,1558723
34,18,female,Belg,3,139,ITC,win,10,left,4,ITC_start,334,space,0,0,452,218277,1559059
34,18,female,Belg,3,139,ITC,win,10,left,4,ITC_choice,342,j,0,0,452,217933,1559403
34,18,female,Belg,3,139,ITC,win,10,left,4,ITC_wait,0,undefined,0,0,452,217930,1559406
34,18,female,Belg,3,139,ITC,win,10,left,4,ITC_collect,735,k,0,0,452,217192,1560144
34,18,female,Belg,3,139,ITC,win,10,left,4,ITC_outcome,0,undefined,0,0,456,216173,1561163
34,18,female,Belg,3,140,guess,loss,5,right,2,guess_start,244,space,0,0,456,215927,1561409
34,18,female,Belg,3,140,guess,loss,5,right,2,guess_choice,337,j,0,0,456,215585,1561751
34,18,female,Belg,3,140,guess,loss,5,right,2,guess_outcome,0,undefined,0,0,441,214012,1563324
34,18,female,Belg,3,140,ITC,loss,5,right,2,ITC_start,396,space,0,0,441,213614,1563722
34,18,female,Belg,3,140,ITC,loss,5,right,2,ITC_choice,307,j,0,0,441,213305,1564031
34,18,female,Belg,3,140,ITC,loss,5,right,2,ITC_wait,0,undefined,0,0,441,208303,1569033
34,18,female,Belg,3,140,ITC,loss,5,right,2,ITC_collect,286,k,0,0,441,208015,1569321
34,18,female,Belg,3,140,ITC,loss,5,right,2,ITC_outcome,0,undefined,0,0,461,206996,1570340
34,18,female,Belg,3,141,guess,loss,10,left,3,guess_start,257,space,0,0,461,206737,1570599
34,18,female,Belg,3,141,guess,loss,10,left,3,guess_choice,330,f,0,0,461,206402,1570934
34,18,female,Belg,3,141,guess,loss,10,left,3,guess_outcome,0,undefined,0,0,446,204843,1572493
34,18,female,Belg,3,141,ITC,loss,10,left,3,ITC_start,700,space,0,0,446,204141,1573195
34,18,female,Belg,3,141,ITC,loss,10,left,3,ITC_choice,656,j,0,0,446,203484,1573852
34,18,female,Belg,3,141,ITC,loss,10,left,3,ITC_wait,0,undefined,0,0,446,203479,1573857
34,18,female,Belg,3,141,ITC,loss,10,left,3,ITC_collect,307,k,0,0,446,203170,1574166
34,18,female,Belg,3,141,ITC,loss,10,left,3,ITC_outcome,0,undefined,0,0,449,202153,1575183
34,18,female,Belg,3,142,guess,neutral,10,right,2,guess_start,284,space,0,0,449,201867,1575469
34,18,female,Belg,3,142,guess,neutral,10,right,2,guess_choice,756,f,0,0,449,201107,1576229
34,18,female,Belg,3,142,guess,neutral,10,right,2,guess_outcome,0,undefined,0,0,449,199543,1577793
34,18,female,Belg,3,142,ITC,neutral,10,right,2,ITC_start,388,space,0,0,449,199153,1578183
34,18,female,Belg,3,142,ITC,neutral,10,right,2,ITC_choice,454,j,0,0,449,198696,1578640
34,18,female,Belg,3,142,ITC,neutral,10,right,2,ITC_wait,0,undefined,0,0,449,188690,1588646
34,18,female,Belg,3,142,ITC,neutral,10,right,2,ITC_collect,384,k,0,0,449,188304,1589032
34,18,female,Belg,3,142,ITC,neutral,10,right,2,ITC_outcome,0,undefined,0,0,469,187297,1590039
34,18,female,Belg,3,143,guess,neutral,10,left,3,guess_start,641,space,0,0,469,186653,1590683
34,18,female,Belg,3,143,guess,neutral,10,left,3,guess_choice,326,f,0,0,469,186323,1591013
34,18,female,Belg,3,143,guess,neutral,10,left,3,guess_outcome,0,undefined,0,0,469,184750,1592586
34,18,female,Belg,3,143,ITC,neutral,10,left,3,ITC_start,275,space,0,0,469,184473,1592863
34,18,female,Belg,3,143,ITC,neutral,10,left,3,ITC_choice,308,j,0,0,469,184163,1593173
34,18,female,Belg,3,143,ITC,neutral,10,left,3,ITC_wait,0,undefined,0,0,469,184159,1593177
34,18,female,Belg,3,143,ITC,neutral,10,left,3,ITC_collect,368,k,0,0,469,183789,1593547
34,18,female,Belg,3,143,ITC,neutral,10,left,3,ITC_outcome,0,undefined,0,0,472,182780,1594556
34,18,female,Belg,3,144,guess,neutral,5,right,2,guess_start,267,space,0,0,472,182511,1594825
34,18,female,Belg,3,144,guess,neutral,5,right,2,guess_choice,382,j,0,0,472,182125,1595211
34,18,female,Belg,3,144,guess,neutral,5,right,2,guess_outcome,0,undefined,0,0,472,180550,1596786
34,18,female,Belg,3,144,ITC,neutral,5,right,2,ITC_start,257,space,0,0,472,180290,1597046
34,18,female,Belg,3,144,ITC,neutral,5,right,2,ITC_choice,777,j,0,0,472,179511,1597825
34,18,female,Belg,3,144,ITC,neutral,5,right,2,ITC_wait,0,undefined,0,0,472,174500,1602836
34,18,female,Belg,3,144,ITC,neutral,5,right,2,ITC_collect,319,k,0,0,472,174179,1603157
34,18,female,Belg,3,144,ITC,neutral,5,right,2,ITC_outcome,0,undefined,0,0,492,173170,1604166
34,18,female,Belg,3,145,guess,win,10,left,6,guess_start,210,space,0,0,492,172957,1604379
