subjectID,age,gender,nationality,block_number,trial_number,trial_type,guess_outcome,delay_time,delay_pos,immediate_amount,stage,respRT,respKey,blur_count,focus_count,total_points,remaining_duration,time_elapsed
48,19,female,Belg,1,1,guess,neutral,5,right,16,guess_start,2748,space,0,0,0,477248,472410
48,19,female,Belg,1,1,guess,neutral,5,right,16,guess_choice,914,j,0,0,0,476326,473332
48,19,female,Belg,1,1,guess,neutral,5,right,16,guess_outcome,0,undefined,0,0,0,474764,474894
48,19,female,Belg,1,1,ITC,neutral,5,right,16,ITC_start,1396,space,0,0,0,473362,476296
48,19,female,Belg,1,1,ITC,neutral,5,right,16,ITC_choice,1791,f,0,0,0,471567,478091
48,19,female,Belg,1,1,ITC,neutral,5,right,16,ITC_wait,0,undefined,0,0,0,471561,478097
48,19,female,Belg,1,1,ITC,neutral,5,right,16,ITC_collect,850,k,0,0,0,470709,478949
48,19,female,Belg,1,1,ITC,neutral,5,right,16,ITC_outcome,0,undefined,0,0,16,469702,479956
48,19,female,Belg,1,2,guess,loss,10,right,7,guess_start,2724,space,0,0,16,466969,482689
48,19,female,Belg,1,2,guess,loss,10,right,7,guess_choice,1130,f,0,0,16,465831,483827
48,19,female,Belg,1,2,guess,loss,10,right,7,guess_outcome,0,undefined,0,0,1,464270,485388
48,19,female,Belg,1,2,ITC,loss,10,right,7,ITC_start,1819,space,0,0,1,462447,487211
48,19,female,Belg,1,2,ITC,loss,10,right,7,ITC_choice,2249,f,0,0,1,460195,489463
48,19,female,Belg,1,2,ITC,loss,10,right,7,ITC_wait,0,undefined,0,0,1,460189,489469
48,19,female,Belg,1,2,ITC,loss,10,right,7,ITC_collect,567,k,0,0,1,459620,490038
48,19,female,Belg,1,2,ITC,loss,10,right,7,ITC_outcome,0,undefined,0,0,8,458614,491044
48,19,female,Belg,1,3,guess,win,10,left,7,guess_start,1818,space,0,0,8,456791,492867
48,19,female,Belg,1,3,guess,win,10,left,7,guess_choice,1160,f,0,0,8,455624,494034
48,19,female,Belg,1,3,guess,win,10,left,7,guess_outcome,0,undefined,0,0,28,454066,495592
48,19,female,Belg,1,3,ITC,win,10,left,7,ITC_start,1655,space,0,0,28,452408,497250
48,19,female,Belg,1,3,ITC,win,10,left,7,ITC_choice,1750,f,0,0,28,450655,499003
48,19,female,Belg,1,3,ITC,win,10,left,7,ITC_wait,0,undefined,0,0,28,440647,509011
48,19,female,Belg,1,3,ITC,win,10,left,7,ITC_collect,814,k,0,0,28,439831,509827
48,19,female,Belg,1,3,ITC,win,10,left,7,ITC_outcome,0,undefined,0,0,48,438823,510835
48,19,female,Belg,1,4,guess,neutral,10,right,4,guess_start,1694,space,0,0,48,437125,512533
48,19,female,Belg,1,4,guess,neutral,10,right,4,guess_choice,759,j,0,0,48,436359,513299
48,19,female,Belg,1,4,guess,neutral,10,right,4,guess_outcome,0,undefined,0,0,48,434803,514855
48,19,female,Belg,1,4,ITC,neutral,10,right,4,ITC_start,1620,space,0,0,48,433181,516477
48,19,female,Belg,1,4,ITC,neutral,10,right,4,ITC_choice,2780,f,0,0,48,430397,519261
48,19,female,Belg,1,4,ITC,neutral,10,right,4,ITC_wait,0,undefined,0,0,48,430393,519265
48,19,female,Belg,1,4,ITC,neutral,10,right,4,ITC_collect,1125,k,0,0,48,429266,520392
48,19,female,Belg,1,4,ITC,neutral,10,right,4,ITC_outcome,0,undefined,0,0,52,428257,521401
48,19,female,Belg,1,5,guess,loss,5,left,15,guess_start,633,space,0,0,52,427619,522039
48,19,female,Belg,1,5,guess,loss,5,left,15,guess_choice,825,j,0,0,52,426789,522869
48,19,female,Belg,1,5,guess,loss,5,left,15,guess_outcome,0,undefined,0,0,37,425230,524428
48,19,female,Belg,1,5,ITC,loss,5,left,15,ITC_start,539,space,0,0,37,424686,524972
48,19,female,Belg,1,5,ITC,loss,5,left,15,ITC_choice,1134,j,0,0,37,423549,526109
48,19,female,Belg,1,5,ITC,loss,5,left,15,ITC_wait,0,undefined,0,0,37,423545,526113
48,19,female,Belg,1,5,ITC,loss,5,left,15,ITC_collect,788,k,0,0,37,422755,526903
48,19,female,Belg,1,5,ITC,loss,5,left,15,ITC_outcome,0,undefined,0,0,52,421749,527909
48,19,female,Belg,1,6,guess,neutral,5,right,15,guess_start,569,space,0,0,52,421175,528483
48,19,female,Belg,1,6,guess,neutral,5,right,15,guess_choice,687,f,0,0,52,420481,529177
48,19,female,Belg,1,6,guess,neutral,5,right,15,guess_outcome,0,undefined,0,0,52,418920,530738
48,19,female,Belg,1,6,ITC,neutral,5,right,15,ITC_start,1780,space,0,0,52,417137,532521
48,19,female,Belg,1,6,ITC,neutral,5,right,15,ITC_choice,1685,f,0,0,52,415449,534209
48,19,female,Belg,1,6,ITC,neutral,5,right,15,ITC_wait,0,undefined,0,0,52,415444,534214
48,19,female,Belg,1,6,ITC,neutral,5,right,15,ITC_collect,758,k,0,0,52,414684,534974
48,19,female,Belg,1,6,ITC,neutral,5,right,15,ITC_outcome,0,undefined,0,0,67,413679,535979
48,19,female,Belg,1,7,guess,loss,5,left,7,guess_start,696,space,0,0,67,412979,536679
48,19,female,Belg,1,7,guess,loss,5,left,7,guess_choice,806,j,0,0,67,412166,537492
48,19,female,Belg,1,7,guess,loss,5,left,7,guess_outcome,0,undefined,0,0,52,410611,539047
48,19,female,Belg,1,7,ITC,loss,5,left,7,ITC_start,609,space,0,0,52,410000,539658
48,19,female,Belg,1,7,ITC,loss,5,left,7,ITC_choice,964,j,0,0,52,409032,540626
48,19,female,Belg,1,7,ITC,loss,5,left,7,ITC_wait,0,undefined,0,0,52,409027,540631
48,19,female,Belg,1,7,ITC,loss,5,left,7,ITC_collect,1063,k,0,0,52,407962,541696
48,19,female,Belg,1,7,ITC,loss,5,left,7,ITC_outcome,0,undefined,0,0,59,406953,542705
48,19,female,Belg,1,8,guess,win,5,right,3,guess_start,931,space,0,0,59,406018,543640
48,19,female,Belg,1,8,guess,win,5,right,3,guess_choice,894,j,0,0,59,405117,544541
48,19,female,Belg,1,8,guess,win,5,right,3,guess_outcome,0,undefined,0,0,79,403557,546101
48,19,female,Belg,1,8,ITC,win,5,right,3,ITC_start,560,space,0,0,79,402994,546664
48,19,female,Belg,1,8,ITC,win,5,right,3,ITC_choice,879,f,0,0,79,402111,547547
48,19,female,Belg,1,8,ITC,win,5,right,3,ITC_wait,0,undefined,0,0,79,402106,547552
48,19,female,Belg,1,8,ITC,win,5,right,3,ITC_collect,762,k,0,0,79,401343,548315
48,19,female,Belg,1,8,ITC,win,5,right,3,ITC_outcome,0,undefined,0,0,82,400334,549324
48,19,female,Belg,1,9,guess,neutral,5,left,14,guess_start,720,space,0,0,82,399609,550049
48,19,female,Belg,1,9,guess,neutral,5,left,14,guess_choice,648,j,0,0,82,398953,550705
48,19,female,Belg,1,9,guess,neutral,5,left,14,guess_outcome,0,undefined,0,0,82,397393,552265
48,19,female,Belg,1,9,ITC,neutral,5,left,14,ITC_start,679,space,0,0,82,396710,552948
48,19,female,Belg,1,9,ITC,neutral,5,left,14,ITC_choice,1224,f,0,0,82,395483,554175
48,19,female,Belg,1,9,ITC,neutral,5,left,14,ITC_wait,0,undefined,0,0,82,390475,559183
48,19,female,Belg,1,9,ITC,neutral,5,left,14,ITC_collect,759,k,0,0,82,389713,559945
48,19,female,Belg,1,9,ITC,neutral,5,left,14,ITC_outcome,0,undefined,0,0,102,388704,560954
48,19,female,Belg,1,10,guess,neutral,5,left,1,guess_start,1524,space,0,0,102,387175,562483
48,19,female,Belg,1,10,guess,neutral,5,left,1,guess_choice,573,j,0,0,102,386595,563063
48,19,female,Belg,1,10,guess,neutral,5,left,1,guess_outcome,0,undefined,0,0,102,385035,564623
48,19,female,Belg,1,10,ITC,neutral,5,left,1,ITC_start,826,space,0,0,102,384205,565453
48,19,female,Belg,1,10,ITC,neutral,5,left,1,ITC_choice,2054,f,0,0,102,382148,567510
48,19,female,Belg,1,10,ITC,neutral,5,left,1,ITC_wait,0,undefined,0,0,102,377140,572518
48,19,female,Belg,1,10,ITC,neutral,5,left,1,ITC_collect,432,k,0,0,102,376705,572953
48,19,female,Belg,1,10,ITC,neutral,5,left,1,ITC_outcome,0,undefined,0,0,122,375697,573961
48,19,female,Belg,1,11,guess,loss,5,right,16,guess_start,710,space,0,0,122,374982,574676
48,19,female,Belg,1,11,guess,loss,5,right,16,guess_choice,835,f,0,0,122,374141,575517
48,19,female,Belg,1,11,guess,loss,5,right,16,guess_outcome,0,undefined,0,0,107,372583,577075
48,19,female,Belg,1,11,ITC,loss,5,right,16,ITC_start,615,space,0,0,107,371965,577693
48,19,female,Belg,1,11,ITC,loss,5,right,16,ITC_choice,1077,f,0,0,107,370884,578774
48,19,female,Belg,1,11,ITC,loss,5,right,16,ITC_wait,0,undefined,0,0,107,370879,578779
48,19,female,Belg,1,11,ITC,loss,5,right,16,ITC_collect,592,k,0,0,107,370285,579373
48,19,female,Belg,1,11,ITC,loss,5,right,16,ITC_outcome,0,undefined,0,0,123,369279,580379
48,19,female,Belg,1,12,guess,neutral,5,left,13,guess_start,474,space,0,0,123,368800,580858
48,19,female,Belg,1,12,guess,neutral,5,left,13,guess_choice,633,j,0,0,123,368162,581496
48,19,female,Belg,1,12,guess,neutral,5,left,13,guess_outcome,0,undefined,0,0,123,366605,583053
48,19,female,Belg,1,12,ITC,neutral,5,left,13,ITC_start,496,space,0,0,123,366106,583552
48,19,female,Belg,1,12,ITC,neutral,5,left,13,ITC_choice,912,j,0,0,123,365190,584468
48,19,female,Belg,1,12,ITC,neutral,5,left,13,ITC_wait,0,undefined,0,0,123,365184,584474
48,19,female,Belg,1,12,ITC,neutral,5,left,13,ITC_collect,589,k,0,0,123,364593,585065
48,19,female,Belg,1,12,ITC,neutral,5,left,13,ITC_outcome,0,undefined,0,0,136,363587,586071
48,19,female,Belg,1,13,guess,loss,10,left,3,guess_start,395,space,0,0,136,363187,586471
48,19,female,Belg,1,13,guess,loss,10,left,3,guess_choice,719,f,0,0,136,362462,587196
48,19,female,Belg,1,13,guess,loss,10,left,3,guess_outcome,0,undefined,0,0,121,360901,588757
48,19,female,Belg,1,13,ITC,loss,10,left,3,ITC_start,59,space,0,0,121,360839,588819
48,19,female,Belg,1,13,ITC,loss,10,left,3,ITC_wait,0,undefined,0,0,121,359828,589830
48,19,female,Belg,1,13,ITC,loss,10,left,3,ITC_choice,1002,j,0,0,121,359833,589825
48,19,female,Belg,1,13,ITC,loss,10,left,3,ITC_collect,250,k,0,0,121,359577,590081
48,19,female,Belg,1,13,ITC,loss,10,left,3,ITC_outcome,0,undefined,0,0,124,358570,591088
48,19,female,Belg,1,14,guess,loss,5,left,4,guess_start,574,space,0,0,124,357992,591666
48,19,female,Belg,1,14,guess,loss,5,left,4,guess_choice,781,f,0,0,124,357205,592453
48,19,female,Belg,1,14,guess,loss,5,left,4,guess_outcome,0,undefined,0,0,109,355649,594009
48,19,female,Belg,1,14,ITC,loss,5,left,4,ITC_start,695,space,0,0,109,354952,594706
48,19,female,Belg,1,14,ITC,loss,5,left,4,ITC_choice,842,j,0,0,109,354106,595552
48,19,female,Belg,1,14,ITC,loss,5,left,4,ITC_wait,0,undefined,0,0,109,354101,595557
48,19,female,Belg,1,14,ITC,loss,5,left,4,ITC_collect,363,k,0,0,109,353736,595922
48,19,female,Belg,1,14,ITC,loss,5,left,4,ITC_outcome,0,undefined,0,0,113,352727,596931
48,19,female,Belg,1,15,guess,win,10,left,4,guess_start,356,space,0,0,113,352366,597292
48,19,female,Belg,1,15,guess,win,10,left,4,guess_choice,623,f,0,0,113,351737,597921
48,19,female,Belg,1,15,guess,win,10,left,4,guess_outcome,0,undefined,0,0,133,350179,599479
48,19,female,Belg,1,15,ITC,win,10,left,4,ITC_start,477,space,0,0,133,349698,599960
48,19,female,Belg,1,15,ITC,win,10,left,4,ITC_choice,725,j,0,0,133,348969,600689
48,19,female,Belg,1,15,ITC,win,10,left,4,ITC_wait,0,undefined,0,0,133,348965,600693
48,19,female,Belg,1,15,ITC,win,10,left,4,ITC_collect,435,k,0,0,133,348528,601130
48,19,female,Belg,1,15,ITC,win,10,left,4,ITC_outcome,0,undefined,0,0,137,347523,602135
48,19,female,Belg,1,16,guess,neutral,10,right,3,guess_start,426,space,0,0,137,347091,602567
48,19,female,Belg,1,16,guess,neutral,10,right,3,guess_choice,700,f,0,0,137,346384,603274
48,19,female,Belg,1,16,guess,neutral,10,right,3,guess_outcome,0,undefined,0,0,137,344824,604834
48,19,female,Belg,1,16,ITC,neutral,10,right,3,ITC_start,440,space,0,0,137,344381,605277
48,19,female,Belg,1,16,ITC,neutral,10,right,3,ITC_choice,1655,j,0,0,137,342723,606935
48,19,female,Belg,1,16,ITC,neutral,10,right,3,ITC_wait,0,undefined,0,0,137,332716,616942
48,19,female,Belg,1,16,ITC,neutral,10,right,3,ITC_collect,1656,k,0,0,137,331056,618602
48,19,female,Belg,1,16,ITC,neutral,10,right,3,ITC_outcome,0,undefined,0,0,157,330048,619610
48,19,female,Belg,1,17,guess,neutral,10,right,5,guess_start,3107,space,0,0,157,326936,622722
48,19,female,Belg,1,17,guess,neutral,10,right,5,guess_choice,602,j,0,0,157,326328,623330
48,19,female,Belg,1,17,guess,neutral,10,right,5,guess_outcome,0,undefined,0,0,157,324772,624886
48,19,female,Belg,1,17,ITC,neutral,10,right,5,ITC_start,11299,space,0,0,157,313470,636188
48,19,female,Belg,1,17,ITC,neutral,10,right,5,ITC_choice,897,f,0,0,157,312569,637089
48,19,female,Belg,1,17,ITC,neutral,10,right,5,ITC_wait,0,undefined,0,0,157,312563,637095
48,19,female,Belg,1,17,ITC,neutral,10,right,5,ITC_collect,614,k,0,0,157,311947,637711
48,19,female,Belg,1,17,ITC,neutral,10,right,5,ITC_outcome,0,undefined,0,0,162,310938,638720
48,19,female,Belg,1,18,guess,loss,5,right,2,guess_start,400,space,0,0,162,310534,639124
48,19,female,Belg,1,18,guess,loss,5,right,2,guess_choice,642,j,0,0,162,309887,639771
48,19,female,Belg,1,18,guess,loss,5,right,2,guess_outcome,0,undefined,0,0,147,308328,641330
48,19,female,Belg,1,18,ITC,loss,5,right,2,ITC_start,581,space,0,0,147,307744,641914
48,19,female,Belg,1,18,ITC,loss,5,right,2,ITC_choice,1491,j,0,0,147,306250,643408
48,19,female,Belg,1,18,ITC,loss,5,right,2,ITC_wait,0,undefined,0,0,147,301242,648416
48,19,female,Belg,1,18,ITC,loss,5,right,2,ITC_collect,898,k,0,0,147,300340,649318
48,19,female,Belg,1,18,ITC,loss,5,right,2,ITC_outcome,0,undefined,0,0,167,299334,650324
48,19,female,Belg,1,19,guess,win,5,left,12,guess_start,402,space,0,0,167,298927,650731
48,19,female,Belg,1,19,guess,win,5,left,12,guess_choice,788,f,0,0,167,298133,651525
48,19,female,Belg,1,19,guess,win,5,left,12,guess_outcome,0,undefined,0,0,187,296577,653081
48,19,female,Belg,1,19,ITC,win,5,left,12,ITC_start,497,space,0,0,187,296076,653582
48,19,female,Belg,1,19,ITC,win,5,left,12,ITC_choice,917,j,0,0,187,295156,654502
48,19,female,Belg,1,19,ITC,win,5,left,12,ITC_wait,0,undefined,0,0,187,295151,654507
48,19,female,Belg,1,19,ITC,win,5,left,12,ITC_collect,402,k,0,0,187,294748,654910
48,19,female,Belg,1,19,ITC,win,5,left,12,ITC_outcome,0,undefined,0,0,199,293741,655917
48,19,female,Belg,1,20,guess,loss,5,left,14,guess_start,471,space,0,0,199,293266,656392
48,19,female,Belg,1,20,guess,loss,5,left,14,guess_choice,674,f,0,0,199,292587,657071
48,19,female,Belg,1,20,guess,loss,5,left,14,guess_outcome,0,undefined,0,0,184,291028,658630
48,19,female,Belg,1,20,ITC,loss,5,left,14,ITC_start,1596,space,0,0,184,289429,660229
48,19,female,Belg,1,20,ITC,loss,5,left,14,ITC_choice,1769,f,0,0,184,287656,662002
48,19,female,Belg,1,20,ITC,loss,5,left,14,ITC_wait,0,undefined,0,0,184,282652,667006
48,19,female,Belg,1,20,ITC,loss,5,left,14,ITC_collect,2928,k,0,0,184,279720,669938
48,19,female,Belg,1,20,ITC,loss,5,left,14,ITC_outcome,0,undefined,0,0,204,278716,670942
48,19,female,Belg,1,21,guess,loss,10,left,1,guess_start,494,space,0,0,204,278217,671441
48,19,female,Belg,1,21,guess,loss,10,left,1,guess_choice,1099,j,0,0,204,277113,672545
48,19,female,Belg,1,21,guess,loss,10,left,1,guess_outcome,0,undefined,0,0,189,275553,674105
48,19,female,Belg,1,21,ITC,loss,10,left,1,ITC_start,360,space,0,0,189,275190,674468
48,19,female,Belg,1,21,ITC,loss,10,left,1,ITC_choice,2001,f,0,0,189,273185,676473
48,19,female,Belg,1,21,ITC,loss,10,left,1,ITC_wait,0,undefined,0,0,189,263180,686478
48,19,female,Belg,1,21,ITC,loss,10,left,1,ITC_collect,5519,k,0,0,189,257657,692001
48,19,female,Belg,1,21,ITC,loss,10,left,1,ITC_outcome,0,undefined,0,0,209,256652,693006
48,19,female,Belg,1,22,guess,neutral,10,left,7,guess_start,570,space,0,0,209,256077,693581
48,19,female,Belg,1,22,guess,neutral,10,left,7,guess_choice,1753,f,0,0,209,254318,695340
48,19,female,Belg,1,22,guess,neutral,10,left,7,guess_outcome,0,undefined,0,0,209,252763,696895
48,19,female,Belg,1,22,ITC,neutral,10,left,7,ITC_start,446,space,0,0,209,252314,697344
48,19,female,Belg,1,22,ITC,neutral,10,left,7,ITC_choice,924,j,0,0,209,251386,698272
48,19,female,Belg,1,22,ITC,neutral,10,left,7,ITC_wait,0,undefined,0,0,209,251381,698277
48,19,female,Belg,1,22,ITC,neutral,10,left,7,ITC_collect,343,k,0,0,209,251035,698623
48,19,female,Belg,1,22,ITC,neutral,10,left,7,ITC_outcome,0,undefined,0,0,216,250026,699632
48,19,female,Belg,1,23,guess,win,10,left,1,guess_start,40,space,0,0,216,249982,699676
48,19,female,Belg,1,23,guess,win,10,left,1,guess_choice,678,f,0,0,216,249299,700359
48,19,female,Belg,1,23,guess,win,10,left,1,guess_outcome,0,undefined,0,0,236,247739,701919
48,19,female,Belg,1,23,ITC,win,10,left,1,ITC_start,425,space,0,0,236,247312,702346
48,19,female,Belg,1,23,ITC,win,10,left,1,ITC_choice,880,f,0,0,236,246428,703230
48,19,female,Belg,1,23,ITC,win,10,left,1,ITC_wait,0,undefined,0,0,236,236420,713238
48,19,female,Belg,1,23,ITC,win,10,left,1,ITC_collect,692,k,0,0,236,235725,713933
48,19,female,Belg,1,23,ITC,win,10,left,1,ITC_outcome,0,undefined,0,0,256,234716,714942
48,19,female,Belg,1,24,guess,loss,5,left,11,guess_start,927,space,0,0,256,233784,715874
48,19,female,Belg,1,24,guess,loss,5,left,11,guess_choice,676,f,0,0,256,233102,716556
48,19,female,Belg,1,24,guess,loss,5,left,11,guess_outcome,0,undefined,0,0,241,231543,718115
48,19,female,Belg,1,24,ITC,loss,5,left,11,ITC_start,566,space,0,0,241,230972,718686
48,19,female,Belg,1,24,ITC,loss,5,left,11,ITC_choice,1627,f,0,0,241,229342,720316
48,19,female,Belg,1,24,ITC,loss,5,left,11,ITC_wait,0,undefined,0,0,241,224335,725323
48,19,female,Belg,1,24,ITC,loss,5,left,11,ITC_collect,514,k,0,0,241,223818,725840
48,19,female,Belg,1,24,ITC,loss,5,left,11,ITC_outcome,0,undefined,0,0,261,222809,726849
48,19,female,Belg,1,25,guess,neutral,5,left,11,guess_start,483,space,0,0,261,222321,727337
48,19,female,Belg,1,25,guess,neutral,5,left,11,guess_choice,661,f,0,0,261,221654,728004
48,19,female,Belg,1,25,guess,neutral,5,left,11,guess_outcome,0,undefined,0,0,261,220096,729562
48,19,female,Belg,1,25,ITC,neutral,5,left,11,ITC_start,680,space,0,0,261,219412,730246
48,19,female,Belg,1,25,ITC,neutral,5,left,11,ITC_choice,1271,f,0,0,261,218137,731521
48,19,female,Belg,1,25,ITC,neutral,5,left,11,ITC_wait,0,undefined,0,0,261,213133,736525
48,19,female,Belg,1,25,ITC,neutral,5,left,11,ITC_collect,1136,k,0,0,261,211993,737665
48,19,female,Belg,1,25,ITC,neutral,5,left,11,ITC_outcome,0,undefined,0,0,281,210984,738674
48,19,female,Belg,1,26,guess,neutral,10,right,2,guess_start,902,space,0,0,281,210077,739581
48,19,female,Belg,1,26,guess,neutral,10,right,2,guess_choice,593,f,0,0,281,209476,740182
48,19,female,Belg,1,26,guess,neutral,10,right,2,guess_outcome,0,undefined,0,0,281,207919,741739
48,19,female,Belg,1,26,ITC,neutral,10,right,2,ITC_start,435,space,0,0,281,207480,742178
48,19,female,Belg,1,26,ITC,neutral,10,right,2,ITC_choice,1295,j,0,0,281,206182,743476
48,19,female,Belg,1,26,ITC,neutral,10,right,2,ITC_wait,0,undefined,0,0,281,196173,753485
48,19,female,Belg,1,26,ITC,neutral,10,right,2,ITC_collect,450,k,0,0,281,195719,753939
48,19,female,Belg,1,26,ITC,neutral,10,right,2,ITC_outcome,0,undefined,0,0,301,194710,754948
48,19,female,Belg,1,27,guess,loss,5,right,5,guess_start,710,space,0,0,301,193996,755662
48,19,female,Belg,1,27,guess,loss,5,right,5,guess_choice,642,f,0,0,301,193347,756311
48,19,female,Belg,1,27,guess,loss,5,right,5,guess_outcome,0,undefined,0,0,286,191789,757869
48,19,female,Belg,1,27,ITC,loss,5,right,5,ITC_start,452,space,0,0,286,191333,758325
48,19,female,Belg,1,27,ITC,loss,5,right,5,ITC_choice,805,f,0,0,286,190525,759133
48,19,female,Belg,1,27,ITC,loss,5,right,5,ITC_wait,0,undefined,0,0,286,190520,759138
48,19,female,Belg,1,27,ITC,loss,5,right,5,ITC_collect,393,k,0,0,286,190125,759533
48,19,female,Belg,1,27,ITC,loss,5,right,5,ITC_outcome,0,undefined,0,0,291,189119,760539
48,19,female,Belg,1,28,guess,loss,5,right,10,guess_start,515,space,0,0,291,188599,761059
48,19,female,Belg,1,28,guess,loss,5,right,10,guess_choice,596,j,0,0,291,187997,761661
48,19,female,Belg,1,28,guess,loss,5,right,10,guess_outcome,0,undefined,0,0,276,186436,763222
48,19,female,Belg,1,28,ITC,loss,5,right,10,ITC_start,747,space,0,0,276,185686,763972
48,19,female,Belg,1,28,ITC,loss,5,right,10,ITC_choice,1396,f,0,0,276,184286,765372
48,19,female,Belg,1,28,ITC,loss,5,right,10,ITC_wait,0,undefined,0,0,276,184282,765376
48,19,female,Belg,1,28,ITC,loss,5,right,10,ITC_collect,645,k,0,0,276,183635,766023
48,19,female,Belg,1,28,ITC,loss,5,right,10,ITC_outcome,0,undefined,0,0,286,182628,767030
48,19,female,Belg,1,29,guess,win,5,left,14,guess_start,467,space,0,0,286,182158,767500
48,19,female,Belg,1,29,guess,win,5,left,14,guess_choice,523,j,0,0,286,181630,768028
48,19,female,Belg,1,29,guess,win,5,left,14,guess_outcome,0,undefined,0,0,306,180072,769586
48,19,female,Belg,1,29,ITC,win,5,left,14,ITC_start,197,space,0,0,306,179871,769787
48,19,female,Belg,1,29,ITC,win,5,left,14,ITC_choice,1200,j,0,0,306,178668,770990
48,19,female,Belg,1,29,ITC,win,5,left,14,ITC_wait,0,undefined,0,0,306,178663,770995
48,19,female,Belg,1,29,ITC,win,5,left,14,ITC_collect,314,k,0,0,306,178347,771311
48,19,female,Belg,1,29,ITC,win,5,left,14,ITC_outcome,0,undefined,0,0,320,177341,772317
48,19,female,Belg,1,30,guess,loss,5,left,6,guess_start,381,space,0,0,320,176956,772702
48,19,female,Belg,1,30,guess,loss,5,left,6,guess_choice,863,j,0,0,320,176086,773572
48,19,female,Belg,1,30,guess,loss,5,left,6,guess_outcome,0,undefined,0,0,305,174527,775131
48,19,female,Belg,1,30,ITC,loss,5,left,6,ITC_start,45,space,0,0,305,174478,775180
48,19,female,Belg,1,30,ITC,loss,5,left,6,ITC_choice,861,j,0,0,305,173615,776043
48,19,female,Belg,1,30,ITC,loss,5,left,6,ITC_wait,0,undefined,0,0,305,173610,776048
48,19,female,Belg,1,30,ITC,loss,5,left,6,ITC_collect,237,k,0,0,305,173370,776288
48,19,female,Belg,1,30,ITC,loss,5,left,6,ITC_outcome,0,undefined,0,0,311,172366,777292
48,19,female,Belg,1,31,guess,loss,5,left,12,guess_start,380,space,0,0,311,171981,777677
48,19,female,Belg,1,31,guess,loss,5,left,12,guess_choice,640,f,0,0,311,171335,778323
48,19,female,Belg,1,31,guess,loss,5,left,12,guess_outcome,0,undefined,0,0,296,169779,779879
48,19,female,Belg,1,31,ITC,loss,5,left,12,ITC_start,253,space,0,0,296,169523,780135
48,19,female,Belg,1,31,ITC,loss,5,left,12,ITC_choice,1325,j,0,0,296,168194,781464
48,19,female,Belg,1,31,ITC,loss,5,left,12,ITC_wait,0,undefined,0,0,296,168190,781468
48,19,female,Belg,1,31,ITC,loss,5,left,12,ITC_collect,223,k,0,0,296,167965,781693
48,19,female,Belg,1,31,ITC,loss,5,left,12,ITC_outcome,0,undefined,0,0,308,166955,782703
48,19,female,Belg,1,32,guess,win,10,left,5,guess_start,411,space,0,0,308,166539,783119
48,19,female,Belg,1,32,guess,win,10,left,5,guess_choice,806,f,0,0,308,165727,783931
48,19,female,Belg,1,32,guess,win,10,left,5,guess_outcome,0,undefined,0,0,328,164167,785491
48,19,female,Belg,1,32,ITC,win,10,left,5,ITC_start,152,space,0,0,328,164012,785646
48,19,female,Belg,1,32,ITC,win,10,left,5,ITC_choice,917,j,0,0,328,163092,786566
48,19,female,Belg,1,32,ITC,win,10,left,5,ITC_wait,0,undefined,0,0,328,163087,786571
48,19,female,Belg,1,32,ITC,win,10,left,5,ITC_collect,332,k,0,0,328,162753,786905
48,19,female,Belg,1,32,ITC,win,10,left,5,ITC_outcome,0,undefined,0,0,333,161745,787913
48,19,female,Belg,1,33,guess,neutral,5,right,2,guess_start,396,space,0,0,333,161344,788314
48,19,female,Belg,1,33,guess,neutral,5,right,2,guess_choice,612,j,0,0,333,160726,788932
48,19,female,Belg,1,33,guess,neutral,5,right,2,guess_outcome,0,undefined,0,0,333,159166,790492
48,19,female,Belg,1,33,ITC,neutral,5,right,2,ITC_start,472,space,0,0,333,158690,790968
48,19,female,Belg,1,33,ITC,neutral,5,right,2,ITC_choice,1550,j,0,0,333,157137,792521
48,19,female,Belg,1,33,ITC,neutral,5,right,2,ITC_wait,0,undefined,0,0,333,152129,797529
48,19,female,Belg,1,33,ITC,neutral,5,right,2,ITC_collect,145,k,0,0,333,151980,797678
48,19,female,Belg,1,33,ITC,neutral,5,right,2,ITC_outcome,0,undefined,0,0,353,150971,798687
48,19,female,Belg,1,34,guess,neutral,5,left,9,guess_start,153,space,0,0,353,150813,798845
48,19,female,Belg,1,34,guess,neutral,5,left,9,guess_choice,579,f,0,0,353,150229,799429
48,19,female,Belg,1,34,guess,neutral,5,left,9,guess_outcome,0,undefined,0,0,353,148669,800989
48,19,female,Belg,1,34,ITC,neutral,5,left,9,ITC_start,126,space,0,0,353,148540,801118
48,19,female,Belg,1,34,ITC,neutral,5,left,9,ITC_choice,863,j,0,0,353,147674,801984
48,19,female,Belg,1,34,ITC,neutral,5,left,9,ITC_wait,0,undefined,0,0,353,147669,801989
48,19,female,Belg,1,34,ITC,neutral,5,left,9,ITC_collect,355,k,0,0,353,147312,802346
48,19,female,Belg,1,34,ITC,neutral,5,left,9,ITC_outcome,0,undefined,0,0,362,146303,803355
48,19,female,Belg,1,35,guess,loss,10,left,4,guess_start,194,space,0,0,362,146104,803554
48,19,female,Belg,1,35,guess,loss,10,left,4,guess_choice,689,j,0,0,362,145409,804249
48,19,female,Belg,1,35,guess,loss,10,left,4,guess_outcome,0,undefined,0,0,347,143849,805809
48,19,female,Belg,1,35,ITC,loss,10,left,4,ITC_start,206,space,0,0,347,143638,806020
48,19,female,Belg,1,35,ITC,loss,10,left,4,ITC_choice,946,j,0,0,347,142688,806970
48,19,female,Belg,1,35,ITC,loss,10,left,4,ITC_wait,0,undefined,0,0,347,142683,806975
48,19,female,Belg,1,35,ITC,loss,10,left,4,ITC_collect,357,k,0,0,347,142324,807334
48,19,female,Belg,1,35,ITC,loss,10,left,4,ITC_outcome,0,undefined,0,0,351,141316,808342
48,19,female,Belg,1,36,guess,neutral,5,right,5,guess_start,360,space,0,0,351,140951,808707
48,19,female,Belg,1,36,guess,neutral,5,right,5,guess_choice,542,f,0,0,351,140404,809254
48,19,female,Belg,1,36,guess,neutral,5,right,5,guess_outcome,0,undefined,0,0,351,138845,810813
48,19,female,Belg,1,36,ITC,neutral,5,right,5,ITC_start,423,space,0,0,351,138419,811239
48,19,female,Belg,1,36,ITC,neutral,5,right,5,ITC_choice,1123,j,0,0,351,137291,812367
48,19,female,Belg,1,36,ITC,neutral,5,right,5,ITC_wait,0,undefined,0,0,351,132283,817375
48,19,female,Belg,1,36,ITC,neutral,5,right,5,ITC_collect,338,k,0,0,351,131941,817717
48,19,female,Belg,1,36,ITC,neutral,5,right,5,ITC_outcome,0,undefined,0,0,371,130934,818724
48,19,female,Belg,1,37,guess,win,10,left,8,guess_start,193,space,0,0,371,130737,818921
48,19,female,Belg,1,37,guess,win,10,left,8,guess_choice,689,j,0,0,371,130041,819617
48,19,female,Belg,1,37,guess,win,10,left,8,guess_outcome,0,undefined,0,0,391,128485,821173
48,19,female,Belg,1,37,ITC,win,10,left,8,ITC_start,299,space,0,0,391,128182,821476
48,19,female,Belg,1,37,ITC,win,10,left,8,ITC_choice,931,j,0,0,391,127247,822411
48,19,female,Belg,1,37,ITC,win,10,left,8,ITC_wait,0,undefined,0,0,391,127243,822415
48,19,female,Belg,1,37,ITC,win,10,left,8,ITC_collect,387,k,0,0,391,126854,822804
48,19,female,Belg,1,37,ITC,win,10,left,8,ITC_outcome,0,undefined,0,0,399,125845,823813
48,19,female,Belg,1,38,guess,loss,10,right,2,guess_start,346,space,0,0,399,125494,824164
48,19,female,Belg,1,38,guess,loss,10,right,2,guess_choice,500,f,0,0,399,124988,824670
48,19,female,Belg,1,38,guess,loss,10,right,2,guess_outcome,0,undefined,0,0,384,123428,826230
48,19,female,Belg,1,38,ITC,loss,10,right,2,ITC_start,378,space,0,0,384,123046,826612
48,19,female,Belg,1,38,ITC,loss,10,right,2,ITC_choice,1067,j,0,0,384,121975,827683
48,19,female,Belg,1,38,ITC,loss,10,right,2,ITC_wait,0,undefined,0,0,384,111967,837691
48,19,female,Belg,1,38,ITC,loss,10,right,2,ITC_collect,351,k,0,0,384,111612,838046
48,19,female,Belg,1,38,ITC,loss,10,right,2,ITC_outcome,0,undefined,0,0,404,110604,839054
48,19,female,Belg,1,39,guess,win,10,left,2,guess_start,354,space,0,0,404,110245,839413
48,19,female,Belg,1,39,guess,win,10,left,2,guess_choice,525,f,0,0,404,109716,839942
48,19,female,Belg,1,39,guess,win,10,left,2,guess_outcome,0,undefined,0,0,424,108160,841498
48,19,female,Belg,1,39,ITC,win,10,left,2,ITC_start,536,space,0,0,424,107621,842037
48,19,female,Belg,1,39,ITC,win,10,left,2,ITC_choice,1207,f,0,0,424,106411,843247
48,19,female,Belg,1,39,ITC,win,10,left,2,ITC_wait,0,undefined,0,0,424,96403,853255
48,19,female,Belg,1,39,ITC,win,10,left,2,ITC_collect,452,k,0,0,424,95948,853710
48,19,female,Belg,1,39,ITC,win,10,left,2,ITC_outcome,0,undefined,0,0,444,94942,854716
48,19,female,Belg,1,40,guess,neutral,10,right,8,guess_start,502,space,0,0,444,94435,855223
48,19,female,Belg,1,40,guess,neutral,10,right,8,guess_choice,546,f,0,0,444,93883,855775
48,19,female,Belg,1,40,guess,neutral,10,right,8,guess_outcome,0,undefined,0,0,444,92323,857335
48,19,female,Belg,1,40,ITC,neutral,10,right,8,ITC_start,151,space,0,0,444,92170,857488
48,19,female,Belg,1,40,ITC,neutral,10,right,8,ITC_choice,964,j,0,0,444,91204,858454
48,19,female,Belg,1,40,ITC,neutral,10,right,8,ITC_wait,0,undefined,0,0,444,81197,868461
48,19,female,Belg,1,40,ITC,neutral,10,right,8,ITC_collect,1405,k,0,0,444,79789,869869
48,19,female,Belg,1,40,ITC,neutral,10,right,8,ITC_outcome,0,undefined,0,0,464,78783,870875
48,19,female,Belg,1,41,guess,loss,5,right,13,guess_start,611,space,0,0,464,78167,871491
48,19,female,Belg,1,41,guess,loss,5,right,13,guess_choice,583,j,0,0,464,77577,872081
48,19,female,Belg,1,41,guess,loss,5,right,13,guess_outcome,0,undefined,0,0,449,76019,873639
48,19,female,Belg,1,41,ITC,loss,5,right,13,ITC_start,416,space,0,0,449,75599,874059
48,19,female,Belg,1,41,ITC,loss,5,right,13,ITC_choice,783,j,0,0,449,74813,874845
48,19,female,Belg,1,41,ITC,loss,5,right,13,ITC_wait,0,undefined,0,0,449,69805,879853
48,19,female,Belg,1,41,ITC,loss,5,right,13,ITC_collect,511,k,0,0,449,69291,880367
48,19,female,Belg,1,41,ITC,loss,5,right,13,ITC_outcome,0,undefined,0,0,469,68286,881372
48,19,female,Belg,1,42,guess,win,5,left,13,guess_start,530,space,0,0,469,67751,881907
48,19,female,Belg,1,42,guess,win,5,left,13,guess_choice,729,f,0,0,469,67018,882640
48,19,female,Belg,1,42,guess,win,5,left,13,guess_outcome,0,undefined,0,0,489,65460,884198
48,19,female,Belg,1,42,ITC,win,5,left,13,ITC_start,381,space,0,0,489,65076,884582
48,19,female,Belg,1,42,ITC,win,5,left,13,ITC_choice,863,f,0,0,489,64208,885450
48,19,female,Belg,1,42,ITC,win,5,left,13,ITC_wait,0,undefined,0,0,489,59203,890455
48,19,female,Belg,1,42,ITC,win,5,left,13,ITC_collect,426,k,0,0,489,58774,890884
48,19,female,Belg,1,42,ITC,win,5,left,13,ITC_outcome,0,undefined,0,0,509,57766,891892
48,19,female,Belg,1,43,guess,loss,5,right,9,guess_start,2048,space,0,0,509,55713,893945
48,19,female,Belg,1,43,guess,loss,5,right,9,guess_choice,851,j,0,0,509,54856,894802
48,19,female,Belg,1,43,guess,loss,5,right,9,guess_outcome,0,undefined,0,0,494,53300,896358
48,19,female,Belg,1,43,ITC,loss,5,right,9,ITC_start,380,space,0,0,494,52917,896741
48,19,female,Belg,1,43,ITC,loss,5,right,9,ITC_choice,811,j,0,0,494,52102,897556
48,19,female,Belg,1,43,ITC,loss,5,right,9,ITC_wait,0,undefined,0,0,494,47099,902559
48,19,female,Belg,1,43,ITC,loss,5,right,9,ITC_collect,1236,k,0,0,494,45859,903799
48,19,female,Belg,1,43,ITC,loss,5,right,9,ITC_outcome,0,undefined,0,0,514,44854,904804
48,19,female,Belg,1,44,guess,neutral,10,left,1,guess_start,373,space,0,0,514,44476,905182
48,19,female,Belg,1,44,guess,neutral,10,left,1,guess_choice,547,j,0,0,514,43924,905734
48,19,female,Belg,1,44,guess,neutral,10,left,1,guess_outcome,0,undefined,0,0,514,42364,907294
48,19,female,Belg,1,44,ITC,neutral,10,left,1,ITC_start,114,space,0,0,514,42247,907411
48,19,female,Belg,1,44,ITC,neutral,10,left,1,ITC_choice,651,f,0,0,514,41592,908066
48,19,female,Belg,1,44,ITC,neutral,10,left,1,ITC_wait,0,undefined,0,0,514,31583,918075
48,19,female,Belg,1,44,ITC,neutral,10,left,1,ITC_collect,413,k,0,0,514,31167,918491
48,19,female,Belg,1,44,ITC,neutral,10,left,1,ITC_outcome,0,undefined,0,0,534,30157,919501
48,19,female,Belg,1,45,guess,win,10,right,6,guess_start,68,space,0,0,534,30085,919573
48,19,female,Belg,1,45,guess,win,10,right,6,guess_choice,624,f,0,0,534,29454,920204
48,19,female,Belg,1,45,guess,win,10,right,6,guess_outcome,0,undefined,0,0,554,27897,921761
48,19,female,Belg,1,45,ITC,win,10,right,6,ITC_start,441,space,0,0,554,27452,922206
48,19,female,Belg,1,45,ITC,win,10,right,6,ITC_choice,726,j,0,0,554,26722,922936
48,19,female,Belg,1,45,ITC,win,10,right,6,ITC_collect,514,k,0,0,554,16199,933459
48,19,female,Belg,1,46,guess,win,5,right,10,guess_start,791,space,0,0,574,14394,935264
48,19,female,Belg,1,46,guess,win,5,right,10,guess_choice,782,j,0,0,574,13606,936052
48,19,female,Belg,1,45,ITC,win,10,right,6,ITC_wait,0,undefined,0,0,554,16717,932941
48,19,female,Belg,1,45,ITC,win,10,right,6,ITC_outcome,0,undefined,0,0,574,15190,934468
48,19,female,Belg,1,46,guess,win,5,right,10,guess_outcome,0,undefined,0,0,594,12049,937609
48,19,female,Belg,1,46,ITC,win,5,right,10,ITC_start,467,space,0,0,594,11578,938080
48,19,female,Belg,1,46,ITC,win,5,right,10,ITC_choice,1379,f,0,0,594,10194,939464
48,19,female,Belg,1,46,ITC,win,5,right,10,ITC_wait,0,undefined,0,0,594,10189,939469
48,19,female,Belg,1,46,ITC,win,5,right,10,ITC_collect,414,k,0,0,594,9774,939884
48,19,female,Belg,1,46,ITC,win,5,right,10,ITC_outcome,0,undefined,0,0,604,8765,940893
48,19,female,Belg,1,47,guess,win,5,right,4,guess_start,76,space,0,0,604,8684,940974
48,19,female,Belg,1,47,guess,win,5,right,4,guess_choice,808,j,0,0,604,7870,941788
48,19,female,Belg,1,47,guess,win,5,right,4,guess_outcome,0,undefined,0,0,624,6310,943348
48,19,female,Belg,1,47,ITC,win,5,right,4,ITC_start,450,space,0,0,624,5858,943800
48,19,female,Belg,1,47,ITC,win,5,right,4,ITC_choice,792,j,0,0,624,5062,944596
48,19,female,Belg,1,47,ITC,win,5,right,4,ITC_wait,0,undefined,0,0,624,54,949604
48,19,female,Belg,1,47,ITC,win,5,right,4,ITC_collect,0,undefined,0,0,624,-5,949663
48,19,female,Belg,2,48,guess,loss,10,right,6,guess_start,1484,space,0,0,0,478509,1229984
48,19,female,Belg,2,48,guess,loss,10,right,6,guess_choice,782,j,0,0,0,477720,1230773
48,19,female,Belg,2,48,guess,loss,10,right,6,guess_outcome,0,undefined,0,0,-15,476159,1232334
48,19,female,Belg,2,48,ITC,loss,10,right,6,ITC_start,277,space,0,0,-15,475879,1232614
48,19,female,Belg,2,48,ITC,loss,10,right,6,ITC_choice,1661,j,0,0,-15,474214,1234279
48,19,female,Belg,2,48,ITC,loss,10,right,6,ITC_wait,0,undefined,0,0,-15,464210,1244283
48,19,female,Belg,2,48,ITC,loss,10,right,6,ITC_collect,329,k,0,0,-15,463877,1244616
48,19,female,Belg,2,48,ITC,loss,10,right,6,ITC_outcome,0,undefined,0,0,5,462871,1245622
48,19,female,Belg,2,49,guess,loss,10,right,8,guess_start,1731,space,0,0,5,461135,1247358
48,19,female,Belg,2,49,guess,loss,10,right,8,guess_choice,693,j,0,0,5,460436,1248057
48,19,female,Belg,2,49,guess,loss,10,right,8,guess_outcome,0,undefined,0,0,-10,458876,1249617
48,19,female,Belg,2,49,ITC,loss,10,right,8,ITC_start,191,space,0,0,-10,458682,1249811
48,19,female,Belg,2,49,ITC,loss,10,right,8,ITC_choice,680,j,0,0,-10,457998,1250495
48,19,female,Belg,2,49,ITC,loss,10,right,8,ITC_wait,0,undefined,0,0,-10,447991,1260502
48,19,female,Belg,2,49,ITC,loss,10,right,8,ITC_collect,1336,k,0,0,-10,446651,1261842
48,19,female,Belg,2,49,ITC,loss,10,right,8,ITC_outcome,0,undefined,0,0,10,445642,1262851
48,19,female,Belg,2,50,guess,win,5,left,1,guess_start,1059,space,0,0,10,444579,1263914
48,19,female,Belg,2,50,guess,win,5,left,1,guess_choice,529,f,0,0,10,444043,1264450
48,19,female,Belg,2,50,guess,win,5,left,1,guess_outcome,0,undefined,0,0,30,442487,1266006
48,19,female,Belg,2,50,ITC,win,5,left,1,ITC_start,2677,space,0,0,30,439807,1268686
48,19,female,Belg,2,50,ITC,win,5,left,1,ITC_choice,1322,f,0,0,30,438480,1270013
48,19,female,Belg,2,50,ITC,win,5,left,1,ITC_wait,0,undefined,0,0,30,433476,1275017
48,19,female,Belg,2,50,ITC,win,5,left,1,ITC_collect,577,k,0,0,30,432895,1275598
48,19,female,Belg,2,50,ITC,win,5,left,1,ITC_outcome,0,undefined,0,0,50,431886,1276607
48,19,female,Belg,2,51,guess,loss,5,right,8,guess_start,879,space,0,0,50,431003,1277490
48,19,female,Belg,2,51,guess,loss,5,right,8,guess_choice,594,j,0,0,50,430403,1278090
48,19,female,Belg,2,51,guess,loss,5,right,8,guess_outcome,0,undefined,0,0,35,428844,1279649
48,19,female,Belg,2,51,ITC,loss,5,right,8,ITC_start,710,space,0,0,35,428131,1280362
48,19,female,Belg,2,51,ITC,loss,5,right,8,ITC_choice,804,j,0,0,35,427323,1281170
48,19,female,Belg,2,51,ITC,loss,5,right,8,ITC_wait,0,undefined,0,0,35,422314,1286179
48,19,female,Belg,2,51,ITC,loss,5,right,8,ITC_collect,602,k,0,0,35,421709,1286784
48,19,female,Belg,2,51,ITC,loss,5,right,8,ITC_outcome,0,undefined,0,0,55,420700,1287793
48,19,female,Belg,2,52,guess,win,5,right,7,guess_start,136,space,0,0,55,420559,1287934
48,19,female,Belg,2,52,guess,win,5,right,7,guess_choice,550,j,0,0,55,420004,1288489
48,19,female,Belg,2,52,guess,win,5,right,7,guess_outcome,0,undefined,0,0,75,418443,1290050
48,19,female,Belg,2,52,ITC,win,5,right,7,ITC_start,616,space,0,0,75,417824,1290669
48,19,female,Belg,2,52,ITC,win,5,right,7,ITC_choice,1099,j,0,0,75,416720,1291773
48,19,female,Belg,2,52,ITC,win,5,right,7,ITC_wait,0,undefined,0,0,75,411716,1296777
48,19,female,Belg,2,52,ITC,win,5,right,7,ITC_collect,4091,k,0,0,75,407621,1300872
48,19,female,Belg,2,52,ITC,win,5,right,7,ITC_outcome,0,undefined,0,0,95,406615,1301878
48,19,female,Belg,2,53,guess,neutral,5,left,6,guess_start,3273,space,0,0,95,403338,1305155
48,19,female,Belg,2,53,guess,neutral,5,left,6,guess_choice,924,j,0,0,95,402407,1306086
48,19,female,Belg,2,53,guess,neutral,5,left,6,guess_outcome,0,undefined,0,0,95,400846,1307647
48,19,female,Belg,2,53,ITC,neutral,5,left,6,ITC_start,7091,space,0,0,95,393752,1314741
48,19,female,Belg,2,53,ITC,neutral,5,left,6,ITC_choice,1472,f,0,0,95,392276,1316217
48,19,female,Belg,2,53,ITC,neutral,5,left,6,ITC_wait,0,undefined,0,0,95,387271,1321222
48,19,female,Belg,2,53,ITC,neutral,5,left,6,ITC_collect,3072,k,0,0,95,384196,1324297
48,19,female,Belg,2,53,ITC,neutral,5,left,6,ITC_outcome,0,undefined,0,0,115,383186,1325307
48,19,female,Belg,2,54,guess,neutral,5,left,7,guess_start,578,space,0,0,115,382604,1325889
48,19,female,Belg,2,54,guess,neutral,5,left,7,guess_choice,602,j,0,0,115,381995,1326498
48,19,female,Belg,2,54,guess,neutral,5,left,7,guess_outcome,0,undefined,0,0,115,380435,1328058
48,19,female,Belg,2,54,ITC,neutral,5,left,7,ITC_start,732,space,0,0,115,379699,1328794
48,19,female,Belg,2,54,ITC,neutral,5,left,7,ITC_choice,639,f,0,0,115,379057,1329436
48,19,female,Belg,2,54,ITC,neutral,5,left,7,ITC_wait,0,undefined,0,0,115,374049,1334444
48,19,female,Belg,2,54,ITC,neutral,5,left,7,ITC_collect,2533,k,0,0,115,371514,1336979
48,19,female,Belg,2,54,ITC,neutral,5,left,7,ITC_outcome,0,undefined,0,0,135,370508,1337985
48,19,female,Belg,2,55,guess,win,5,left,15,guess_start,4155,space,0,0,135,366349,1342144
48,19,female,Belg,2,55,guess,win,5,left,15,guess_choice,747,j,0,0,135,365596,1342897
48,19,female,Belg,2,55,guess,win,5,left,15,guess_outcome,0,undefined,0,0,155,364039,1344454
48,19,female,Belg,2,55,ITC,win,5,left,15,ITC_start,536,space,0,0,155,363500,1344993
48,19,female,Belg,2,55,ITC,win,5,left,15,ITC_choice,595,f,0,0,155,362902,1345591
48,19,female,Belg,2,55,ITC,win,5,left,15,ITC_wait,0,undefined,0,0,155,357894,1350599
48,19,female,Belg,2,55,ITC,win,5,left,15,ITC_collect,728,k,0,0,155,357162,1351331
48,19,female,Belg,2,55,ITC,win,5,left,15,ITC_outcome,0,undefined,0,0,175,356155,1352338
48,19,female,Belg,2,56,guess,neutral,5,right,8,guess_start,706,space,0,0,175,355444,1353049
48,19,female,Belg,2,56,guess,neutral,5,right,8,guess_choice,588,f,0,0,175,354850,1353643
48,19,female,Belg,2,56,guess,neutral,5,right,8,guess_outcome,0,undefined,0,0,175,353294,1355199
48,19,female,Belg,2,56,ITC,neutral,5,right,8,ITC_start,156,space,0,0,175,353136,1355357
48,19,female,Belg,2,56,ITC,neutral,5,right,8,ITC_choice,1178,j,0,0,175,351954,1356539
48,19,female,Belg,2,56,ITC,neutral,5,right,8,ITC_wait,0,undefined,0,0,175,346951,1361542
48,19,female,Belg,2,56,ITC,neutral,5,right,8,ITC_collect,572,k,0,0,175,346375,1362118
48,19,female,Belg,2,56,ITC,neutral,5,right,8,ITC_outcome,0,undefined,0,0,195,345366,1363127
48,19,female,Belg,2,57,guess,neutral,5,left,4,guess_start,1622,space,0,0,195,343739,1364754
48,19,female,Belg,2,57,guess,neutral,5,left,4,guess_choice,519,f,0,0,195,343215,1365278
48,19,female,Belg,2,57,guess,neutral,5,left,4,guess_outcome,0,undefined,0,0,195,341656,1366837
48,19,female,Belg,2,57,ITC,neutral,5,left,4,ITC_start,503,space,0,0,195,341150,1367343
48,19,female,Belg,2,57,ITC,neutral,5,left,4,ITC_choice,606,f,0,0,195,340540,1367953
48,19,female,Belg,2,57,ITC,neutral,5,left,4,ITC_wait,0,undefined,0,0,195,335531,1372962
48,19,female,Belg,2,57,ITC,neutral,5,left,4,ITC_collect,1169,k,0,0,195,334359,1374134
48,19,female,Belg,2,57,ITC,neutral,5,left,4,ITC_outcome,0,undefined,0,0,215,333353,1375140
48,19,female,Belg,2,58,guess,neutral,5,left,12,guess_start,62,space,0,0,215,333286,1375207
48,19,female,Belg,2,58,guess,neutral,5,left,12,guess_choice,818,f,0,0,215,332463,1376030
48,19,female,Belg,2,58,guess,neutral,5,left,12,guess_outcome,0,undefined,0,0,215,330907,1377586
48,19,female,Belg,2,58,ITC,neutral,5,left,12,ITC_start,317,space,0,0,215,330586,1377907
48,19,female,Belg,2,58,ITC,neutral,5,left,12,ITC_choice,823,f,0,0,215,329759,1378734
48,19,female,Belg,2,58,ITC,neutral,5,left,12,ITC_wait,0,undefined,0,0,215,324753,1383740
48,19,female,Belg,2,58,ITC,neutral,5,left,12,ITC_collect,838,k,0,0,215,323912,1384581
48,19,female,Belg,2,58,ITC,neutral,5,left,12,ITC_outcome,0,undefined,0,0,235,322906,1385587
48,19,female,Belg,2,59,guess,win,5,left,16,guess_start,1028,space,0,0,235,321873,1386620
48,19,female,Belg,2,59,guess,win,5,left,16,guess_choice,856,j,0,0,235,321010,1387483
48,19,female,Belg,2,59,guess,win,5,left,16,guess_outcome,0,undefined,0,0,255,319454,1389039
48,19,female,Belg,2,59,ITC,win,5,left,16,ITC_start,640,space,0,0,255,318811,1389682
48,19,female,Belg,2,59,ITC,win,5,left,16,ITC_choice,1036,f,0,0,255,317771,1390722
48,19,female,Belg,2,59,ITC,win,5,left,16,ITC_wait,0,undefined,0,0,255,312763,1395730
48,19,female,Belg,2,59,ITC,win,5,left,16,ITC_collect,555,k,0,0,255,312204,1396289
48,19,female,Belg,2,59,ITC,win,5,left,16,ITC_outcome,0,undefined,0,0,275,311198,1397295
48,19,female,Belg,2,60,guess,neutral,5,right,3,guess_start,552,space,0,0,275,310641,1397852
48,19,female,Belg,2,60,guess,neutral,5,right,3,guess_choice,644,j,0,0,275,309991,1398502
48,19,female,Belg,2,60,guess,neutral,5,right,3,guess_outcome,0,undefined,0,0,275,308432,1400061
48,19,female,Belg,2,60,ITC,neutral,5,right,3,ITC_start,473,space,0,0,275,307956,1400537
48,19,female,Belg,2,60,ITC,neutral,5,right,3,ITC_choice,1332,j,0,0,275,306621,1401872
48,19,female,Belg,2,60,ITC,neutral,5,right,3,ITC_wait,0,undefined,0,0,275,301615,1406878
48,19,female,Belg,2,60,ITC,neutral,5,right,3,ITC_collect,4180,k,0,0,275,297429,1411064
48,19,female,Belg,2,60,ITC,neutral,5,right,3,ITC_outcome,0,undefined,0,0,295,296424,1412069
48,19,female,Belg,2,61,guess,win,5,left,9,guess_start,739,space,0,0,295,295680,1412813
48,19,female,Belg,2,61,guess,win,5,left,9,guess_choice,685,f,0,0,295,294988,1413505
48,19,female,Belg,2,61,guess,win,5,left,9,guess_outcome,0,undefined,0,0,315,293429,1415064
48,19,female,Belg,2,61,ITC,win,5,left,9,ITC_start,1134,space,0,0,315,292291,1416202
48,19,female,Belg,2,61,ITC,win,5,left,9,ITC_choice,1181,f,0,0,315,291107,1417386
48,19,female,Belg,2,61,ITC,win,5,left,9,ITC_wait,0,undefined,0,0,315,286098,1422395
48,19,female,Belg,2,61,ITC,win,5,left,9,ITC_collect,565,k,0,0,315,285529,1422964
48,19,female,Belg,2,61,ITC,win,5,left,9,ITC_outcome,0,undefined,0,0,335,284522,1423971
48,19,female,Belg,2,62,guess,win,5,right,8,guess_start,256,space,0,0,335,284261,1424232
48,19,female,Belg,2,62,guess,win,5,right,8,guess_choice,533,j,0,0,335,283721,1424772
48,19,female,Belg,2,62,guess,win,5,right,8,guess_outcome,0,undefined,0,0,355,282159,1426334
48,19,female,Belg,2,62,ITC,win,5,right,8,ITC_start,423,space,0,0,355,281733,1426760
48,19,female,Belg,2,62,ITC,win,5,right,8,ITC_choice,1035,j,0,0,355,280694,1427799
48,19,female,Belg,2,62,ITC,win,5,right,8,ITC_wait,0,undefined,0,0,355,275686,1432807
48,19,female,Belg,2,62,ITC,win,5,right,8,ITC_collect,1013,k,0,0,355,274669,1433824
48,19,female,Belg,2,62,ITC,win,5,right,8,ITC_outcome,0,undefined,0,0,375,273664,1434829
48,19,female,Belg,2,63,guess,loss,10,right,5,guess_start,408,space,0,0,375,273251,1435242
48,19,female,Belg,2,63,guess,loss,10,right,5,guess_choice,512,j,0,0,375,272733,1435760
48,19,female,Belg,2,63,guess,loss,10,right,5,guess_outcome,0,undefined,0,0,360,271172,1437321
48,19,female,Belg,2,63,ITC,loss,10,right,5,ITC_start,60,space,0,0,360,271109,1437384
48,19,female,Belg,2,63,ITC,loss,10,right,5,ITC_choice,794,j,0,0,360,270312,1438181
48,19,female,Belg,2,63,ITC,loss,10,right,5,ITC_wait,0,undefined,0,0,360,260303,1448190
48,19,female,Belg,2,63,ITC,loss,10,right,5,ITC_collect,1033,k,0,0,360,259266,1449227
48,19,female,Belg,2,63,ITC,loss,10,right,5,ITC_outcome,0,undefined,0,0,380,258257,1450236
48,19,female,Belg,2,64,guess,win,5,right,6,guess_start,360,space,0,0,380,257892,1450601
48,19,female,Belg,2,64,guess,win,5,right,6,guess_choice,577,j,0,0,380,257308,1451185
48,19,female,Belg,2,64,guess,win,5,right,6,guess_outcome,0,undefined,0,0,400,255749,1452744
48,19,female,Belg,2,64,ITC,win,5,right,6,ITC_start,176,space,0,0,400,255571,1452922
48,19,female,Belg,2,64,ITC,win,5,right,6,ITC_choice,942,j,0,0,400,254626,1453867
48,19,female,Belg,2,64,ITC,win,5,right,6,ITC_wait,0,undefined,0,0,400,249618,1458875
48,19,female,Belg,2,64,ITC,win,5,right,6,ITC_collect,4239,k,0,0,400,245375,1463118
48,19,female,Belg,2,64,ITC,win,5,right,6,ITC_outcome,0,undefined,0,0,420,244369,1464124
48,19,female,Belg,2,65,guess,loss,5,left,1,guess_start,2492,space,0,0,420,241872,1466621
48,19,female,Belg,2,65,guess,loss,5,left,1,guess_choice,617,j,0,0,420,241248,1467245
48,19,female,Belg,2,65,guess,loss,5,left,1,guess_outcome,0,undefined,0,0,405,239688,1468805
48,19,female,Belg,2,65,ITC,loss,5,left,1,ITC_start,171,space,0,0,405,239514,1468979
48,19,female,Belg,2,65,ITC,loss,5,left,1,ITC_choice,1588,f,0,0,405,237923,1470570
48,19,female,Belg,2,65,ITC,loss,5,left,1,ITC_wait,0,undefined,0,0,405,232917,1475576
48,19,female,Belg,2,65,ITC,loss,5,left,1,ITC_collect,2073,k,0,0,405,230840,1477653
48,19,female,Belg,2,65,ITC,loss,5,left,1,ITC_outcome,0,undefined,0,0,425,229831,1478662
48,19,female,Belg,2,66,guess,win,5,left,5,guess_start,1651,space,0,0,425,228175,1480318
48,19,female,Belg,2,66,guess,win,5,left,5,guess_choice,1256,j,0,0,425,226913,1481580
48,19,female,Belg,2,66,guess,win,5,left,5,guess_outcome,0,undefined,0,0,445,225353,1483140
48,19,female,Belg,2,66,ITC,win,5,left,5,ITC_start,1315,space,0,0,445,224034,1484459
48,19,female,Belg,2,66,ITC,win,5,left,5,ITC_choice,1346,f,0,0,445,222684,1485809
48,19,female,Belg,2,66,ITC,win,5,left,5,ITC_wait,0,undefined,0,0,445,217676,1490817
48,19,female,Belg,2,66,ITC,win,5,left,5,ITC_collect,6090,k,0,0,445,211582,1496911
48,19,female,Belg,2,66,ITC,win,5,left,5,ITC_outcome,0,undefined,0,0,465,210573,1497920
48,19,female,Belg,2,67,guess,neutral,10,right,6,guess_start,737,space,0,0,465,209832,1498661
48,19,female,Belg,2,67,guess,neutral,10,right,6,guess_choice,858,f,0,0,465,208968,1499525
48,19,female,Belg,2,67,guess,neutral,10,right,6,guess_outcome,0,undefined,0,0,465,207408,1501085
48,19,female,Belg,2,67,ITC,neutral,10,right,6,ITC_start,2752,space,0,0,465,204653,1503840
48,19,female,Belg,2,67,ITC,neutral,10,right,6,ITC_choice,1603,j,0,0,465,203048,1505445
48,19,female,Belg,2,67,ITC,neutral,10,right,6,ITC_wait,0,undefined,0,0,465,193039,1515454
48,19,female,Belg,2,67,ITC,neutral,10,right,6,ITC_collect,4724,k,0,0,465,188311,1520182
48,19,female,Belg,2,67,ITC,neutral,10,right,6,ITC_outcome,0,undefined,0,0,485,187306,1521187
48,19,female,Belg,2,68,guess,loss,5,right,3,guess_start,530,space,0,0,485,186772,1521721
48,19,female,Belg,2,68,guess,loss,5,right,3,guess_choice,814,j,0,0,485,185952,1522541
48,19,female,Belg,2,68,guess,loss,5,right,3,guess_outcome,0,undefined,0,0,470,184392,1524101
48,19,female,Belg,2,68,ITC,loss,5,right,3,ITC_start,982,space,0,0,470,183406,1525087
48,19,female,Belg,2,68,ITC,loss,5,right,3,ITC_choice,892,j,0,0,470,182511,1525982
48,19,female,Belg,2,68,ITC,loss,5,right,3,ITC_wait,0,undefined,0,0,470,177503,1530990
48,19,female,Belg,2,68,ITC,loss,5,right,3,ITC_collect,920,k,0,0,470,176579,1531914
48,19,female,Belg,2,68,ITC,loss,5,right,3,ITC_outcome,0,undefined,0,0,490,175572,1532921
48,19,female,Belg,2,69,guess,win,10,left,3,guess_start,73,space,0,0,490,175495,1532998
48,19,female,Belg,2,69,guess,win,10,left,3,guess_choice,732,f,0,0,490,174758,1533735
48,19,female,Belg,2,69,guess,win,10,left,3,guess_outcome,0,undefined,0,0,510,173197,1535296
48,19,female,Belg,2,69,ITC,win,10,left,3,ITC_start,5,space,0,0,510,173189,1535304
48,19,female,Belg,2,69,ITC,win,10,left,3,ITC_choice,659,f,0,0,510,172527,1535966
48,19,female,Belg,2,69,ITC,win,10,left,3,ITC_wait,0,undefined,0,0,510,162520,1545973
48,19,female,Belg,2,69,ITC,win,10,left,3,ITC_collect,2601,k,0,0,510,159916,1548577
48,19,female,Belg,2,69,ITC,win,10,left,3,ITC_outcome,0,undefined,0,0,530,158907,1549586
48,19,female,Belg,2,70,guess,win,5,right,11,guess_start,418,space,0,0,530,158485,1550008
48,19,female,Belg,2,70,guess,win,5,right,11,guess_choice,881,f,0,0,530,157598,1550895
48,19,female,Belg,2,70,guess,win,5,right,11,guess_outcome,0,undefined,0,0,550,156038,1552455
48,19,female,Belg,2,70,ITC,win,5,right,11,ITC_start,44,space,0,0,550,155990,1552503
48,19,female,Belg,2,70,ITC,win,5,right,11,ITC_choice,838,j,0,0,550,155149,1553344
48,19,female,Belg,2,70,ITC,win,5,right,11,ITC_wait,0,undefined,0,0,550,150140,1558353
48,19,female,Belg,2,70,ITC,win,5,right,11,ITC_collect,992,k,0,0,550,149145,1559348
48,19,female,Belg,2,70,ITC,win,5,right,11,ITC_outcome,0,undefined,0,0,570,148136,1560357
48,19,female,Belg,2,71,guess,win,5,left,2,guess_start,738,space,0,0,570,147394,1561099
48,19,female,Belg,2,71,guess,win,5,left,2,guess_choice,599,j,0,0,570,146790,1561703
48,19,female,Belg,2,71,guess,win,5,left,2,guess_outcome,0,undefined,0,0,590,145233,1563260
48,19,female,Belg,2,71,ITC,win,5,left,2,ITC_start,379,space,0,0,590,144851,1563642
48,19,female,Belg,2,71,ITC,win,5,left,2,ITC_choice,666,f,0,0,590,144181,1564312
48,19,female,Belg,2,71,ITC,win,5,left,2,ITC_wait,0,undefined,0,0,590,139173,1569320
48,19,female,Belg,2,71,ITC,win,5,left,2,ITC_collect,675,k,0,0,590,138494,1569999
48,19,female,Belg,2,71,ITC,win,5,left,2,ITC_outcome,0,undefined,0,0,610,137485,1571008
48,19,female,Belg,2,72,guess,neutral,5,left,10,guess_start,659,space,0,0,610,136821,1571672
48,19,female,Belg,2,72,guess,neutral,5,left,10,guess_choice,627,f,0,0,610,136187,1572306
48,19,female,Belg,2,72,guess,neutral,5,left,10,guess_outcome,0,undefined,0,0,610,134627,1573866
48,19,female,Belg,2,72,ITC,neutral,5,left,10,ITC_start,592,space,0,0,610,134031,1574462
48,19,female,Belg,2,72,ITC,neutral,5,left,10,ITC_choice,741,f,0,0,610,133286,1575207
48,19,female,Belg,2,72,ITC,neutral,5,left,10,ITC_wait,0,undefined,0,0,610,128282,1580211
48,19,female,Belg,2,72,ITC,neutral,5,left,10,ITC_collect,1950,k,0,0,610,126329,1582164
48,19,female,Belg,2,72,ITC,neutral,5,left,10,ITC_outcome,0,undefined,0,0,630,125323,1583170
48,19,female,Belg,2,73,guess,neutral,5,right,5,guess_start,623,space,0,0,630,124694,1583799
48,19,female,Belg,2,73,guess,neutral,5,right,5,guess_choice,751,f,0,0,630,123937,1584556
48,19,female,Belg,2,73,guess,neutral,5,right,5,guess_outcome,0,undefined,0,0,630,122377,1586116
48,19,female,Belg,2,73,ITC,neutral,5,right,5,ITC_start,465,space,0,0,630,121908,1586585
48,19,female,Belg,2,73,ITC,neutral,5,right,5,ITC_choice,943,j,0,0,630,120961,1587532
48,19,female,Belg,2,73,ITC,neutral,5,right,5,ITC_wait,0,undefined,0,0,630,115954,1592539
48,19,female,Belg,2,73,ITC,neutral,5,right,5,ITC_collect,713,k,0,0,630,115237,1593256
48,19,female,Belg,2,73,ITC,neutral,5,right,5,ITC_outcome,0,undefined,0,0,650,114229,1594264
48,19,female,Belg,2,74,guess,loss,5,right,4,guess_start,1140,space,0,0,650,113084,1595409
48,19,female,Belg,2,74,guess,loss,5,right,4,guess_choice,681,f,0,0,650,112397,1596096
48,19,female,Belg,2,74,guess,loss,5,right,4,guess_outcome,0,undefined,0,0,635,110839,1597654
48,19,female,Belg,2,74,ITC,loss,5,right,4,ITC_start,533,space,0,0,635,110302,1598191
48,19,female,Belg,2,74,ITC,loss,5,right,4,ITC_choice,821,j,0,0,635,109477,1599016
48,19,female,Belg,2,74,ITC,loss,5,right,4,ITC_wait,0,undefined,0,0,635,104473,1604020
48,19,female,Belg,2,74,ITC,loss,5,right,4,ITC_collect,770,k,0,0,635,103698,1604795
48,19,female,Belg,2,74,ITC,loss,5,right,4,ITC_outcome,0,undefined,0,0,655,102689,1605804
48,19,female,Belg,2,75,guess,win,5,left,4,guess_start,67,space,0,0,655,102617,1605876
48,19,female,Belg,2,75,guess,win,5,left,4,guess_choice,655,f,0,0,655,101957,1606536
48,19,female,Belg,2,75,guess,win,5,left,4,guess_outcome,0,undefined,0,0,675,100400,1608093
48,19,female,Belg,2,75,ITC,win,5,left,4,ITC_start,71,space,0,0,675,100325,1608168
48,19,female,Belg,2,75,ITC,win,5,left,4,ITC_choice,612,f,0,0,675,99710,1608783
48,19,female,Belg,2,75,ITC,win,5,left,4,ITC_wait,0,undefined,0,0,675,94704,1613789
48,19,female,Belg,2,75,ITC,win,5,left,4,ITC_collect,589,k,0,0,675,94111,1614382
48,19,female,Belg,2,75,ITC,win,5,left,4,ITC_outcome,0,undefined,0,0,695,93102,1615391
48,19,female,Belg,2,76,guess,neutral,10,right,3,guess_start,1421,space,0,0,695,91676,1616817
48,19,female,Belg,2,76,guess,neutral,10,right,3,guess_choice,558,j,0,0,695,91111,1617382
48,19,female,Belg,2,76,guess,neutral,10,right,3,guess_outcome,0,undefined,0,0,695,89553,1618940
48,19,female,Belg,2,76,ITC,neutral,10,right,3,ITC_start,454,space,0,0,695,89096,1619397
48,19,female,Belg,2,76,ITC,neutral,10,right,3,ITC_choice,662,j,0,0,695,88430,1620063
48,19,female,Belg,2,76,ITC,neutral,10,right,3,ITC_wait,0,undefined,0,0,695,78423,1630070
48,19,female,Belg,2,76,ITC,neutral,10,right,3,ITC_collect,3941,k,0,0,695,74478,1634015
48,19,female,Belg,2,76,ITC,neutral,10,right,3,ITC_outcome,0,undefined,0,0,715,73472,1635021
48,19,female,Belg,2,77,guess,loss,10,left,6,guess_start,741,space,0,0,715,72726,1635767
48,19,female,Belg,2,77,guess,loss,10,left,6,guess_choice,593,j,0,0,715,72127,1636366
48,19,female,Belg,2,77,guess,loss,10,left,6,guess_outcome,0,undefined,0,0,700,70566,1637927
48,19,female,Belg,2,77,ITC,loss,10,left,6,ITC_start,32,space,0,0,700,70531,1637962
48,19,female,Belg,2,77,ITC,loss,10,left,6,ITC_choice,568,f,0,0,700,69960,1638533
48,19,female,Belg,2,77,ITC,loss,10,left,6,ITC_wait,0,undefined,0,0,700,59954,1648539
48,19,female,Belg,2,77,ITC,loss,10,left,6,ITC_collect,1346,k,0,0,700,58605,1649888
48,19,female,Belg,2,77,ITC,loss,10,left,6,ITC_outcome,0,undefined,0,0,720,57595,1650898
48,19,female,Belg,2,78,guess,loss,5,right,13,guess_start,413,space,0,0,720,57179,1651314
48,19,female,Belg,2,78,guess,loss,5,right,13,guess_choice,657,j,0,0,720,56519,1651974
48,19,female,Belg,2,78,guess,loss,5,right,13,guess_outcome,0,undefined,0,0,705,54960,1653533
48,19,female,Belg,2,78,ITC,loss,5,right,13,ITC_start,398,space,0,0,705,54558,1653935
48,19,female,Belg,2,78,ITC,loss,5,right,13,ITC_choice,895,j,0,0,705,53660,1654833
48,19,female,Belg,2,78,ITC,loss,5,right,13,ITC_wait,0,undefined,0,0,705,48654,1659839
48,19,female,Belg,2,78,ITC,loss,5,right,13,ITC_collect,2130,k,0,0,705,46520,1661973
48,19,female,Belg,2,78,ITC,loss,5,right,13,ITC_outcome,0,undefined,0,0,725,45515,1662978
48,19,female,Belg,2,79,guess,loss,5,right,10,guess_start,1967,space,0,0,725,43542,1664951
48,19,female,Belg,2,79,guess,loss,5,right,10,guess_choice,5435,j,0,0,725,38101,1670392
48,19,female,Belg,2,79,guess,loss,5,right,10,guess_outcome,0,undefined,0,0,710,36540,1671953
48,19,female,Belg,2,79,ITC,loss,5,right,10,ITC_start,220,space,0,0,710,36316,1672177
48,19,female,Belg,2,79,ITC,loss,5,right,10,ITC_choice,619,j,0,0,710,35694,1672799
48,19,female,Belg,2,79,ITC,loss,5,right,10,ITC_wait,0,undefined,0,0,710,30685,1677808
48,19,female,Belg,2,79,ITC,loss,5,right,10,ITC_collect,5162,k,0,0,710,25519,1682974
48,19,female,Belg,2,79,ITC,loss,5,right,10,ITC_outcome,0,undefined,0,0,730,24514,1683979
48,19,female,Belg,2,80,guess,neutral,5,right,8,guess_start,116,space,0,0,730,24393,1684100
48,19,female,Belg,2,80,guess,neutral,5,right,8,guess_choice,461,j,0,0,730,23925,1684568
48,19,female,Belg,2,80,guess,neutral,5,right,8,guess_outcome,0,undefined,0,0,730,22369,1686124
48,19,female,Belg,2,80,ITC,neutral,5,right,8,ITC_start,437,space,0,0,730,21929,1686564
48,19,female,Belg,2,80,ITC,neutral,5,right,8,ITC_choice,636,j,0,0,730,21289,1687204
48,19,female,Belg,2,80,ITC,neutral,5,right,8,ITC_wait,0,undefined,0,0,730,16280,1692213
48,19,female,Belg,2,80,ITC,neutral,5,right,8,ITC_collect,5288,k,0,0,730,10989,1697504
48,19,female,Belg,2,80,ITC,neutral,5,right,8,ITC_outcome,0,undefined,0,0,750,9983,1698510
48,19,female,Belg,2,81,guess,loss,10,right,2,guess_start,337,space,0,0,750,9641,1698852
48,19,female,Belg,2,81,guess,loss,10,right,2,guess_choice,620,j,0,0,750,9014,1699479
48,19,female,Belg,2,81,guess,loss,10,right,2,guess_outcome,0,undefined,0,0,735,7453,1701040
48,19,female,Belg,2,81,ITC,loss,10,right,2,ITC_start,0,space,0,0,735,7450,1701043
48,19,female,Belg,2,81,ITC,loss,10,right,2,ITC_choice,973,j,0,0,735,6475,1702018
48,19,female,Belg,2,81,ITC,loss,10,right,2,ITC_wait,0,undefined,0,0,735,-7,1708500
48,19,female,Belg,3,82,guess,loss,5,left,14,guess_start,922,space,0,0,0,479074,1747818
48,19,female,Belg,3,82,guess,loss,5,left,14,guess_choice,921,f,0,0,0,478148,1748744
48,19,female,Belg,3,82,guess,loss,5,left,14,guess_outcome,0,undefined,0,0,-15,476587,1750305
48,19,female,Belg,3,82,ITC,loss,5,left,14,ITC_start,282,space,0,0,-15,476302,1750590
48,19,female,Belg,3,82,ITC,loss,5,left,14,ITC_choice,658,f,0,0,-15,475641,1751251
48,19,female,Belg,3,82,ITC,loss,5,left,14,ITC_wait,0,undefined,0,0,-15,470632,1756260
48,19,female,Belg,3,82,ITC,loss,5,left,14,ITC_collect,3131,k,0,0,-15,467498,1759394
48,19,female,Belg,3,82,ITC,loss,5,left,14,ITC_outcome,0,undefined,0,0,5,466488,1760404
48,19,female,Belg,3,83,guess,neutral,5,right,6,guess_start,357,space,0,0,5,466126,1760766
48,19,female,Belg,3,83,guess,neutral,5,right,6,guess_choice,556,f,0,0,5,465564,1761328
48,19,female,Belg,3,83,guess,neutral,5,right,6,guess_outcome,0,undefined,0,0,5,464009,1762883
48,19,female,Belg,3,83,ITC,neutral,5,right,6,ITC_start,593,space,0,0,5,463412,1763480
48,19,female,Belg,3,83,ITC,neutral,5,right,6,ITC_choice,692,j,0,0,5,462716,1764176
48,19,female,Belg,3,83,ITC,neutral,5,right,6,ITC_wait,0,undefined,0,0,5,457709,1769183
48,19,female,Belg,3,83,ITC,neutral,5,right,6,ITC_collect,933,k,0,0,5,456772,1770120
48,19,female,Belg,3,83,ITC,neutral,5,right,6,ITC_outcome,0,undefined,0,0,25,455763,1771129
48,19,female,Belg,3,84,guess,loss,5,left,5,guess_start,908,space,0,0,25,454850,1772042
48,19,female,Belg,3,84,guess,loss,5,left,5,guess_choice,1022,f,0,0,25,453823,1773069
48,19,female,Belg,3,84,guess,loss,5,left,5,guess_outcome,0,undefined,0,0,10,452264,1774628
48,19,female,Belg,3,84,ITC,loss,5,left,5,ITC_start,198,space,0,0,10,452062,1774830
48,19,female,Belg,3,84,ITC,loss,5,left,5,ITC_choice,737,f,0,0,10,451322,1775570
48,19,female,Belg,3,84,ITC,loss,5,left,5,ITC_wait,0,undefined,0,0,10,446318,1780574
48,19,female,Belg,3,84,ITC,loss,5,left,5,ITC_collect,592,k,0,0,10,445721,1781171
48,19,female,Belg,3,84,ITC,loss,5,left,5,ITC_outcome,0,undefined,0,0,30,444712,1782180
48,19,female,Belg,3,85,guess,neutral,5,right,9,guess_start,673,space,0,0,30,444035,1782857
48,19,female,Belg,3,85,guess,neutral,5,right,9,guess_choice,506,j,0,0,30,443522,1783370
48,19,female,Belg,3,85,guess,neutral,5,right,9,guess_outcome,0,undefined,0,0,30,441965,1784927
48,19,female,Belg,3,85,ITC,neutral,5,right,9,ITC_start,741,space,0,0,30,441220,1785672
48,19,female,Belg,3,85,ITC,neutral,5,right,9,ITC_choice,733,j,0,0,30,440484,1786408
48,19,female,Belg,3,85,ITC,neutral,5,right,9,ITC_wait,0,undefined,0,0,30,435476,1791416
48,19,female,Belg,3,85,ITC,neutral,5,right,9,ITC_collect,707,k,0,0,30,434764,1792128
48,19,female,Belg,3,85,ITC,neutral,5,right,9,ITC_outcome,0,undefined,0,0,50,433755,1793137
48,19,female,Belg,3,86,guess,loss,5,right,1,guess_start,603,space,0,0,50,433148,1793744
48,19,female,Belg,3,86,guess,loss,5,right,1,guess_choice,728,f,0,0,50,432414,1794478
48,19,female,Belg,3,86,guess,loss,5,right,1,guess_outcome,0,undefined,0,0,35,430856,1796036
48,19,female,Belg,3,86,ITC,loss,5,right,1,ITC_start,15,space,0,0,35,430838,1796054
48,19,female,Belg,3,86,ITC,loss,5,right,1,ITC_choice,498,j,0,0,35,430336,1796556
48,19,female,Belg,3,86,ITC,loss,5,right,1,ITC_wait,0,undefined,0,0,35,425333,1801559
48,19,female,Belg,3,86,ITC,loss,5,right,1,ITC_collect,20549,k,0,0,35,404781,1822111
48,19,female,Belg,3,86,ITC,loss,5,right,1,ITC_outcome,0,undefined,0,0,55,403772,1823120
48,19,female,Belg,3,87,guess,win,5,left,6,guess_start,1528,space,0,0,55,402239,1824653
48,19,female,Belg,3,87,guess,win,5,left,6,guess_choice,693,j,0,0,55,401540,1825352
48,19,female,Belg,3,87,guess,win,5,left,6,guess_outcome,0,undefined,0,0,75,399982,1826910
48,19,female,Belg,3,87,ITC,win,5,left,6,ITC_start,254,space,0,0,75,399726,1827166
48,19,female,Belg,3,87,ITC,win,5,left,6,ITC_choice,1223,f,0,0,75,398498,1828394
48,19,female,Belg,3,87,ITC,win,5,left,6,ITC_wait,0,undefined,0,0,75,393490,1833402
48,19,female,Belg,3,87,ITC,win,5,left,6,ITC_collect,520,k,0,0,75,392965,1833927
48,19,female,Belg,3,87,ITC,win,5,left,6,ITC_outcome,0,undefined,0,0,95,391956,1834936
48,19,female,Belg,3,88,guess,win,10,right,5,guess_start,869,space,0,0,95,391082,1835810
48,19,female,Belg,3,88,guess,win,10,right,5,guess_choice,837,j,0,0,95,390239,1836653
48,19,female,Belg,3,88,guess,win,10,right,5,guess_outcome,0,undefined,0,0,115,388679,1838213
48,19,female,Belg,3,88,ITC,win,10,right,5,ITC_start,410,space,0,0,115,388265,1838627
48,19,female,Belg,3,88,ITC,win,10,right,5,ITC_choice,812,j,0,0,115,387450,1839442
48,19,female,Belg,3,88,ITC,win,10,right,5,ITC_wait,0,undefined,0,0,115,377442,1849450
48,19,female,Belg,3,88,ITC,win,10,right,5,ITC_collect,602,k,0,0,115,376836,1850056
48,19,female,Belg,3,88,ITC,win,10,right,5,ITC_outcome,0,undefined,0,0,135,375827,1851065
48,19,female,Belg,3,89,guess,loss,10,left,8,guess_start,508,space,0,0,135,375313,1851579
48,19,female,Belg,3,89,guess,loss,10,left,8,guess_choice,694,f,0,0,135,374612,1852280
48,19,female,Belg,3,89,guess,loss,10,left,8,guess_outcome,0,undefined,0,0,120,373053,1853839
48,19,female,Belg,3,89,ITC,loss,10,left,8,ITC_start,195,space,0,0,120,372854,1854038
48,19,female,Belg,3,89,ITC,loss,10,left,8,ITC_choice,645,f,0,0,120,372205,1854687
48,19,female,Belg,3,89,ITC,loss,10,left,8,ITC_wait,0,undefined,0,0,120,362197,1864695
48,19,female,Belg,3,89,ITC,loss,10,left,8,ITC_collect,635,k,0,0,120,361558,1865334
48,19,female,Belg,3,89,ITC,loss,10,left,8,ITC_outcome,0,undefined,0,0,140,360553,1866339
48,19,female,Belg,3,90,guess,win,5,left,12,guess_start,816,space,0,0,140,359731,1867161
48,19,female,Belg,3,90,guess,win,5,left,12,guess_choice,628,j,0,0,140,359097,1867795
48,19,female,Belg,3,90,guess,win,5,left,12,guess_outcome,0,undefined,0,0,160,357540,1869352
48,19,female,Belg,3,90,ITC,win,5,left,12,ITC_start,464,space,0,0,160,357073,1869819
48,19,female,Belg,3,90,ITC,win,5,left,12,ITC_choice,831,f,0,0,160,356238,1870654
48,19,female,Belg,3,90,ITC,win,5,left,12,ITC_wait,0,undefined,0,0,160,351229,1875663
48,19,female,Belg,3,90,ITC,win,5,left,12,ITC_collect,1110,k,0,0,160,350116,1876776
48,19,female,Belg,3,90,ITC,win,5,left,12,ITC_outcome,0,undefined,0,0,180,349111,1877781
48,19,female,Belg,3,91,guess,win,5,right,2,guess_start,273,space,0,0,180,348833,1878059
48,19,female,Belg,3,91,guess,win,5,right,2,guess_choice,608,f,0,0,180,348219,1878673
48,19,female,Belg,3,91,guess,win,5,right,2,guess_outcome,0,undefined,0,0,200,346658,1880234
48,19,female,Belg,3,91,ITC,win,5,right,2,ITC_start,240,space,0,0,200,346414,1880478
48,19,female,Belg,3,91,ITC,win,5,right,2,ITC_choice,609,j,0,0,200,345802,1881090
48,19,female,Belg,3,91,ITC,win,5,right,2,ITC_wait,0,undefined,0,0,200,340794,1886098
48,19,female,Belg,3,91,ITC,win,5,right,2,ITC_collect,811,k,0,0,200,339979,1886913
48,19,female,Belg,3,91,ITC,win,5,right,2,ITC_outcome,0,undefined,0,0,220,338972,1887920
48,19,female,Belg,3,92,guess,neutral,5,left,13,guess_start,64,space,0,0,220,338903,1887989
48,19,female,Belg,3,92,guess,neutral,5,left,13,guess_choice,537,j,0,0,220,338360,1888532
48,19,female,Belg,3,92,guess,neutral,5,left,13,guess_outcome,0,undefined,0,0,220,336800,1890092
48,19,female,Belg,3,92,ITC,neutral,5,left,13,ITC_start,922,space,0,0,220,335874,1891018
48,19,female,Belg,3,92,ITC,neutral,5,left,13,ITC_choice,590,f,0,0,220,335280,1891612
48,19,female,Belg,3,92,ITC,neutral,5,left,13,ITC_wait,0,undefined,0,0,220,330272,1896620
48,19,female,Belg,3,92,ITC,neutral,5,left,13,ITC_collect,941,k,0,0,220,329328,1897564
48,19,female,Belg,3,92,ITC,neutral,5,left,13,ITC_outcome,0,undefined,0,0,240,328318,1898574
48,19,female,Belg,3,93,guess,neutral,5,right,3,guess_start,17,space,0,0,240,328296,1898596
48,19,female,Belg,3,93,guess,neutral,5,right,3,guess_choice,494,f,0,0,240,327797,1899095
48,19,female,Belg,3,93,guess,neutral,5,right,3,guess_outcome,0,undefined,0,0,240,326239,1900653
48,19,female,Belg,3,93,ITC,neutral,5,right,3,ITC_start,1559,space,0,0,240,324677,1902215
48,19,female,Belg,3,93,ITC,neutral,5,right,3,ITC_choice,1161,j,0,0,240,323512,1903380
48,19,female,Belg,3,93,ITC,neutral,5,right,3,ITC_wait,0,undefined,0,0,240,318507,1908385
48,19,female,Belg,3,93,ITC,neutral,5,right,3,ITC_collect,1872,k,0,0,240,316632,1910260
48,19,female,Belg,3,93,ITC,neutral,5,right,3,ITC_outcome,0,undefined,0,0,260,315624,1911268
48,19,female,Belg,3,94,guess,neutral,10,left,7,guess_start,523,space,0,0,260,315097,1911795
48,19,female,Belg,3,94,guess,neutral,10,left,7,guess_choice,395,f,0,0,260,314696,1912196
48,19,female,Belg,3,94,guess,neutral,10,left,7,guess_outcome,0,undefined,0,0,260,313135,1913757
48,19,female,Belg,3,94,ITC,neutral,10,left,7,ITC_start,4162,space,0,0,260,308970,1917922
48,19,female,Belg,3,94,ITC,neutral,10,left,7,ITC_choice,600,f,0,0,260,308366,1918526
48,19,female,Belg,3,94,ITC,neutral,10,left,7,ITC_wait,0,undefined,0,0,260,298357,1928535
48,19,female,Belg,3,94,ITC,neutral,10,left,7,ITC_collect,1548,k,0,0,260,296806,1930086
48,19,female,Belg,3,94,ITC,neutral,10,left,7,ITC_outcome,0,undefined,0,0,280,295797,1931095
48,19,female,Belg,3,95,guess,win,5,right,15,guess_start,45,space,0,0,280,295746,1931146
48,19,female,Belg,3,95,guess,win,5,right,15,guess_choice,848,f,0,0,280,294893,1931999
48,19,female,Belg,3,95,guess,win,5,right,15,guess_outcome,0,undefined,0,0,300,293337,1933555
48,19,female,Belg,3,95,ITC,win,5,right,15,ITC_start,74,space,0,0,300,293260,1933632
48,19,female,Belg,3,95,ITC,win,5,right,15,ITC_choice,650,j,0,0,300,292606,1934286
48,19,female,Belg,3,95,ITC,win,5,right,15,ITC_wait,0,undefined,0,0,300,287597,1939295
48,19,female,Belg,3,95,ITC,win,5,right,15,ITC_collect,373,k,0,0,300,287221,1939671
48,19,female,Belg,3,95,ITC,win,5,right,15,ITC_outcome,0,undefined,0,0,320,286214,1940678
48,19,female,Belg,3,96,guess,loss,5,right,7,guess_start,176,space,0,0,320,286033,1940859
48,19,female,Belg,3,96,guess,loss,5,right,7,guess_choice,439,j,0,0,320,285588,1941304
48,19,female,Belg,3,96,guess,loss,5,right,7,guess_outcome,0,undefined,0,0,305,284028,1942864
48,19,female,Belg,3,96,ITC,loss,5,right,7,ITC_start,228,space,0,0,305,283796,1943096
48,19,female,Belg,3,96,ITC,loss,5,right,7,ITC_choice,616,j,0,0,305,283177,1943715
48,19,female,Belg,3,96,ITC,loss,5,right,7,ITC_wait,0,undefined,0,0,305,278169,1948723
48,19,female,Belg,3,96,ITC,loss,5,right,7,ITC_collect,1275,k,0,0,305,276890,1950002
48,19,female,Belg,3,96,ITC,loss,5,right,7,ITC_outcome,0,undefined,0,0,325,275884,1951008
48,19,female,Belg,3,97,guess,neutral,5,right,16,guess_start,58,space,0,0,325,275821,1951071
48,19,female,Belg,3,97,guess,neutral,5,right,16,guess_choice,563,j,0,0,325,275253,1951639
48,19,female,Belg,3,97,guess,neutral,5,right,16,guess_outcome,0,undefined,0,0,325,273692,1953200
48,19,female,Belg,3,97,ITC,neutral,5,right,16,ITC_start,232,space,0,0,325,273457,1953435
48,19,female,Belg,3,97,ITC,neutral,5,right,16,ITC_choice,680,j,0,0,325,272773,1954119
48,19,female,Belg,3,97,ITC,neutral,5,right,16,ITC_wait,0,undefined,0,0,325,267768,1959124
48,19,female,Belg,3,97,ITC,neutral,5,right,16,ITC_collect,804,k,0,0,325,266960,1959932
48,19,female,Belg,3,97,ITC,neutral,5,right,16,ITC_outcome,0,undefined,0,0,345,265954,1960938
48,19,female,Belg,3,98,guess,neutral,10,right,6,guess_start,221,space,0,0,345,265727,1961165
48,19,female,Belg,3,98,guess,neutral,10,right,6,guess_choice,490,f,0,0,345,265231,1961661
48,19,female,Belg,3,98,guess,neutral,10,right,6,guess_outcome,0,undefined,0,0,345,263675,1963217
48,19,female,Belg,3,98,ITC,neutral,10,right,6,ITC_start,611,space,0,0,345,263061,1963831
48,19,female,Belg,3,98,ITC,neutral,10,right,6,ITC_choice,583,j,0,0,345,262474,1964418
48,19,female,Belg,3,98,ITC,neutral,10,right,6,ITC_wait,0,undefined,0,0,345,252470,1974422
48,19,female,Belg,3,98,ITC,neutral,10,right,6,ITC_collect,817,k,0,0,345,251648,1975244
48,19,female,Belg,3,98,ITC,neutral,10,right,6,ITC_outcome,0,undefined,0,0,365,250640,1976252
48,19,female,Belg,3,99,guess,loss,5,left,3,guess_start,1329,space,0,0,365,249306,1977586
48,19,female,Belg,3,99,guess,loss,5,left,3,guess_choice,2045,j,0,0,365,247255,1979637
48,19,female,Belg,3,99,guess,loss,5,left,3,guess_outcome,0,undefined,0,0,350,245699,1981193
48,19,female,Belg,3,99,ITC,loss,5,left,3,ITC_start,382,space,0,0,350,245314,1981578
48,19,female,Belg,3,99,ITC,loss,5,left,3,ITC_choice,717,f,0,0,350,244593,1982299
48,19,female,Belg,3,99,ITC,loss,5,left,3,ITC_wait,0,undefined,0,0,350,239589,1987303
48,19,female,Belg,3,99,ITC,loss,5,left,3,ITC_collect,2986,k,0,0,350,236599,1990293
48,19,female,Belg,3,99,ITC,loss,5,left,3,ITC_outcome,0,undefined,0,0,370,235590,1991302
48,19,female,Belg,3,100,guess,loss,5,right,11,guess_start,418,space,0,0,370,235167,1991725
48,19,female,Belg,3,100,guess,loss,5,right,11,guess_choice,582,f,0,0,370,234579,1992313
48,19,female,Belg,3,100,guess,loss,5,right,11,guess_outcome,0,undefined,0,0,355,233021,1993871
48,19,female,Belg,3,100,ITC,loss,5,right,11,ITC_start,230,space,0,0,355,232787,1994105
48,19,female,Belg,3,100,ITC,loss,5,right,11,ITC_choice,589,j,0,0,355,232194,1994698
48,19,female,Belg,3,100,ITC,loss,5,right,11,ITC_wait,0,undefined,0,0,355,227185,1999707
48,19,female,Belg,3,100,ITC,loss,5,right,11,ITC_collect,2037,k,0,0,355,225145,2001747
48,19,female,Belg,3,100,ITC,loss,5,right,11,ITC_outcome,0,undefined,0,0,375,224136,2002756
48,19,female,Belg,3,101,guess,neutral,5,left,11,guess_start,576,space,0,0,375,223555,2003337
48,19,female,Belg,3,101,guess,neutral,5,left,11,guess_choice,753,f,0,0,375,222796,2004096
48,19,female,Belg,3,101,guess,neutral,5,left,11,guess_outcome,0,undefined,0,0,375,221239,2005653
48,19,female,Belg,3,101,ITC,neutral,5,left,11,ITC_start,579,space,0,0,375,220656,2006236
48,19,female,Belg,3,101,ITC,neutral,5,left,11,ITC_choice,663,f,0,0,375,219989,2006903
48,19,female,Belg,3,101,ITC,neutral,5,left,11,ITC_wait,0,undefined,0,0,375,214983,2011909
48,19,female,Belg,3,101,ITC,neutral,5,left,11,ITC_collect,799,k,0,0,375,214180,2012712
48,19,female,Belg,3,101,ITC,neutral,5,left,11,ITC_outcome,0,undefined,0,0,395,213173,2013719
48,19,female,Belg,3,102,guess,win,5,left,1,guess_start,438,space,0,0,395,212728,2014164
48,19,female,Belg,3,102,guess,win,5,left,1,guess_choice,640,j,0,0,395,212082,2014810
48,19,female,Belg,3,102,guess,win,5,left,1,guess_outcome,0,undefined,0,0,415,210521,2016371
48,19,female,Belg,3,102,ITC,win,5,left,1,ITC_start,396,space,0,0,415,210122,2016770
48,19,female,Belg,3,102,ITC,win,5,left,1,ITC_choice,1008,f,0,0,415,209109,2017783
48,19,female,Belg,3,102,ITC,win,5,left,1,ITC_wait,0,undefined,0,0,415,204101,2022791
48,19,female,Belg,3,102,ITC,win,5,left,1,ITC_collect,1283,k,0,0,415,202814,2024078
48,19,female,Belg,3,102,ITC,win,5,left,1,ITC_outcome,0,undefined,0,0,435,201809,2025083
48,19,female,Belg,3,103,guess,loss,5,left,16,guess_start,820,space,0,0,435,200984,2025908
48,19,female,Belg,3,103,guess,loss,5,left,16,guess_choice,627,f,0,0,435,200350,2026542
48,19,female,Belg,3,103,guess,loss,5,left,16,guess_outcome,0,undefined,0,0,420,198792,2028100
48,19,female,Belg,3,103,ITC,loss,5,left,16,ITC_start,1076,space,0,0,420,197712,2029180
48,19,female,Belg,3,103,ITC,loss,5,left,16,ITC_choice,598,f,0,0,420,197110,2029782
48,19,female,Belg,3,103,ITC,loss,5,left,16,ITC_wait,0,undefined,0,0,420,192105,2034787
48,19,female,Belg,3,103,ITC,loss,5,left,16,ITC_collect,1462,k,0,0,420,190639,2036253
48,19,female,Belg,3,103,ITC,loss,5,left,16,ITC_outcome,0,undefined,0,0,440,189630,2037262
48,19,female,Belg,3,104,guess,win,10,right,1,guess_start,420,space,0,0,440,189205,2037687
48,19,female,Belg,3,104,guess,win,10,right,1,guess_choice,651,j,0,0,440,188548,2038344
48,19,female,Belg,3,104,guess,win,10,right,1,guess_outcome,0,undefined,0,0,460,186987,2039905
48,19,female,Belg,3,104,ITC,win,10,right,1,ITC_start,376,space,0,0,460,186607,2040285
48,19,female,Belg,3,104,ITC,win,10,right,1,ITC_choice,636,j,0,0,460,185967,2040925
48,19,female,Belg,3,104,ITC,win,10,right,1,ITC_wait,0,undefined,0,0,460,175959,2050933
48,19,female,Belg,3,104,ITC,win,10,right,1,ITC_collect,1542,k,0,0,460,174412,2052480
48,19,female,Belg,3,104,ITC,win,10,right,1,ITC_outcome,0,undefined,0,0,480,173403,2053489
48,19,female,Belg,3,105,guess,neutral,5,right,1,guess_start,735,space,0,0,480,172664,2054228
48,19,female,Belg,3,105,guess,neutral,5,right,1,guess_choice,548,j,0,0,480,172110,2054782
48,19,female,Belg,3,105,guess,neutral,5,right,1,guess_outcome,0,undefined,0,0,480,170554,2056338
48,19,female,Belg,3,105,ITC,neutral,5,right,1,ITC_start,1319,space,0,0,480,169232,2057660
48,19,female,Belg,3,105,ITC,neutral,5,right,1,ITC_choice,1178,j,0,0,480,168050,2058842
48,19,female,Belg,3,105,ITC,neutral,5,right,1,ITC_wait,0,undefined,0,0,480,163042,2063850
48,19,female,Belg,3,105,ITC,neutral,5,right,1,ITC_collect,799,k,0,0,480,162239,2064653
48,19,female,Belg,3,105,ITC,neutral,5,right,1,ITC_outcome,0,undefined,0,0,500,161233,2065659
48,19,female,Belg,3,106,guess,neutral,5,left,7,guess_start,2484,space,0,0,500,158743,2068149
48,19,female,Belg,3,106,guess,neutral,5,left,7,guess_choice,1137,j,0,0,500,157600,2069292
48,19,female,Belg,3,106,guess,neutral,5,left,7,guess_outcome,0,undefined,0,0,500,156042,2070850
48,19,female,Belg,3,106,ITC,neutral,5,left,7,ITC_start,1157,space,0,0,500,154882,2072010
48,19,female,Belg,3,106,ITC,neutral,5,left,7,ITC_choice,677,f,0,0,500,154201,2072691
48,19,female,Belg,3,106,ITC,neutral,5,left,7,ITC_wait,0,undefined,0,0,500,149192,2077700
48,19,female,Belg,3,106,ITC,neutral,5,left,7,ITC_collect,671,k,0,0,500,148518,2078374
48,19,female,Belg,3,106,ITC,neutral,5,left,7,ITC_outcome,0,undefined,0,0,520,147508,2079384
48,19,female,Belg,3,107,guess,loss,10,left,3,guess_start,360,space,0,0,520,147144,2079748
48,19,female,Belg,3,107,guess,loss,10,left,3,guess_choice,668,j,0,0,520,146472,2080420
48,19,female,Belg,3,107,guess,loss,10,left,3,guess_outcome,0,undefined,0,0,505,144912,2081980
48,19,female,Belg,3,107,ITC,loss,10,left,3,ITC_start,129,space,0,0,505,144779,2082113
48,19,female,Belg,3,107,ITC,loss,10,left,3,ITC_choice,804,f,0,0,505,143971,2082921
48,19,female,Belg,3,107,ITC,loss,10,left,3,ITC_wait,0,undefined,0,0,505,133963,2092929
48,19,female,Belg,3,107,ITC,loss,10,left,3,ITC_collect,581,k,0,0,505,133378,2093514
48,19,female,Belg,3,107,ITC,loss,10,left,3,ITC_outcome,0,undefined,0,0,525,132370,2094522
48,19,female,Belg,3,108,guess,win,5,left,16,guess_start,83,space,0,0,525,132281,2094611
48,19,female,Belg,3,108,guess,win,5,left,16,guess_choice,622,j,0,0,525,131653,2095239
48,19,female,Belg,3,108,guess,win,5,left,16,guess_outcome,0,undefined,0,0,545,130093,2096799
48,19,female,Belg,3,108,ITC,win,5,left,16,ITC_start,1670,space,0,0,545,128419,2098473
48,19,female,Belg,3,108,ITC,win,5,left,16,ITC_choice,1197,f,0,0,545,127218,2099674
48,19,female,Belg,3,108,ITC,win,5,left,16,ITC_wait,0,undefined,0,0,545,122213,2104679
48,19,female,Belg,3,108,ITC,win,5,left,16,ITC_collect,2711,k,0,0,545,119498,2107394
48,19,female,Belg,3,108,ITC,win,5,left,16,ITC_outcome,0,undefined,0,0,565,118488,2108404
48,19,female,Belg,3,109,guess,neutral,5,left,4,guess_start,575,space,0,0,565,117908,2108984
48,19,female,Belg,3,109,guess,neutral,5,left,4,guess_choice,595,j,0,0,565,117306,2109586
48,19,female,Belg,3,109,guess,neutral,5,left,4,guess_outcome,0,undefined,0,0,565,115751,2111141
48,19,female,Belg,3,109,ITC,neutral,5,left,4,ITC_start,447,space,0,0,565,115300,2111592
48,19,female,Belg,3,109,ITC,neutral,5,left,4,ITC_choice,587,f,0,0,565,114709,2112183
48,19,female,Belg,3,109,ITC,neutral,5,left,4,ITC_wait,0,undefined,0,0,565,109701,2117191
48,19,female,Belg,3,109,ITC,neutral,5,left,4,ITC_collect,993,k,0,0,565,108704,2118188
48,19,female,Belg,3,109,ITC,neutral,5,left,4,ITC_outcome,0,undefined,0,0,585,107698,2119194
48,19,female,Belg,3,110,guess,loss,10,right,7,guess_start,387,space,0,0,585,107305,2119587
48,19,female,Belg,3,110,guess,loss,10,right,7,guess_choice,894,j,0,0,585,106405,2120487
48,19,female,Belg,3,110,guess,loss,10,right,7,guess_outcome,0,undefined,0,0,570,104847,2122045
48,19,female,Belg,3,110,ITC,loss,10,right,7,ITC_start,138,space,0,0,570,104706,2122186
48,19,female,Belg,3,110,ITC,loss,10,right,7,ITC_choice,1156,j,0,0,570,103546,2123346
48,19,female,Belg,3,110,ITC,loss,10,right,7,ITC_wait,0,undefined,0,0,570,93538,2133354
48,19,female,Belg,3,110,ITC,loss,10,right,7,ITC_collect,755,k,0,0,570,92779,2134113
48,19,female,Belg,3,110,ITC,loss,10,right,7,ITC_outcome,0,undefined,0,0,590,91773,2135119
48,19,female,Belg,3,111,guess,win,10,right,2,guess_start,16,space,0,0,590,91752,2135140
48,19,female,Belg,3,111,guess,win,10,right,2,guess_choice,513,j,0,0,590,91235,2135657
48,19,female,Belg,3,111,guess,win,10,right,2,guess_outcome,0,undefined,0,0,610,89676,2137216
48,19,female,Belg,3,111,ITC,win,10,right,2,ITC_start,321,space,0,0,610,89352,2137540
48,19,female,Belg,3,111,ITC,win,10,right,2,ITC_choice,572,j,0,0,610,88775,2138117
48,19,female,Belg,3,111,ITC,win,10,right,2,ITC_wait,0,undefined,0,0,610,78766,2148126
48,19,female,Belg,3,111,ITC,win,10,right,2,ITC_collect,717,k,0,0,610,78045,2148847
48,19,female,Belg,3,111,ITC,win,10,right,2,ITC_outcome,0,undefined,0,0,630,77036,2149856
48,19,female,Belg,3,112,guess,neutral,10,right,8,guess_start,71,space,0,0,630,76961,2149931
48,19,female,Belg,3,112,guess,neutral,10,right,8,guess_choice,643,j,0,0,630,76312,2150580
48,19,female,Belg,3,112,guess,neutral,10,right,8,guess_outcome,0,undefined,0,0,630,74754,2152138
48,19,female,Belg,3,112,ITC,neutral,10,right,8,ITC_start,454,space,0,0,630,74296,2152596
48,19,female,Belg,3,112,ITC,neutral,10,right,8,ITC_choice,788,j,0,0,630,73504,2153388
48,19,female,Belg,3,112,ITC,neutral,10,right,8,ITC_wait,0,undefined,0,0,630,63496,2163396
48,19,female,Belg,3,112,ITC,neutral,10,right,8,ITC_collect,830,k,0,0,630,62664,2164228
48,19,female,Belg,3,112,ITC,neutral,10,right,8,ITC_outcome,0,undefined,0,0,650,61654,2165238
48,19,female,Belg,3,113,guess,neutral,5,right,15,guess_start,402,space,0,0,650,61247,2165645
48,19,female,Belg,3,113,guess,neutral,5,right,15,guess_choice,975,f,0,0,650,60265,2166627
48,19,female,Belg,3,113,guess,neutral,5,right,15,guess_outcome,0,undefined,0,0,650,58705,2168187
48,19,female,Belg,3,113,ITC,neutral,5,right,15,ITC_start,336,space,0,0,650,58366,2168526
48,19,female,Belg,3,113,ITC,neutral,5,right,15,ITC_choice,811,j,0,0,650,57550,2169342
48,19,female,Belg,3,113,ITC,neutral,5,right,15,ITC_wait,0,undefined,0,0,650,52542,2174350
48,19,female,Belg,3,113,ITC,neutral,5,right,15,ITC_collect,1986,k,0,0,650,50552,2176340
48,19,female,Belg,3,113,ITC,neutral,5,right,15,ITC_outcome,0,undefined,0,0,670,49545,2177347
48,19,female,Belg,3,114,guess,win,5,right,14,guess_start,789,space,0,0,670,48751,2178141
48,19,female,Belg,3,114,guess,win,5,right,14,guess_choice,468,j,0,0,670,48275,2178617
48,19,female,Belg,3,114,guess,win,5,right,14,guess_outcome,0,undefined,0,0,690,46716,2180176
48,19,female,Belg,3,114,ITC,win,5,right,14,ITC_start,450,space,0,0,690,46262,2180630
48,19,female,Belg,3,114,ITC,win,5,right,14,ITC_choice,727,j,0,0,690,45531,2181361
48,19,female,Belg,3,114,ITC,win,5,right,14,ITC_wait,0,undefined,0,0,690,40522,2186370
48,19,female,Belg,3,114,ITC,win,5,right,14,ITC_collect,561,k,0,0,690,39958,2186934
48,19,female,Belg,3,114,ITC,win,5,right,14,ITC_outcome,0,undefined,0,0,710,38952,2187940
48,19,female,Belg,3,115,guess,neutral,10,left,5,guess_start,367,space,0,0,710,38580,2188312
48,19,female,Belg,3,115,guess,neutral,10,left,5,guess_choice,423,j,0,0,710,38151,2188741
48,19,female,Belg,3,115,guess,neutral,10,left,5,guess_outcome,0,undefined,0,0,710,36590,2190302
48,19,female,Belg,3,115,ITC,neutral,10,left,5,ITC_start,437,space,0,0,710,36149,2190743
48,19,female,Belg,3,115,ITC,neutral,10,left,5,ITC_choice,1206,f,0,0,710,34938,2191954
48,19,female,Belg,3,115,ITC,neutral,10,left,5,ITC_wait,0,undefined,0,0,710,24931,2201961
48,19,female,Belg,3,115,ITC,neutral,10,left,5,ITC_collect,816,k,0,0,710,24111,2202781
48,19,female,Belg,3,115,ITC,neutral,10,left,5,ITC_outcome,0,undefined,0,0,730,23101,2203791
48,19,female,Belg,3,116,guess,neutral,5,left,12,guess_start,649,space,0,0,730,22447,2204445
48,19,female,Belg,3,116,guess,neutral,5,left,12,guess_choice,521,j,0,0,730,21920,2204972
48,19,female,Belg,3,116,guess,neutral,5,left,12,guess_outcome,0,undefined,0,0,730,20359,2206533
48,19,female,Belg,3,116,ITC,neutral,5,left,12,ITC_start,509,space,0,0,730,19846,2207046
48,19,female,Belg,3,116,ITC,neutral,5,left,12,ITC_choice,1016,f,0,0,730,18827,2208065
48,19,female,Belg,3,116,ITC,neutral,5,left,12,ITC_wait,0,undefined,0,0,730,13819,2213073
48,19,female,Belg,3,116,ITC,neutral,5,left,12,ITC_collect,820,k,0,0,730,12995,2213897
48,19,female,Belg,3,116,ITC,neutral,5,left,12,ITC_outcome,0,undefined,0,0,750,11986,2214906
48,19,female,Belg,3,117,guess,neutral,5,right,14,guess_start,78,space,0,0,750,11904,2214988
48,19,female,Belg,3,117,guess,neutral,5,right,14,guess_choice,496,j,0,0,750,11402,2215490
48,19,female,Belg,3,117,guess,neutral,5,right,14,guess_outcome,0,undefined,0,0,750,9845,2217047
48,19,female,Belg,3,117,ITC,neutral,5,right,14,ITC_start,2136,space,0,0,750,7705,2219187
48,19,female,Belg,3,117,ITC,neutral,5,right,14,ITC_choice,615,j,0,0,750,7085,2219807
48,19,female,Belg,3,117,ITC,neutral,5,right,14,ITC_wait,0,undefined,0,0,750,2077,2224815
48,19,female,Belg,3,117,ITC,neutral,5,right,14,ITC_collect,494,k,0,0,750,1579,2225313
48,19,female,Belg,3,117,ITC,neutral,5,right,14,ITC_outcome,0,undefined,0,0,770,573,2226319
48,19,female,Belg,3,118,guess,win,5,left,5,guess_start,405,space,0,0,770,163,2226729
48,19,female,Belg,3,118,guess,win,5,left,5,guess_choice,0,undefined,0,0,770,-6,2226898
48,19,female,Belg,4,119,guess,win,5,right,3,guess_start,532,space,0,0,0,479465,2383725
48,19,female,Belg,4,119,guess,win,5,right,3,guess_choice,1433,j,0,0,0,478024,2385166
48,19,female,Belg,4,119,guess,win,5,right,3,guess_outcome,0,undefined,0,0,20,476467,2386723
48,19,female,Belg,4,119,ITC,win,5,right,3,ITC_start,1002,space,0,0,20,475462,2387728
48,19,female,Belg,4,119,ITC,win,5,right,3,ITC_choice,611,j,0,0,20,474848,2388342
48,19,female,Belg,4,119,ITC,win,5,right,3,ITC_wait,0,undefined,0,0,20,469841,2393349
48,19,female,Belg,4,119,ITC,win,5,right,3,ITC_collect,1206,k,0,0,20,468631,2394559
48,19,female,Belg,4,119,ITC,win,5,right,3,ITC_outcome,0,undefined,0,0,40,467625,2395565
48,19,female,Belg,4,120,guess,loss,10,left,4,guess_start,286,space,0,0,40,467334,2395856
48,19,female,Belg,4,120,guess,loss,10,left,4,guess_choice,781,f,0,0,40,466547,2396643
48,19,female,Belg,4,120,guess,loss,10,left,4,guess_outcome,0,undefined,0,0,25,464987,2398203
48,19,female,Belg,4,120,ITC,loss,10,left,4,ITC_start,238,space,0,0,25,464745,2398445
48,19,female,Belg,4,120,ITC,loss,10,left,4,ITC_choice,659,f,0,0,25,464082,2399108
48,19,female,Belg,4,120,ITC,loss,10,left,4,ITC_wait,0,undefined,0,0,25,454075,2409115
48,19,female,Belg,4,120,ITC,loss,10,left,4,ITC_collect,5392,k,0,0,25,448679,2414511
48,19,female,Belg,4,120,ITC,loss,10,left,4,ITC_outcome,0,undefined,0,0,45,447670,2415520
48,19,female,Belg,4,121,guess,win,5,right,11,guess_start,1346,space,0,0,45,446320,2416870
48,19,female,Belg,4,121,guess,win,5,right,11,guess_choice,757,j,0,0,45,445556,2417634
48,19,female,Belg,4,121,guess,win,5,right,11,guess_outcome,0,undefined,0,0,65,443996,2419194
48,19,female,Belg,4,121,ITC,win,5,right,11,ITC_start,2752,space,0,0,65,441240,2421950
48,19,female,Belg,4,121,ITC,win,5,right,11,ITC_choice,977,j,0,0,65,440259,2422931
48,19,female,Belg,4,121,ITC,win,5,right,11,ITC_wait,0,undefined,0,0,65,435255,2427935
48,19,female,Belg,4,121,ITC,win,5,right,11,ITC_collect,623,k,0,0,65,434629,2428561
48,19,female,Belg,4,121,ITC,win,5,right,11,ITC_outcome,0,undefined,0,0,85,433621,2429569
48,19,female,Belg,4,122,guess,win,5,right,9,guess_start,2254,space,0,0,85,431363,2431827
48,19,female,Belg,4,122,guess,win,5,right,9,guess_choice,547,j,0,0,85,430810,2432380
48,19,female,Belg,4,122,guess,win,5,right,9,guess_outcome,0,undefined,0,0,105,429253,2433937
48,19,female,Belg,4,122,ITC,win,5,right,9,ITC_start,1846,space,0,0,105,427403,2435787
48,19,female,Belg,4,122,ITC,win,5,right,9,ITC_choice,678,j,0,0,105,426722,2436468
48,19,female,Belg,4,122,ITC,win,5,right,9,ITC_wait,0,undefined,0,0,105,421713,2441477
48,19,female,Belg,4,122,ITC,win,5,right,9,ITC_collect,1493,k,0,0,105,420215,2442975
48,19,female,Belg,4,122,ITC,win,5,right,9,ITC_outcome,0,undefined,0,0,125,419210,2443980
48,19,female,Belg,4,123,guess,loss,5,right,15,guess_start,2054,space,0,0,125,417151,2446039
48,19,female,Belg,4,123,guess,loss,5,right,15,guess_choice,531,j,0,0,125,416614,2446576
48,19,female,Belg,4,123,guess,loss,5,right,15,guess_outcome,0,undefined,0,0,110,415056,2448134
48,19,female,Belg,4,123,ITC,loss,5,right,15,ITC_start,481,space,0,0,110,414570,2448620
48,19,female,Belg,4,123,ITC,loss,5,right,15,ITC_choice,754,j,0,0,110,413812,2449378
48,19,female,Belg,4,123,ITC,loss,5,right,15,ITC_wait,0,undefined,0,0,110,408804,2454386
48,19,female,Belg,4,123,ITC,loss,5,right,15,ITC_collect,673,k,0,0,110,408126,2455064
48,19,female,Belg,4,123,ITC,loss,5,right,15,ITC_outcome,0,undefined,0,0,130,407117,2456073
48,19,female,Belg,4,124,guess,loss,10,right,5,guess_start,279,space,0,0,130,406833,2456357
48,19,female,Belg,4,124,guess,loss,10,right,5,guess_choice,514,f,0,0,130,406312,2456878
48,19,female,Belg,4,124,guess,loss,10,right,5,guess_outcome,0,undefined,0,0,115,404752,2458438
48,19,female,Belg,4,124,ITC,loss,10,right,5,ITC_start,82,space,0,0,115,404666,2458524
48,19,female,Belg,4,124,ITC,loss,10,right,5,ITC_choice,548,j,0,0,115,404115,2459075
48,19,female,Belg,4,124,ITC,loss,10,right,5,ITC_wait,0,undefined,0,0,115,394106,2469084
48,19,female,Belg,4,124,ITC,loss,10,right,5,ITC_collect,551,k,0,0,115,393551,2469639
48,19,female,Belg,4,124,ITC,loss,10,right,5,ITC_outcome,0,undefined,0,0,135,392542,2470648
48,19,female,Belg,4,125,guess,neutral,5,left,10,guess_start,3911,space,0,0,135,388626,2474564
48,19,female,Belg,4,125,guess,neutral,5,left,10,guess_choice,2129,j,0,0,135,386490,2476700
48,19,female,Belg,4,125,guess,neutral,5,left,10,guess_outcome,0,undefined,0,0,135,384931,2478259
48,19,female,Belg,4,125,ITC,neutral,5,left,10,ITC_start,391,space,0,0,135,384535,2478655
48,19,female,Belg,4,125,ITC,neutral,5,left,10,ITC_choice,627,f,0,0,135,383904,2479286
48,19,female,Belg,4,125,ITC,neutral,5,left,10,ITC_wait,0,undefined,0,0,135,378898,2484292
48,19,female,Belg,4,125,ITC,neutral,5,left,10,ITC_collect,799,k,0,0,135,378094,2485096
48,19,female,Belg,4,125,ITC,neutral,5,left,10,ITC_outcome,0,undefined,0,0,155,377086,2486104
48,19,female,Belg,4,126,guess,neutral,10,left,2,guess_start,427,space,0,0,155,376654,2486536
48,19,female,Belg,4,126,guess,neutral,10,left,2,guess_choice,649,f,0,0,155,375999,2487191
48,19,female,Belg,4,126,guess,neutral,10,left,2,guess_outcome,0,undefined,0,0,155,374440,2488750
48,19,female,Belg,4,126,ITC,neutral,10,left,2,ITC_start,5552,space,0,0,155,368885,2494305
48,19,female,Belg,4,126,ITC,neutral,10,left,2,ITC_choice,1124,f,0,0,155,367756,2495434
48,19,female,Belg,4,126,ITC,neutral,10,left,2,ITC_wait,0,undefined,0,0,155,357748,2505442
48,19,female,Belg,4,126,ITC,neutral,10,left,2,ITC_collect,234,k,0,0,155,357509,2505681
48,19,female,Belg,4,126,ITC,neutral,10,left,2,ITC_outcome,0,undefined,0,0,175,356500,2506690
48,19,female,Belg,4,127,guess,win,10,left,6,guess_start,169,space,0,0,175,356326,2506864
48,19,female,Belg,4,127,guess,win,10,left,6,guess_choice,669,j,0,0,175,355650,2507540
48,19,female,Belg,4,127,guess,win,10,left,6,guess_outcome,0,undefined,0,0,195,354089,2509101
48,19,female,Belg,4,127,ITC,win,10,left,6,ITC_start,557,space,0,0,195,353528,2509662
48,19,female,Belg,4,127,ITC,win,10,left,6,ITC_choice,576,f,0,0,195,352948,2510242
48,19,female,Belg,4,127,ITC,win,10,left,6,ITC_wait,0,undefined,0,0,195,342940,2520250
48,19,female,Belg,4,127,ITC,win,10,left,6,ITC_collect,2622,k,0,0,195,340315,2522875
48,19,female,Belg,4,127,ITC,win,10,left,6,ITC_outcome,0,undefined,0,0,215,339309,2523881
48,19,female,Belg,4,128,guess,win,10,right,8,guess_start,8949,space,0,0,215,330355,2532835
48,19,female,Belg,4,128,guess,win,10,right,8,guess_choice,473,f,0,0,215,329876,2533314
48,19,female,Belg,4,128,guess,win,10,right,8,guess_outcome,0,undefined,0,0,235,328315,2534875
48,19,female,Belg,4,128,ITC,win,10,right,8,ITC_start,114,space,0,0,235,328198,2534992
48,19,female,Belg,4,128,ITC,win,10,right,8,ITC_choice,657,j,0,0,235,327537,2535653
48,19,female,Belg,4,128,ITC,win,10,right,8,ITC_wait,0,undefined,0,0,235,317532,2545658
48,19,female,Belg,4,128,ITC,win,10,right,8,ITC_collect,1930,k,0,0,235,315598,2547592
48,19,female,Belg,4,128,ITC,win,10,right,8,ITC_outcome,0,undefined,0,0,255,314590,2548600
48,19,female,Belg,4,129,guess,win,5,right,8,guess_start,1264,space,0,0,255,313321,2549869
48,19,female,Belg,4,129,guess,win,5,right,8,guess_choice,474,f,0,0,255,312840,2550350
48,19,female,Belg,4,129,guess,win,5,right,8,guess_outcome,0,undefined,0,0,275,311283,2551907
48,19,female,Belg,4,129,ITC,win,5,right,8,ITC_start,50,space,0,0,275,311230,2551960
48,19,female,Belg,4,129,ITC,win,5,right,8,ITC_choice,557,j,0,0,275,310670,2552520
48,19,female,Belg,4,129,ITC,win,5,right,8,ITC_wait,0,undefined,0,0,275,305661,2557529
48,19,female,Belg,4,129,ITC,win,5,right,8,ITC_collect,1145,k,0,0,275,304512,2558678
48,19,female,Belg,4,129,ITC,win,5,right,8,ITC_outcome,0,undefined,0,0,295,303506,2559684
48,19,female,Belg,4,130,guess,neutral,5,right,2,guess_start,238,space,0,0,295,303265,2559925
48,19,female,Belg,4,130,guess,neutral,5,right,2,guess_choice,508,f,0,0,295,302751,2560439
48,19,female,Belg,4,130,guess,neutral,5,right,2,guess_outcome,0,undefined,0,0,295,301193,2561997
48,19,female,Belg,4,130,ITC,neutral,5,right,2,ITC_start,800,space,0,0,295,300389,2562801
48,19,female,Belg,4,130,ITC,neutral,5,right,2,ITC_choice,714,j,0,0,295,299670,2563520
48,19,female,Belg,4,130,ITC,neutral,5,right,2,ITC_wait,0,undefined,0,0,295,294667,2568523
48,19,female,Belg,4,130,ITC,neutral,5,right,2,ITC_collect,890,k,0,0,295,293775,2569415
48,19,female,Belg,4,130,ITC,neutral,5,right,2,ITC_outcome,0,undefined,0,0,315,292768,2570422
48,19,female,Belg,4,131,guess,win,5,left,10,guess_start,70,space,0,0,315,292694,2570496
48,19,female,Belg,4,131,guess,win,5,left,10,guess_choice,707,j,0,0,315,291983,2571207
48,19,female,Belg,4,131,guess,win,5,left,10,guess_outcome,0,undefined,0,0,335,290423,2572767
48,19,female,Belg,4,131,ITC,win,5,left,10,ITC_start,407,space,0,0,335,290013,2573177
48,19,female,Belg,4,131,ITC,win,5,left,10,ITC_choice,582,f,0,0,335,289427,2573763
48,19,female,Belg,4,131,ITC,win,5,left,10,ITC_wait,0,undefined,0,0,335,284423,2578767
48,19,female,Belg,4,131,ITC,win,5,left,10,ITC_collect,3714,k,0,0,335,280705,2582485
48,19,female,Belg,4,131,ITC,win,5,left,10,ITC_outcome,0,undefined,0,0,355,279698,2583492
48,19,female,Belg,4,132,guess,win,10,left,4,guess_start,482,space,0,0,355,279210,2583980
48,19,female,Belg,4,132,guess,win,10,left,4,guess_choice,471,j,0,0,355,278733,2584457
48,19,female,Belg,4,132,guess,win,10,left,4,guess_outcome,0,undefined,0,0,375,277175,2586015
48,19,female,Belg,4,132,ITC,win,10,left,4,ITC_start,348,space,0,0,375,276823,2586367
48,19,female,Belg,4,132,ITC,win,10,left,4,ITC_choice,539,f,0,0,375,276281,2586909
48,19,female,Belg,4,132,ITC,win,10,left,4,ITC_wait,0,undefined,0,0,375,266273,2596917
48,19,female,Belg,4,132,ITC,win,10,left,4,ITC_collect,6186,k,0,0,375,260083,2603107
48,19,female,Belg,4,132,ITC,win,10,left,4,ITC_outcome,0,undefined,0,0,395,259077,2604113
48,19,female,Belg,4,133,guess,loss,5,right,6,guess_start,340,space,0,0,395,258730,2604460
48,19,female,Belg,4,133,guess,loss,5,right,6,guess_choice,502,j,0,0,395,258222,2604968
48,19,female,Belg,4,133,guess,loss,5,right,6,guess_outcome,0,undefined,0,0,380,256664,2606526
48,19,female,Belg,4,133,ITC,loss,5,right,6,ITC_start,407,space,0,0,380,256253,2606937
48,19,female,Belg,4,133,ITC,loss,5,right,6,ITC_choice,572,j,0,0,380,255677,2607513
48,19,female,Belg,4,133,ITC,loss,5,right,6,ITC_wait,0,undefined,0,0,380,250673,2612517
48,19,female,Belg,4,133,ITC,loss,5,right,6,ITC_collect,1348,k,0,0,380,249321,2613869
48,19,female,Belg,4,133,ITC,loss,5,right,6,ITC_outcome,0,undefined,0,0,400,248312,2614878
48,19,female,Belg,4,134,guess,neutral,10,left,1,guess_start,286,space,0,0,400,248021,2615169
48,19,female,Belg,4,134,guess,neutral,10,left,1,guess_choice,496,f,0,0,400,247519,2615671
48,19,female,Belg,4,134,guess,neutral,10,left,1,guess_outcome,0,undefined,0,0,400,245960,2617230
48,19,female,Belg,4,134,ITC,neutral,10,left,1,ITC_start,900,space,0,0,400,245056,2618134
48,19,female,Belg,4,134,ITC,neutral,10,left,1,ITC_choice,611,f,0,0,400,244441,2618749
48,19,female,Belg,4,134,ITC,neutral,10,left,1,ITC_wait,0,undefined,0,0,400,234433,2628757
48,19,female,Belg,4,134,ITC,neutral,10,left,1,ITC_collect,1304,k,0,0,400,233125,2630065
48,19,female,Belg,4,134,ITC,neutral,10,left,1,ITC_outcome,0,undefined,0,0,420,232116,2631074
48,19,female,Belg,4,135,guess,win,5,left,13,guess_start,958,space,0,0,420,231154,2632036
48,19,female,Belg,4,135,guess,win,5,left,13,guess_choice,466,j,0,0,420,230684,2632506
48,19,female,Belg,4,135,guess,win,5,left,13,guess_outcome,0,undefined,0,0,440,229125,2634065
48,19,female,Belg,4,135,ITC,win,5,left,13,ITC_start,3,space,0,0,440,229119,2634071
48,19,female,Belg,4,135,ITC,win,5,left,13,ITC_choice,484,f,0,0,440,228632,2634558
48,19,female,Belg,4,135,ITC,win,5,left,13,ITC_wait,0,undefined,0,0,440,223624,2639566
48,19,female,Belg,4,135,ITC,win,5,left,13,ITC_collect,2544,k,0,0,440,221075,2642115
48,19,female,Belg,4,135,ITC,win,5,left,13,ITC_outcome,0,undefined,0,0,460,220068,2643122
48,19,female,Belg,4,136,guess,win,10,right,3,guess_start,1509,space,0,0,460,218555,2644635
48,19,female,Belg,4,136,guess,win,10,right,3,guess_choice,530,j,0,0,460,218019,2645171
48,19,female,Belg,4,136,guess,win,10,right,3,guess_outcome,0,undefined,0,0,480,216462,2646728
48,19,female,Belg,4,136,ITC,win,10,right,3,ITC_start,159,space,0,0,480,216299,2646891
48,19,female,Belg,4,136,ITC,win,10,right,3,ITC_choice,549,j,0,0,480,215747,2647443
48,19,female,Belg,4,136,ITC,win,10,right,3,ITC_wait,0,undefined,0,0,480,205738,2657452
48,19,female,Belg,4,136,ITC,win,10,right,3,ITC_collect,658,k,0,0,480,205076,2658114
48,19,female,Belg,4,136,ITC,win,10,right,3,ITC_outcome,0,undefined,0,0,500,204069,2659121
48,19,female,Belg,4,137,guess,loss,5,right,2,guess_start,38,space,0,0,500,204025,2659165
48,19,female,Belg,4,137,guess,loss,5,right,2,guess_choice,506,f,0,0,500,203513,2659677
48,19,female,Belg,4,137,guess,loss,5,right,2,guess_outcome,0,undefined,0,0,485,201953,2661237
48,19,female,Belg,4,137,ITC,loss,5,right,2,ITC_start,70,space,0,0,485,201879,2661311
48,19,female,Belg,4,137,ITC,loss,5,right,2,ITC_choice,694,j,0,0,485,201181,2662009
48,19,female,Belg,4,137,ITC,loss,5,right,2,ITC_wait,0,undefined,0,0,485,196176,2667014
48,19,female,Belg,4,137,ITC,loss,5,right,2,ITC_collect,2557,k,0,0,485,193615,2669575
48,19,female,Belg,4,137,ITC,loss,5,right,2,ITC_outcome,0,undefined,0,0,505,192608,2670582
48,19,female,Belg,4,138,guess,win,10,left,7,guess_start,385,space,0,0,505,192218,2670972
48,19,female,Belg,4,138,guess,win,10,left,7,guess_choice,639,f,0,0,505,191571,2671619
48,19,female,Belg,4,138,guess,win,10,left,7,guess_outcome,0,undefined,0,0,525,190010,2673180
48,19,female,Belg,4,138,ITC,win,10,left,7,ITC_start,284,space,0,0,525,189723,2673467
48,19,female,Belg,4,138,ITC,win,10,left,7,ITC_choice,595,f,0,0,525,189124,2674066
48,19,female,Belg,4,138,ITC,win,10,left,7,ITC_wait,0,undefined,0,0,525,179115,2684075
48,19,female,Belg,4,138,ITC,win,10,left,7,ITC_collect,496,k,0,0,525,178614,2684576
48,19,female,Belg,4,138,ITC,win,10,left,7,ITC_outcome,0,undefined,0,0,545,177609,2685581
48,19,female,Belg,4,139,guess,loss,10,left,1,guess_start,727,space,0,0,545,176877,2686313
48,19,female,Belg,4,139,guess,loss,10,left,1,guess_choice,492,j,0,0,545,176377,2686813
48,19,female,Belg,4,139,guess,loss,10,left,1,guess_outcome,0,undefined,0,0,530,174820,2688370
48,19,female,Belg,4,139,ITC,loss,10,left,1,ITC_start,402,space,0,0,530,174415,2688775
48,19,female,Belg,4,139,ITC,loss,10,left,1,ITC_choice,702,f,0,0,530,173708,2689482
48,19,female,Belg,4,139,ITC,loss,10,left,1,ITC_wait,0,undefined,0,0,530,163701,2699489
48,19,female,Belg,4,139,ITC,loss,10,left,1,ITC_collect,1953,k,0,0,530,161744,2701446
48,19,female,Belg,4,139,ITC,loss,10,left,1,ITC_outcome,0,undefined,0,0,550,160734,2702456
48,19,female,Belg,4,140,guess,loss,5,right,12,guess_start,344,space,0,0,550,160385,2702805
48,19,female,Belg,4,140,guess,loss,5,right,12,guess_choice,473,j,0,0,550,159906,2703284
48,19,female,Belg,4,140,guess,loss,5,right,12,guess_outcome,0,undefined,0,0,535,158347,2704843
48,19,female,Belg,4,140,ITC,loss,5,right,12,ITC_start,203,space,0,0,535,158140,2705050
48,19,female,Belg,4,140,ITC,loss,5,right,12,ITC_choice,558,j,0,0,535,157579,2705611
48,19,female,Belg,4,140,ITC,loss,5,right,12,ITC_wait,0,undefined,0,0,535,152572,2710618
48,19,female,Belg,4,140,ITC,loss,5,right,12,ITC_collect,515,k,0,0,535,152053,2711137
48,19,female,Belg,4,140,ITC,loss,5,right,12,ITC_outcome,0,undefined,0,0,555,151048,2712142
48,19,female,Belg,4,141,guess,loss,5,right,8,guess_start,377,space,0,0,555,150666,2712524
48,19,female,Belg,4,141,guess,loss,5,right,8,guess_choice,272,j,0,0,555,150388,2712802
48,19,female,Belg,4,141,guess,loss,5,right,8,guess_outcome,0,undefined,0,0,540,148832,2714358
48,19,female,Belg,4,141,ITC,loss,5,right,8,ITC_start,343,space,0,0,540,148486,2714704
48,19,female,Belg,4,141,ITC,loss,5,right,8,ITC_choice,912,j,0,0,540,147570,2715620
48,19,female,Belg,4,141,ITC,loss,5,right,8,ITC_wait,0,undefined,0,0,540,142562,2720628
48,19,female,Belg,4,141,ITC,loss,5,right,8,ITC_collect,517,k,0,0,540,142040,2721150
48,19,female,Belg,4,141,ITC,loss,5,right,8,ITC_outcome,0,undefined,0,0,560,141032,2722158
48,19,female,Belg,4,142,guess,neutral,10,left,4,guess_start,66,space,0,0,560,140961,2722229
48,19,female,Belg,4,142,guess,neutral,10,left,4,guess_choice,562,f,0,0,560,140393,2722797
48,19,female,Belg,4,142,guess,neutral,10,left,4,guess_outcome,0,undefined,0,0,560,138833,2724357
48,19,female,Belg,4,142,ITC,neutral,10,left,4,ITC_start,403,space,0,0,560,138426,2724764
48,19,female,Belg,4,142,ITC,neutral,10,left,4,ITC_choice,705,f,0,0,560,137716,2725474
48,19,female,Belg,4,142,ITC,neutral,10,left,4,ITC_wait,0,undefined,0,0,560,127707,2735483
48,19,female,Belg,4,142,ITC,neutral,10,left,4,ITC_collect,471,k,0,0,560,127232,2735958
48,19,female,Belg,4,142,ITC,neutral,10,left,4,ITC_outcome,0,undefined,0,0,580,126224,2736966
48,19,female,Belg,4,143,guess,loss,5,left,9,guess_start,95,space,0,0,580,126124,2737066
48,19,female,Belg,4,143,guess,loss,5,left,9,guess_choice,519,j,0,0,580,125599,2737591
48,19,female,Belg,4,143,guess,loss,5,left,9,guess_outcome,0,undefined,0,0,565,124043,2739147
48,19,female,Belg,4,143,ITC,loss,5,left,9,ITC_start,170,space,0,0,565,123870,2739320
48,19,female,Belg,4,143,ITC,loss,5,left,9,ITC_choice,663,f,0,0,565,123203,2739987
48,19,female,Belg,4,143,ITC,loss,5,left,9,ITC_wait,0,undefined,0,0,565,118194,2744996
48,19,female,Belg,4,143,ITC,loss,5,left,9,ITC_collect,1475,k,0,0,565,116715,2746475
48,19,female,Belg,4,143,ITC,loss,5,left,9,ITC_outcome,0,undefined,0,0,585,115709,2747481
48,19,female,Belg,4,144,guess,win,5,right,7,guess_start,1207,space,0,0,585,114496,2748694
48,19,female,Belg,4,144,guess,win,5,right,7,guess_choice,1039,j,0,0,585,113451,2749739
48,19,female,Belg,4,144,guess,win,5,right,7,guess_outcome,0,undefined,0,0,605,111893,2751297
48,19,female,Belg,4,144,ITC,win,5,right,7,ITC_start,378,space,0,0,605,111511,2751679
48,19,female,Belg,4,144,ITC,win,5,right,7,ITC_choice,854,j,0,0,605,110653,2752537
48,19,female,Belg,4,144,ITC,win,5,right,7,ITC_wait,0,undefined,0,0,605,105647,2757543
48,19,female,Belg,4,144,ITC,win,5,right,7,ITC_collect,1581,k,0,0,605,104062,2759128
48,19,female,Belg,4,144,ITC,win,5,right,7,ITC_outcome,0,undefined,0,0,625,103052,2760138
48,19,female,Belg,4,145,guess,neutral,5,left,9,guess_start,383,space,0,0,625,102663,2760527
48,19,female,Belg,4,145,guess,neutral,5,left,9,guess_choice,523,j,0,0,625,102133,2761057
