subjectID,age,gender,nationality,block_number,trial_number,trial_type,guess_outcome,delay_time,delay_pos,immediate_amount,stage,respRT,respKey,blur_count,focus_count,total_points,remaining_duration,time_elapsed
22,20,female,Belg,1,1,guess,win,5,right,1,guess_start,8553,space,0,0,0,471445,463757
22,20,female,Belg,1,1,guess,win,5,right,1,guess_choice,2744,f,0,0,0,468694,466508
22,20,female,Belg,1,1,guess,win,5,right,1,guess_outcome,0,undefined,0,0,20,467132,468070
22,20,female,Belg,1,1,ITC,win,5,right,1,ITC_start,6198,space,0,0,20,460931,474271
22,20,female,Belg,1,1,ITC,win,5,right,1,ITC_choice,4103,j,0,0,20,456825,478377
22,20,female,Belg,1,1,ITC,win,5,right,1,ITC_wait,0,undefined,0,0,20,451817,483385
22,20,female,Belg,1,1,ITC,win,5,right,1,ITC_collect,7300,k,0,0,20,444512,490690
22,20,female,Belg,1,1,ITC,win,5,right,1,ITC_outcome,0,undefined,0,0,40,443501,491701
22,20,female,Belg,1,2,guess,loss,5,left,5,guess_start,4615,space,0,0,40,438882,496320
22,20,female,Belg,1,2,guess,loss,5,left,5,guess_choice,2367,j,0,0,40,436511,498691
22,20,female,Belg,1,2,guess,loss,5,left,5,guess_outcome,0,undefined,0,0,25,434951,500251
22,20,female,Belg,1,2,ITC,loss,5,left,5,ITC_start,4274,space,0,0,25,430675,504527
22,20,female,Belg,1,2,ITC,loss,5,left,5,ITC_choice,1511,f,0,0,25,429162,506040
22,20,female,Belg,1,2,ITC,loss,5,left,5,ITC_wait,0,undefined,0,0,25,424154,511048
22,20,female,Belg,1,2,ITC,loss,5,left,5,ITC_collect,1520,k,0,0,25,422632,512570
22,20,female,Belg,1,2,ITC,loss,5,left,5,ITC_outcome,0,undefined,0,0,45,421625,513577
22,20,female,Belg,1,3,guess,neutral,10,right,3,guess_start,794,space,0,0,45,420828,514374
22,20,female,Belg,1,3,guess,neutral,10,right,3,guess_choice,1115,j,0,0,45,419706,515496
22,20,female,Belg,1,3,guess,neutral,10,right,3,guess_outcome,0,undefined,0,0,45,418146,517056
22,20,female,Belg,1,3,ITC,neutral,10,right,3,ITC_start,1254,space,0,0,45,416889,518313
22,20,female,Belg,1,3,ITC,neutral,10,right,3,ITC_choice,2828,f,0,0,45,414059,521143
22,20,female,Belg,1,3,ITC,neutral,10,right,3,ITC_wait,0,undefined,0,0,45,414054,521148
22,20,female,Belg,1,3,ITC,neutral,10,right,3,ITC_collect,1206,k,0,0,45,412847,522355
22,20,female,Belg,1,3,ITC,neutral,10,right,3,ITC_outcome,0,undefined,0,0,48,411837,523365
22,20,female,Belg,1,4,guess,neutral,10,right,8,guess_start,651,space,0,0,48,411184,524018
22,20,female,Belg,1,4,guess,neutral,10,right,8,guess_choice,981,j,0,0,48,410197,525005
22,20,female,Belg,1,4,guess,neutral,10,right,8,guess_outcome,0,undefined,0,0,48,408638,526564
22,20,female,Belg,1,4,ITC,neutral,10,right,8,ITC_start,1956,space,0,0,48,406680,528522
22,20,female,Belg,1,4,ITC,neutral,10,right,8,ITC_choice,2574,f,0,0,48,404103,531099
22,20,female,Belg,1,4,ITC,neutral,10,right,8,ITC_wait,0,undefined,0,0,48,404099,531103
22,20,female,Belg,1,4,ITC,neutral,10,right,8,ITC_collect,1794,k,0,0,48,402305,532897
22,20,female,Belg,1,4,ITC,neutral,10,right,8,ITC_outcome,0,undefined,0,0,56,401297,533905
22,20,female,Belg,1,5,guess,loss,5,right,11,guess_start,1768,space,0,0,56,399525,535677
22,20,female,Belg,1,5,guess,loss,5,right,11,guess_choice,1740,j,0,0,56,397779,537423
22,20,female,Belg,1,5,guess,loss,5,right,11,guess_outcome,0,undefined,0,0,41,396221,538981
22,20,female,Belg,1,5,ITC,loss,5,right,11,ITC_start,1297,space,0,0,41,394920,540282
22,20,female,Belg,1,5,ITC,loss,5,right,11,ITC_choice,3507,j,0,0,41,391411,543791
22,20,female,Belg,1,5,ITC,loss,5,right,11,ITC_wait,0,undefined,0,0,41,386407,548795
22,20,female,Belg,1,5,ITC,loss,5,right,11,ITC_collect,569,k,0,0,41,385836,549366
22,20,female,Belg,1,5,ITC,loss,5,right,11,ITC_outcome,0,undefined,0,0,61,384828,550374
22,20,female,Belg,1,6,guess,win,10,left,2,guess_start,667,space,0,0,61,384158,551044
22,20,female,Belg,1,6,guess,win,10,left,2,guess_choice,1428,j,0,0,61,382725,552477
22,20,female,Belg,1,6,guess,win,10,left,2,guess_outcome,0,undefined,0,0,81,381165,554037
22,20,female,Belg,1,6,ITC,win,10,left,2,ITC_start,934,space,0,0,81,380229,554973
22,20,female,Belg,1,6,ITC,win,10,left,2,ITC_choice,2412,j,0,0,81,377813,557389
22,20,female,Belg,1,6,ITC,win,10,left,2,ITC_wait,0,undefined,0,0,81,377809,557393
22,20,female,Belg,1,6,ITC,win,10,left,2,ITC_collect,1635,k,0,0,81,376172,559030
22,20,female,Belg,1,6,ITC,win,10,left,2,ITC_outcome,0,undefined,0,0,83,375163,560039
22,20,female,Belg,1,7,guess,neutral,5,left,11,guess_start,1463,space,0,0,83,373698,561504
22,20,female,Belg,1,7,guess,neutral,5,left,11,guess_choice,805,f,0,0,83,372889,562313
22,20,female,Belg,1,7,guess,neutral,5,left,11,guess_outcome,0,undefined,0,0,83,371329,563873
22,20,female,Belg,1,7,ITC,neutral,5,left,11,ITC_start,1088,space,0,0,83,370239,564963
22,20,female,Belg,1,7,ITC,neutral,5,left,11,ITC_choice,2689,f,0,0,83,367547,567655
22,20,female,Belg,1,7,ITC,neutral,5,left,11,ITC_wait,0,undefined,0,0,83,362540,572662
22,20,female,Belg,1,7,ITC,neutral,5,left,11,ITC_collect,1601,k,0,0,83,360935,574267
22,20,female,Belg,1,7,ITC,neutral,5,left,11,ITC_outcome,0,undefined,0,0,103,359930,575272
22,20,female,Belg,1,8,guess,win,5,right,9,guess_start,99,space,0,0,103,359828,575374
22,20,female,Belg,1,8,guess,win,5,right,9,guess_choice,1851,f,0,0,103,357971,577231
22,20,female,Belg,1,8,guess,win,5,right,9,guess_outcome,0,undefined,0,0,123,356411,578791
22,20,female,Belg,1,8,ITC,win,5,right,9,ITC_start,798,space,0,0,123,355610,579592
22,20,female,Belg,1,8,ITC,win,5,right,9,ITC_choice,3032,f,0,0,123,352577,582625
22,20,female,Belg,1,8,ITC,win,5,right,9,ITC_wait,0,undefined,0,0,123,352573,582629
22,20,female,Belg,1,8,ITC,win,5,right,9,ITC_collect,1966,k,0,0,123,350606,584596
22,20,female,Belg,1,8,ITC,win,5,right,9,ITC_outcome,0,undefined,0,0,132,349601,585601
22,20,female,Belg,1,9,guess,loss,5,left,1,guess_start,1167,space,0,0,132,348431,586771
22,20,female,Belg,1,9,guess,loss,5,left,1,guess_choice,2723,j,0,0,132,345702,589500
22,20,female,Belg,1,9,guess,loss,5,left,1,guess_outcome,0,undefined,0,0,117,344142,591060
22,20,female,Belg,1,9,ITC,loss,5,left,1,ITC_start,895,space,0,0,117,343245,591957
22,20,female,Belg,1,9,ITC,loss,5,left,1,ITC_choice,1762,f,0,0,117,341480,593722
22,20,female,Belg,1,9,ITC,loss,5,left,1,ITC_wait,0,undefined,0,0,117,336477,598725
22,20,female,Belg,1,9,ITC,loss,5,left,1,ITC_collect,757,k,0,0,117,335717,599485
22,20,female,Belg,1,9,ITC,loss,5,left,1,ITC_outcome,0,undefined,0,0,137,334708,600494
22,20,female,Belg,1,10,guess,win,5,right,10,guess_start,802,space,0,0,137,333903,601299
22,20,female,Belg,1,10,guess,win,5,right,10,guess_choice,1447,f,0,0,137,332451,602751
22,20,female,Belg,1,10,guess,win,5,right,10,guess_outcome,0,undefined,0,0,157,330890,604312
22,20,female,Belg,1,10,ITC,win,5,right,10,ITC_start,566,space,0,0,157,330323,604879
22,20,female,Belg,1,10,ITC,win,5,right,10,ITC_choice,1928,f,0,0,157,328392,606810
22,20,female,Belg,1,10,ITC,win,5,right,10,ITC_collect,753,k,0,0,157,327635,607567
22,20,female,Belg,1,10,ITC,win,5,right,10,ITC_outcome,0,undefined,0,0,167,326630,608572
22,20,female,Belg,1,11,guess,win,5,right,12,guess_start,1140,space,0,0,167,325487,609715
22,20,female,Belg,1,10,ITC,win,5,right,10,ITC_wait,0,undefined,0,0,157,328389,606813
22,20,female,Belg,1,11,guess,win,5,right,12,guess_choice,926,j,0,0,167,324555,610647
22,20,female,Belg,1,11,guess,win,5,right,12,guess_outcome,0,undefined,0,0,187,322997,612205
22,20,female,Belg,1,11,ITC,win,5,right,12,ITC_start,1321,space,0,0,187,321672,613530
22,20,female,Belg,1,11,ITC,win,5,right,12,ITC_wait,0,undefined,0,0,187,320535,614667
22,20,female,Belg,1,11,ITC,win,5,right,12,ITC_choice,1131,f,0,0,187,320539,614663
22,20,female,Belg,1,11,ITC,win,5,right,12,ITC_collect,990,k,0,0,187,319545,615657
22,20,female,Belg,1,11,ITC,win,5,right,12,ITC_outcome,0,undefined,0,0,199,318535,616667
22,20,female,Belg,1,12,guess,neutral,5,right,7,guess_start,661,space,0,0,199,317871,617331
22,20,female,Belg,1,12,guess,neutral,5,right,7,guess_choice,770,j,0,0,199,317096,618106
22,20,female,Belg,1,12,guess,neutral,5,right,7,guess_outcome,0,undefined,0,0,199,315538,619664
22,20,female,Belg,1,12,ITC,neutral,5,right,7,ITC_start,379,space,0,0,199,315156,620046
22,20,female,Belg,1,12,ITC,neutral,5,right,7,ITC_choice,2491,j,0,0,199,312663,622539
22,20,female,Belg,1,12,ITC,neutral,5,right,7,ITC_wait,0,undefined,0,0,199,307655,627547
22,20,female,Belg,1,12,ITC,neutral,5,right,7,ITC_collect,684,k,0,0,199,306970,628232
22,20,female,Belg,1,12,ITC,neutral,5,right,7,ITC_outcome,0,undefined,0,0,219,305961,629241
22,20,female,Belg,1,13,guess,neutral,10,left,7,guess_start,661,space,0,0,219,305297,629905
22,20,female,Belg,1,13,guess,neutral,10,left,7,guess_choice,771,f,0,0,219,304520,630682
22,20,female,Belg,1,13,guess,neutral,10,left,7,guess_outcome,0,undefined,0,0,219,302961,632241
22,20,female,Belg,1,13,ITC,neutral,10,left,7,ITC_start,378,space,0,0,219,302580,632622
22,20,female,Belg,1,13,ITC,neutral,10,left,7,ITC_choice,1819,j,0,0,219,300758,634444
22,20,female,Belg,1,13,ITC,neutral,10,left,7,ITC_wait,0,undefined,0,0,219,300755,634447
22,20,female,Belg,1,13,ITC,neutral,10,left,7,ITC_collect,778,k,0,0,219,299976,635226
22,20,female,Belg,1,13,ITC,neutral,10,left,7,ITC_outcome,0,undefined,0,0,226,298967,636235
22,20,female,Belg,1,14,guess,neutral,5,right,16,guess_start,675,space,0,0,226,298290,636912
22,20,female,Belg,1,14,guess,neutral,5,right,16,guess_choice,547,j,0,0,226,297737,637465
22,20,female,Belg,1,14,guess,neutral,5,right,16,guess_outcome,0,undefined,0,0,226,296181,639021
22,20,female,Belg,1,14,ITC,neutral,5,right,16,ITC_start,2320,space,0,0,226,293859,641343
22,20,female,Belg,1,14,ITC,neutral,5,right,16,ITC_choice,1483,j,0,0,226,292374,642828
22,20,female,Belg,1,14,ITC,neutral,5,right,16,ITC_wait,0,undefined,0,0,226,287366,647836
22,20,female,Belg,1,14,ITC,neutral,5,right,16,ITC_collect,978,k,0,0,226,286385,648817
22,20,female,Belg,1,14,ITC,neutral,5,right,16,ITC_outcome,0,undefined,0,0,246,285377,649825
22,20,female,Belg,1,15,guess,win,5,right,13,guess_start,1476,space,0,0,246,283897,651305
22,20,female,Belg,1,15,guess,win,5,right,13,guess_choice,1254,j,0,0,246,282637,652565
22,20,female,Belg,1,15,guess,win,5,right,13,guess_outcome,0,undefined,0,0,266,281077,654125
22,20,female,Belg,1,15,ITC,win,5,right,13,ITC_start,1088,space,0,0,266,279987,655215
22,20,female,Belg,1,15,ITC,win,5,right,13,ITC_choice,1736,f,0,0,266,278247,656955
22,20,female,Belg,1,15,ITC,win,5,right,13,ITC_wait,0,undefined,0,0,266,278245,656957
22,20,female,Belg,1,15,ITC,win,5,right,13,ITC_collect,734,k,0,0,266,277509,657693
22,20,female,Belg,1,15,ITC,win,5,right,13,ITC_outcome,0,undefined,0,0,279,276500,658702
22,20,female,Belg,1,16,guess,loss,10,left,3,guess_start,903,space,0,0,279,275595,659607
22,20,female,Belg,1,16,guess,loss,10,left,3,guess_choice,1115,j,0,0,279,274474,660728
22,20,female,Belg,1,16,guess,loss,10,left,3,guess_outcome,0,undefined,0,0,264,272914,662288
22,20,female,Belg,1,16,ITC,loss,10,left,3,ITC_start,780,space,0,0,264,272131,663071
22,20,female,Belg,1,16,ITC,loss,10,left,3,ITC_choice,2106,j,0,0,264,270022,665180
22,20,female,Belg,1,16,ITC,loss,10,left,3,ITC_wait,0,undefined,0,0,264,270020,665182
22,20,female,Belg,1,16,ITC,loss,10,left,3,ITC_collect,1314,k,0,0,264,268705,666497
22,20,female,Belg,1,16,ITC,loss,10,left,3,ITC_outcome,0,undefined,0,0,267,267696,667506
22,20,female,Belg,1,17,guess,neutral,5,left,14,guess_start,813,space,0,0,267,266880,668322
22,20,female,Belg,1,17,guess,neutral,5,left,14,guess_choice,803,f,0,0,267,266072,669130
22,20,female,Belg,1,17,guess,neutral,5,left,14,guess_outcome,0,undefined,0,0,267,264513,670689
22,20,female,Belg,1,17,ITC,neutral,5,left,14,ITC_start,320,space,0,0,267,264191,671011
22,20,female,Belg,1,17,ITC,neutral,5,left,14,ITC_choice,1617,j,0,0,267,262571,672631
22,20,female,Belg,1,17,ITC,neutral,5,left,14,ITC_wait,0,undefined,0,0,267,262568,672634
22,20,female,Belg,1,17,ITC,neutral,5,left,14,ITC_collect,965,k,0,0,267,261602,673600
22,20,female,Belg,1,17,ITC,neutral,5,left,14,ITC_outcome,0,undefined,0,0,281,260593,674609
22,20,female,Belg,1,18,guess,loss,10,left,2,guess_start,689,space,0,0,281,259902,675300
22,20,female,Belg,1,18,guess,loss,10,left,2,guess_choice,861,j,0,0,281,259035,676167
22,20,female,Belg,1,18,guess,loss,10,left,2,guess_outcome,0,undefined,0,0,266,257475,677727
22,20,female,Belg,1,18,ITC,loss,10,left,2,ITC_start,291,space,0,0,266,257179,678023
22,20,female,Belg,1,18,ITC,loss,10,left,2,ITC_choice,1583,j,0,0,266,255596,679606
22,20,female,Belg,1,18,ITC,loss,10,left,2,ITC_wait,0,undefined,0,0,266,255592,679610
22,20,female,Belg,1,18,ITC,loss,10,left,2,ITC_collect,1025,k,0,0,266,254565,680637
22,20,female,Belg,1,18,ITC,loss,10,left,2,ITC_outcome,0,undefined,0,0,268,253556,681646
22,20,female,Belg,1,19,guess,win,5,left,16,guess_start,771,space,0,0,268,252781,682421
22,20,female,Belg,1,19,guess,win,5,left,16,guess_choice,1150,j,0,0,268,251626,683576
22,20,female,Belg,1,19,guess,win,5,left,16,guess_outcome,0,undefined,0,0,288,250066,685136
22,20,female,Belg,1,19,ITC,win,5,left,16,ITC_start,899,space,0,0,288,249164,686038
22,20,female,Belg,1,19,ITC,win,5,left,16,ITC_wait,0,undefined,0,0,288,248027,687175
22,20,female,Belg,1,19,ITC,win,5,left,16,ITC_choice,1132,j,0,0,288,248030,687172
22,20,female,Belg,1,19,ITC,win,5,left,16,ITC_collect,1119,k,0,0,288,246906,688296
22,20,female,Belg,1,19,ITC,win,5,left,16,ITC_outcome,0,undefined,0,0,304,245897,689305
22,20,female,Belg,1,20,guess,win,10,right,4,guess_start,667,space,0,0,304,245226,689976
22,20,female,Belg,1,20,guess,win,10,right,4,guess_choice,1256,j,0,0,304,243965,691237
22,20,female,Belg,1,20,guess,win,10,right,4,guess_outcome,0,undefined,0,0,324,242407,692795
22,20,female,Belg,1,20,ITC,win,10,right,4,ITC_start,1077,space,0,0,324,241327,693875
22,20,female,Belg,1,20,ITC,win,10,right,4,ITC_choice,1932,f,0,0,324,239392,695810
22,20,female,Belg,1,20,ITC,win,10,right,4,ITC_wait,0,undefined,0,0,324,239388,695814
22,20,female,Belg,1,20,ITC,win,10,right,4,ITC_collect,905,k,0,0,324,238482,696720
22,20,female,Belg,1,20,ITC,win,10,right,4,ITC_outcome,0,undefined,0,0,328,237473,697729
22,20,female,Belg,1,21,guess,win,5,left,8,guess_start,653,space,0,0,328,236816,698386
22,20,female,Belg,1,21,guess,win,5,left,8,guess_choice,1255,f,0,0,328,235558,699644
22,20,female,Belg,1,21,guess,win,5,left,8,guess_outcome,0,undefined,0,0,348,233998,701204
22,20,female,Belg,1,21,ITC,win,5,left,8,ITC_start,1260,space,0,0,348,232735,702467
22,20,female,Belg,1,21,ITC,win,5,left,8,ITC_choice,1562,f,0,0,348,231170,704032
22,20,female,Belg,1,21,ITC,win,5,left,8,ITC_wait,0,undefined,0,0,348,226164,709038
22,20,female,Belg,1,21,ITC,win,5,left,8,ITC_collect,1024,k,0,0,348,225137,710065
22,20,female,Belg,1,21,ITC,win,5,left,8,ITC_outcome,0,undefined,0,0,368,224128,711074
22,20,female,Belg,1,22,guess,neutral,5,right,15,guess_start,877,space,0,0,368,223248,711954
22,20,female,Belg,1,22,guess,neutral,5,right,15,guess_choice,692,f,0,0,368,222550,712652
22,20,female,Belg,1,22,guess,neutral,5,right,15,guess_outcome,0,undefined,0,0,368,220990,714212
22,20,female,Belg,1,22,ITC,neutral,5,right,15,ITC_start,599,space,0,0,368,220388,714814
22,20,female,Belg,1,22,ITC,neutral,5,right,15,ITC_choice,1780,f,0,0,368,218606,716596
22,20,female,Belg,1,22,ITC,neutral,5,right,15,ITC_wait,0,undefined,0,0,368,218602,716600
22,20,female,Belg,1,22,ITC,neutral,5,right,15,ITC_collect,721,k,0,0,368,217880,717322
22,20,female,Belg,1,22,ITC,neutral,5,right,15,ITC_outcome,0,undefined,0,0,383,216870,718332
22,20,female,Belg,1,23,guess,loss,5,left,13,guess_start,671,space,0,0,383,216196,719006
22,20,female,Belg,1,23,guess,loss,5,left,13,guess_choice,692,j,0,0,383,215500,719702
22,20,female,Belg,1,23,guess,loss,5,left,13,guess_outcome,0,undefined,0,0,368,213940,721262
22,20,female,Belg,1,23,ITC,loss,5,left,13,ITC_start,715,space,0,0,368,213223,721979
22,20,female,Belg,1,23,ITC,loss,5,left,13,ITC_choice,1620,j,0,0,368,211601,723601
22,20,female,Belg,1,23,ITC,loss,5,left,13,ITC_wait,0,undefined,0,0,368,211597,723605
22,20,female,Belg,1,23,ITC,loss,5,left,13,ITC_collect,1115,k,0,0,368,210481,724721
22,20,female,Belg,1,23,ITC,loss,5,left,13,ITC_outcome,0,undefined,0,0,381,209473,725729
22,20,female,Belg,1,24,guess,neutral,10,left,1,guess_start,593,space,0,0,381,208876,726326
22,20,female,Belg,1,24,guess,neutral,10,left,1,guess_choice,741,j,0,0,381,208130,727072
22,20,female,Belg,1,24,guess,neutral,10,left,1,guess_outcome,0,undefined,0,0,381,206570,728632
22,20,female,Belg,1,24,ITC,neutral,10,left,1,ITC_start,519,space,0,0,381,206048,729154
22,20,female,Belg,1,24,ITC,neutral,10,left,1,ITC_choice,1746,j,0,0,381,204300,730902
22,20,female,Belg,1,24,ITC,neutral,10,left,1,ITC_wait,0,undefined,0,0,381,204297,730905
22,20,female,Belg,1,24,ITC,neutral,10,left,1,ITC_collect,716,k,0,0,381,203578,731624
22,20,female,Belg,1,24,ITC,neutral,10,left,1,ITC_outcome,0,undefined,0,0,382,202571,732631
22,20,female,Belg,1,25,guess,win,10,left,5,guess_start,703,space,0,0,382,201866,733336
22,20,female,Belg,1,25,guess,win,10,left,5,guess_choice,952,f,0,0,382,200909,734293
22,20,female,Belg,1,25,guess,win,10,left,5,guess_outcome,0,undefined,0,0,402,199349,735853
22,20,female,Belg,1,25,ITC,win,10,left,5,ITC_start,1484,space,0,0,402,197862,737340
22,20,female,Belg,1,25,ITC,win,10,left,5,ITC_choice,1457,f,0,0,402,196403,738799
22,20,female,Belg,1,25,ITC,win,10,left,5,ITC_wait,0,undefined,0,0,402,186397,748805
22,20,female,Belg,1,25,ITC,win,10,left,5,ITC_collect,819,k,0,0,402,185575,749627
22,20,female,Belg,1,25,ITC,win,10,left,5,ITC_outcome,0,undefined,0,0,422,184565,750637
22,20,female,Belg,1,26,guess,neutral,5,right,5,guess_start,650,space,0,0,422,183913,751289
22,20,female,Belg,1,26,guess,neutral,5,right,5,guess_choice,582,f,0,0,422,183325,751877
22,20,female,Belg,1,26,guess,neutral,5,right,5,guess_outcome,0,undefined,0,0,422,181765,753437
22,20,female,Belg,1,26,ITC,neutral,5,right,5,ITC_start,673,space,0,0,422,181089,754113
22,20,female,Belg,1,26,ITC,neutral,5,right,5,ITC_choice,1828,j,0,0,422,179259,755943
22,20,female,Belg,1,26,ITC,neutral,5,right,5,ITC_wait,0,undefined,0,0,422,174251,760951
22,20,female,Belg,1,26,ITC,neutral,5,right,5,ITC_collect,503,k,0,0,422,173745,761457
22,20,female,Belg,1,26,ITC,neutral,5,right,5,ITC_outcome,0,undefined,0,0,442,172735,762467
22,20,female,Belg,1,27,guess,win,5,right,11,guess_start,846,space,0,0,442,171887,763315
22,20,female,Belg,1,27,guess,win,5,right,11,guess_choice,1022,j,0,0,442,170860,764342
22,20,female,Belg,1,27,guess,win,5,right,11,guess_outcome,0,undefined,0,0,462,169301,765901
22,20,female,Belg,1,27,ITC,win,5,right,11,ITC_start,373,space,0,0,462,168926,766276
22,20,female,Belg,1,27,ITC,win,5,right,11,ITC_choice,1043,j,0,0,462,167880,767322
22,20,female,Belg,1,27,ITC,win,5,right,11,ITC_wait,0,undefined,0,0,462,162878,772324
22,20,female,Belg,1,27,ITC,win,5,right,11,ITC_collect,309,k,0,0,462,162566,772636
22,20,female,Belg,1,27,ITC,win,5,right,11,ITC_outcome,0,undefined,0,0,482,161556,773646
22,20,female,Belg,1,28,guess,loss,5,left,9,guess_start,847,space,0,0,482,160706,774496
22,20,female,Belg,1,28,guess,loss,5,left,9,guess_choice,1281,j,0,0,482,159420,775782
22,20,female,Belg,1,28,guess,loss,5,left,9,guess_outcome,0,undefined,0,0,467,157862,777340
22,20,female,Belg,1,28,ITC,loss,5,left,9,ITC_start,33,space,0,0,467,157825,777377
22,20,female,Belg,1,28,ITC,loss,5,left,9,ITC_choice,1924,j,0,0,467,155898,779304
22,20,female,Belg,1,28,ITC,loss,5,left,9,ITC_wait,0,undefined,0,0,467,155894,779308
22,20,female,Belg,1,28,ITC,loss,5,left,9,ITC_collect,1124,k,0,0,467,154771,780431
22,20,female,Belg,1,28,ITC,loss,5,left,9,ITC_outcome,0,undefined,0,0,476,153766,781436
22,20,female,Belg,1,29,guess,neutral,5,left,2,guess_start,630,space,0,0,476,153133,782069
22,20,female,Belg,1,29,guess,neutral,5,left,2,guess_choice,632,j,0,0,476,152495,782707
22,20,female,Belg,1,29,guess,neutral,5,left,2,guess_outcome,0,undefined,0,0,476,150934,784268
22,20,female,Belg,1,29,ITC,neutral,5,left,2,ITC_start,385,space,0,0,476,150547,784655
22,20,female,Belg,1,29,ITC,neutral,5,left,2,ITC_choice,1332,f,0,0,476,149213,785989
22,20,female,Belg,1,29,ITC,neutral,5,left,2,ITC_wait,0,undefined,0,0,476,144205,790997
22,20,female,Belg,1,29,ITC,neutral,5,left,2,ITC_collect,259,k,0,0,476,143945,791257
22,20,female,Belg,1,29,ITC,neutral,5,left,2,ITC_outcome,0,undefined,0,0,496,142937,792265
22,20,female,Belg,1,30,guess,neutral,10,left,4,guess_start,756,space,0,0,496,142177,793025
22,20,female,Belg,1,30,guess,neutral,10,left,4,guess_choice,631,f,0,0,496,141543,793659
22,20,female,Belg,1,30,guess,neutral,10,left,4,guess_outcome,0,undefined,0,0,496,139982,795220
22,20,female,Belg,1,30,ITC,neutral,10,left,4,ITC_start,486,space,0,0,496,139494,795708
22,20,female,Belg,1,30,ITC,neutral,10,left,4,ITC_choice,1377,j,0,0,496,138115,797087
22,20,female,Belg,1,30,ITC,neutral,10,left,4,ITC_wait,0,undefined,0,0,496,138112,797090
22,20,female,Belg,1,30,ITC,neutral,10,left,4,ITC_collect,628,k,0,0,496,137483,797719
22,20,female,Belg,1,30,ITC,neutral,10,left,4,ITC_outcome,0,undefined,0,0,500,136473,798729
22,20,female,Belg,1,31,guess,loss,5,left,8,guess_start,866,space,0,0,500,135605,799597
22,20,female,Belg,1,31,guess,loss,5,left,8,guess_choice,1111,j,0,0,500,134488,800714
22,20,female,Belg,1,31,guess,loss,5,left,8,guess_outcome,0,undefined,0,0,485,132932,802270
22,20,female,Belg,1,31,ITC,loss,5,left,8,ITC_start,620,space,0,0,485,132310,802892
22,20,female,Belg,1,31,ITC,loss,5,left,8,ITC_choice,1248,f,0,0,485,131059,804143
22,20,female,Belg,1,31,ITC,loss,5,left,8,ITC_wait,0,undefined,0,0,485,126056,809146
22,20,female,Belg,1,31,ITC,loss,5,left,8,ITC_collect,287,k,0,0,485,125766,809436
22,20,female,Belg,1,31,ITC,loss,5,left,8,ITC_outcome,0,undefined,0,0,505,124755,810447
22,20,female,Belg,1,32,guess,win,5,left,2,guess_start,580,space,0,0,505,124174,811028
22,20,female,Belg,1,32,guess,win,5,left,2,guess_choice,1080,j,0,0,505,123089,812113
22,20,female,Belg,1,32,guess,win,5,left,2,guess_outcome,0,undefined,0,0,525,121529,813673
22,20,female,Belg,1,32,ITC,win,5,left,2,ITC_start,597,space,0,0,525,120931,814271
22,20,female,Belg,1,32,ITC,win,5,left,2,ITC_choice,1838,f,0,0,525,119090,816112
22,20,female,Belg,1,32,ITC,win,5,left,2,ITC_wait,0,undefined,0,0,525,114087,821115
22,20,female,Belg,1,32,ITC,win,5,left,2,ITC_collect,940,k,0,0,525,113145,822057
22,20,female,Belg,1,32,ITC,win,5,left,2,ITC_outcome,0,undefined,0,0,545,112136,823066
22,20,female,Belg,1,33,guess,loss,10,right,5,guess_start,530,space,0,0,545,111602,823600
22,20,female,Belg,1,33,guess,loss,10,right,5,guess_choice,893,f,0,0,545,110704,824498
22,20,female,Belg,1,33,guess,loss,10,right,5,guess_outcome,0,undefined,0,0,530,109144,826058
22,20,female,Belg,1,33,ITC,loss,10,right,5,ITC_start,1033,space,0,0,530,108107,827095
22,20,female,Belg,1,33,ITC,loss,10,right,5,ITC_choice,1215,f,0,0,530,106889,828313
22,20,female,Belg,1,33,ITC,loss,10,right,5,ITC_wait,0,undefined,0,0,530,106886,828316
22,20,female,Belg,1,33,ITC,loss,10,right,5,ITC_collect,795,k,0,0,530,106089,829113
22,20,female,Belg,1,33,ITC,loss,10,right,5,ITC_outcome,0,undefined,0,0,535,105080,830122
22,20,female,Belg,1,34,guess,loss,5,left,12,guess_start,659,space,0,0,535,104418,830784
22,20,female,Belg,1,34,guess,loss,5,left,12,guess_choice,1180,f,0,0,535,103232,831970
22,20,female,Belg,1,34,guess,loss,5,left,12,guess_outcome,0,undefined,0,0,520,101675,833527
22,20,female,Belg,1,34,ITC,loss,5,left,12,ITC_start,721,space,0,0,520,100951,834251
22,20,female,Belg,1,34,ITC,loss,5,left,12,ITC_choice,1700,f,0,0,520,99249,835953
22,20,female,Belg,1,34,ITC,loss,5,left,12,ITC_wait,0,undefined,0,0,520,94242,840960
22,20,female,Belg,1,34,ITC,loss,5,left,12,ITC_collect,1173,k,0,0,520,93066,842136
22,20,female,Belg,1,34,ITC,loss,5,left,12,ITC_outcome,0,undefined,0,0,540,92057,843145
22,20,female,Belg,1,35,guess,neutral,5,right,10,guess_start,2353,space,0,0,540,89701,845501
22,20,female,Belg,1,35,guess,neutral,5,right,10,guess_choice,814,f,0,0,540,88881,846321
22,20,female,Belg,1,35,guess,neutral,5,right,10,guess_outcome,0,undefined,0,0,540,87321,847881
22,20,female,Belg,1,35,ITC,neutral,5,right,10,ITC_start,3475,space,0,0,540,83845,851357
22,20,female,Belg,1,35,ITC,neutral,5,right,10,ITC_choice,1503,j,0,0,540,82339,852863
22,20,female,Belg,1,35,ITC,neutral,5,right,10,ITC_wait,0,undefined,0,0,540,77332,857870
22,20,female,Belg,1,35,ITC,neutral,5,right,10,ITC_collect,1192,k,0,0,540,76138,859064
22,20,female,Belg,1,35,ITC,neutral,5,right,10,ITC_outcome,0,undefined,0,0,560,75127,860075
22,20,female,Belg,1,36,guess,win,10,right,1,guess_start,1279,space,0,0,560,73844,861358
22,20,female,Belg,1,36,guess,win,10,right,1,guess_choice,741,f,0,0,560,73098,862104
22,20,female,Belg,1,36,guess,win,10,right,1,guess_outcome,0,undefined,0,0,580,71539,863663
22,20,female,Belg,1,36,ITC,win,10,right,1,ITC_start,652,space,0,0,580,70884,864318
22,20,female,Belg,1,36,ITC,win,10,right,1,ITC_choice,1303,j,0,0,580,69578,865624
22,20,female,Belg,1,36,ITC,win,10,right,1,ITC_wait,0,undefined,0,0,580,59571,875631
22,20,female,Belg,1,36,ITC,win,10,right,1,ITC_collect,639,k,0,0,580,58930,876272
22,20,female,Belg,1,36,ITC,win,10,right,1,ITC_outcome,0,undefined,0,0,600,57920,877282
22,20,female,Belg,1,37,guess,win,10,right,3,guess_start,546,space,0,0,600,57371,877831
22,20,female,Belg,1,37,guess,win,10,right,3,guess_choice,726,f,0,0,600,56640,878562
22,20,female,Belg,1,37,guess,win,10,right,3,guess_outcome,0,undefined,0,0,620,55082,880120
22,20,female,Belg,1,37,ITC,win,10,right,3,ITC_start,1239,space,0,0,620,53841,881361
22,20,female,Belg,1,37,ITC,win,10,right,3,ITC_choice,1289,j,0,0,620,52551,882651
22,20,female,Belg,1,37,ITC,win,10,right,3,ITC_wait,0,undefined,0,0,620,42543,892659
22,20,female,Belg,1,37,ITC,win,10,right,3,ITC_collect,418,k,0,0,620,42123,893079
22,20,female,Belg,1,37,ITC,win,10,right,3,ITC_outcome,0,undefined,0,0,640,41112,894090
22,20,female,Belg,1,38,guess,loss,5,left,16,guess_start,166,space,0,0,640,40944,894258
22,20,female,Belg,1,38,guess,loss,5,left,16,guess_choice,793,f,0,0,640,40145,895057
22,20,female,Belg,1,38,guess,loss,5,left,16,guess_outcome,0,undefined,0,0,625,38585,896617
22,20,female,Belg,1,38,ITC,loss,5,left,16,ITC_start,465,space,0,0,625,38117,897085
22,20,female,Belg,1,38,ITC,loss,5,left,16,ITC_choice,1980,j,0,0,625,36134,899068
22,20,female,Belg,1,38,ITC,loss,5,left,16,ITC_wait,0,undefined,0,0,625,36131,899071
22,20,female,Belg,1,38,ITC,loss,5,left,16,ITC_collect,911,k,0,0,625,35219,899983
22,20,female,Belg,1,38,ITC,loss,5,left,16,ITC_outcome,0,undefined,0,0,641,34214,900988
22,20,female,Belg,1,39,guess,win,5,left,15,guess_start,593,space,0,0,641,33619,901583
22,20,female,Belg,1,39,guess,win,5,left,15,guess_choice,687,j,0,0,641,32927,902275
22,20,female,Belg,1,39,guess,win,5,left,15,guess_outcome,0,undefined,0,0,661,31368,903834
22,20,female,Belg,1,39,ITC,win,5,left,15,ITC_start,357,space,0,0,661,31007,904195
22,20,female,Belg,1,39,ITC,win,5,left,15,ITC_wait,0,undefined,0,0,661,29853,905349
22,20,female,Belg,1,39,ITC,win,5,left,15,ITC_choice,1149,j,0,0,661,29856,905346
22,20,female,Belg,1,39,ITC,win,5,left,15,ITC_collect,678,k,0,0,661,29174,906028
22,20,female,Belg,1,39,ITC,win,5,left,15,ITC_outcome,0,undefined,0,0,676,28165,907037
22,20,female,Belg,1,40,guess,neutral,10,left,6,guess_start,511,space,0,0,676,27653,907549
22,20,female,Belg,1,40,guess,neutral,10,left,6,guess_choice,690,j,0,0,676,26957,908245
22,20,female,Belg,1,40,guess,neutral,10,left,6,guess_outcome,0,undefined,0,0,676,25398,909804
22,20,female,Belg,1,40,ITC,neutral,10,left,6,ITC_start,881,space,0,0,676,24515,910687
22,20,female,Belg,1,40,ITC,neutral,10,left,6,ITC_choice,1265,f,0,0,676,23249,911953
22,20,female,Belg,1,40,ITC,neutral,10,left,6,ITC_wait,0,undefined,0,0,676,13241,921961
22,20,female,Belg,1,40,ITC,neutral,10,left,6,ITC_collect,361,k,0,0,676,12879,922323
22,20,female,Belg,1,40,ITC,neutral,10,left,6,ITC_outcome,0,undefined,0,0,696,11868,923334
22,20,female,Belg,1,41,guess,loss,5,left,7,guess_start,486,space,0,0,696,11380,923822
22,20,female,Belg,1,41,guess,loss,5,left,7,guess_choice,737,f,0,0,696,10638,924564
22,20,female,Belg,1,41,guess,loss,5,left,7,guess_outcome,0,undefined,0,0,681,9081,926121
22,20,female,Belg,1,41,ITC,loss,5,left,7,ITC_start,1013,space,0,0,681,8065,927137
22,20,female,Belg,1,41,ITC,loss,5,left,7,ITC_choice,1686,j,0,0,681,6376,928826
22,20,female,Belg,1,41,ITC,loss,5,left,7,ITC_wait,0,undefined,0,0,681,6373,928829
22,20,female,Belg,1,41,ITC,loss,5,left,7,ITC_collect,2235,k,0,0,681,4136,931066
22,20,female,Belg,1,41,ITC,loss,5,left,7,ITC_outcome,0,undefined,0,0,688,3127,932075
22,20,female,Belg,1,42,guess,loss,5,right,15,guess_start,1341,space,0,0,688,1783,933419
22,20,female,Belg,1,42,guess,loss,5,right,15,guess_choice,866,j,0,0,688,912,934290
22,20,female,Belg,1,42,guess,loss,5,right,15,guess_outcome,0,undefined,0,0,673,-10,935212
22,20,female,Belg,2,43,guess,neutral,5,left,9,guess_start,989,space,0,0,0,479011,1138997
22,20,female,Belg,2,43,guess,neutral,5,left,9,guess_choice,808,j,0,0,0,478197,1139811
22,20,female,Belg,2,43,guess,neutral,5,left,9,guess_outcome,0,undefined,0,0,0,476639,1141369
22,20,female,Belg,2,43,ITC,neutral,5,left,9,ITC_start,483,space,0,0,0,476154,1141854
22,20,female,Belg,2,43,ITC,neutral,5,left,9,ITC_choice,1320,f,0,0,0,474832,1143176
22,20,female,Belg,2,43,ITC,neutral,5,left,9,ITC_wait,0,undefined,0,0,0,469825,1148183
22,20,female,Belg,2,43,ITC,neutral,5,left,9,ITC_collect,345,k,0,0,0,469478,1148530
22,20,female,Belg,2,43,ITC,neutral,5,left,9,ITC_outcome,0,undefined,0,0,20,468469,1149539
22,20,female,Belg,2,44,guess,neutral,5,left,3,guess_start,72,space,0,0,20,468394,1149614
22,20,female,Belg,2,44,guess,neutral,5,left,3,guess_choice,656,f,0,0,20,467733,1150275
22,20,female,Belg,2,44,guess,neutral,5,left,3,guess_outcome,0,undefined,0,0,20,466176,1151832
22,20,female,Belg,2,44,ITC,neutral,5,left,3,ITC_start,767,space,0,0,20,465407,1152601
22,20,female,Belg,2,44,ITC,neutral,5,left,3,ITC_choice,1159,f,0,0,20,464245,1153763
22,20,female,Belg,2,44,ITC,neutral,5,left,3,ITC_wait,0,undefined,0,0,20,459238,1158770
22,20,female,Belg,2,44,ITC,neutral,5,left,3,ITC_collect,1110,k,0,0,20,458125,1159883
22,20,female,Belg,2,44,ITC,neutral,5,left,3,ITC_outcome,0,undefined,0,0,40,457120,1160888
22,20,female,Belg,2,45,guess,loss,10,left,8,guess_start,412,space,0,0,40,456706,1161302
22,20,female,Belg,2,45,guess,loss,10,left,8,guess_choice,900,j,0,0,40,455799,1162209
22,20,female,Belg,2,45,guess,loss,10,left,8,guess_outcome,0,undefined,0,0,25,454240,1163768
22,20,female,Belg,2,45,ITC,loss,10,left,8,ITC_start,554,space,0,0,25,453683,1164325
22,20,female,Belg,2,45,ITC,loss,10,left,8,ITC_choice,1216,j,0,0,25,452465,1165543
22,20,female,Belg,2,45,ITC,loss,10,left,8,ITC_wait,0,undefined,0,0,25,452461,1165547
22,20,female,Belg,2,45,ITC,loss,10,left,8,ITC_collect,946,k,0,0,25,451515,1166493
22,20,female,Belg,2,45,ITC,loss,10,left,8,ITC_outcome,0,undefined,0,0,33,450506,1167502
22,20,female,Belg,2,46,guess,win,10,left,7,guess_start,451,space,0,0,33,450053,1167955
22,20,female,Belg,2,46,guess,win,10,left,7,guess_choice,1226,f,0,0,33,448823,1169185
22,20,female,Belg,2,46,guess,win,10,left,7,guess_outcome,0,undefined,0,0,53,447263,1170745
22,20,female,Belg,2,46,ITC,win,10,left,7,ITC_start,357,space,0,0,53,446905,1171103
22,20,female,Belg,2,46,ITC,win,10,left,7,ITC_choice,1310,j,0,0,53,445593,1172415
22,20,female,Belg,2,46,ITC,win,10,left,7,ITC_wait,0,undefined,0,0,53,445590,1172418
22,20,female,Belg,2,46,ITC,win,10,left,7,ITC_collect,734,k,0,0,53,444854,1173154
22,20,female,Belg,2,46,ITC,win,10,left,7,ITC_outcome,0,undefined,0,0,60,443845,1174163
22,20,female,Belg,2,47,guess,loss,5,right,10,guess_start,503,space,0,0,60,443340,1174668
22,20,female,Belg,2,47,guess,loss,5,right,10,guess_choice,813,j,0,0,60,442520,1175488
22,20,female,Belg,2,47,guess,loss,5,right,10,guess_outcome,0,undefined,0,0,45,440960,1177048
22,20,female,Belg,2,47,ITC,loss,5,right,10,ITC_start,427,space,0,0,45,440531,1177477
22,20,female,Belg,2,47,ITC,loss,5,right,10,ITC_choice,2261,f,0,0,45,438268,1179740
22,20,female,Belg,2,47,ITC,loss,5,right,10,ITC_wait,0,undefined,0,0,45,438264,1179744
22,20,female,Belg,2,47,ITC,loss,5,right,10,ITC_collect,629,k,0,0,45,437635,1180373
22,20,female,Belg,2,47,ITC,loss,5,right,10,ITC_outcome,0,undefined,0,0,55,436625,1181383
22,20,female,Belg,2,48,guess,win,5,right,4,guess_start,533,space,0,0,55,436089,1181919
22,20,female,Belg,2,48,guess,win,5,right,4,guess_choice,689,j,0,0,55,435395,1182613
22,20,female,Belg,2,48,guess,win,5,right,4,guess_outcome,0,undefined,0,0,75,433839,1184169
22,20,female,Belg,2,48,ITC,win,5,right,4,ITC_start,596,space,0,0,75,433240,1184768
22,20,female,Belg,2,48,ITC,win,5,right,4,ITC_choice,1247,j,0,0,75,431993,1186015
22,20,female,Belg,2,48,ITC,win,5,right,4,ITC_wait,0,undefined,0,0,75,426985,1191023
22,20,female,Belg,2,48,ITC,win,5,right,4,ITC_collect,686,k,0,0,75,426299,1191709
22,20,female,Belg,2,48,ITC,win,5,right,4,ITC_outcome,0,undefined,0,0,95,425291,1192717
22,20,female,Belg,2,49,guess,loss,5,right,2,guess_start,640,space,0,0,95,424649,1193359
22,20,female,Belg,2,49,guess,loss,5,right,2,guess_choice,793,f,0,0,95,423851,1194157
22,20,female,Belg,2,49,guess,loss,5,right,2,guess_outcome,0,undefined,0,0,80,422294,1195714
22,20,female,Belg,2,49,ITC,loss,5,right,2,ITC_start,507,space,0,0,80,421784,1196224
22,20,female,Belg,2,49,ITC,loss,5,right,2,ITC_choice,1110,j,0,0,80,420672,1197336
22,20,female,Belg,2,49,ITC,loss,5,right,2,ITC_wait,0,undefined,0,0,80,415665,1202343
22,20,female,Belg,2,49,ITC,loss,5,right,2,ITC_collect,459,k,0,0,80,415204,1202804
22,20,female,Belg,2,49,ITC,loss,5,right,2,ITC_outcome,0,undefined,0,0,100,414198,1203810
22,20,female,Belg,2,50,guess,neutral,5,right,12,guess_start,307,space,0,0,100,413889,1204119
22,20,female,Belg,2,50,guess,neutral,5,right,12,guess_choice,604,j,0,0,100,413280,1204728
22,20,female,Belg,2,50,guess,neutral,5,right,12,guess_outcome,0,undefined,0,0,100,411722,1206286
22,20,female,Belg,2,50,ITC,neutral,5,right,12,ITC_start,358,space,0,0,100,411362,1206646
22,20,female,Belg,2,50,ITC,neutral,5,right,12,ITC_choice,1240,f,0,0,100,410118,1207890
22,20,female,Belg,2,50,ITC,neutral,5,right,12,ITC_wait,0,undefined,0,0,100,410116,1207892
22,20,female,Belg,2,50,ITC,neutral,5,right,12,ITC_collect,494,k,0,0,100,409620,1208388
22,20,female,Belg,2,50,ITC,neutral,5,right,12,ITC_outcome,0,undefined,0,0,112,408610,1209398
22,20,female,Belg,2,51,guess,neutral,5,right,6,guess_start,732,space,0,0,112,407874,1210134
22,20,female,Belg,2,51,guess,neutral,5,right,6,guess_choice,690,f,0,0,112,407179,1210829
22,20,female,Belg,2,51,guess,neutral,5,right,6,guess_outcome,0,undefined,0,0,112,405621,1212387
22,20,female,Belg,2,51,ITC,neutral,5,right,6,ITC_start,580,space,0,0,112,405039,1212969
22,20,female,Belg,2,51,ITC,neutral,5,right,6,ITC_choice,1103,j,0,0,112,403933,1214075
22,20,female,Belg,2,51,ITC,neutral,5,right,6,ITC_wait,0,undefined,0,0,112,398926,1219082
22,20,female,Belg,2,51,ITC,neutral,5,right,6,ITC_collect,490,k,0,0,112,398433,1219575
22,20,female,Belg,2,51,ITC,neutral,5,right,6,ITC_outcome,0,undefined,0,0,132,397426,1220582
22,20,female,Belg,2,52,guess,loss,10,left,6,guess_start,177,space,0,0,132,397247,1220761
22,20,female,Belg,2,52,guess,loss,10,left,6,guess_choice,931,f,0,0,132,396310,1221698
22,20,female,Belg,2,52,guess,loss,10,left,6,guess_outcome,0,undefined,0,0,117,394756,1223252
22,20,female,Belg,2,52,ITC,loss,10,left,6,ITC_start,543,space,0,0,117,394209,1223799
22,20,female,Belg,2,52,ITC,loss,10,left,6,ITC_choice,1417,j,0,0,117,392790,1225218
22,20,female,Belg,2,52,ITC,loss,10,left,6,ITC_collect,613,k,0,0,117,392173,1225835
22,20,female,Belg,2,52,ITC,loss,10,left,6,ITC_outcome,0,undefined,0,0,123,391163,1226845
22,20,female,Belg,2,52,ITC,loss,10,left,6,ITC_wait,0,undefined,0,0,117,392787,1225221
22,20,female,Belg,2,53,guess,loss,10,right,7,guess_start,559,space,0,0,123,390601,1227407
22,20,female,Belg,2,53,guess,loss,10,right,7,guess_choice,1240,f,0,0,123,389355,1228653
22,20,female,Belg,2,53,guess,loss,10,right,7,guess_outcome,0,undefined,0,0,108,387795,1230213
22,20,female,Belg,2,53,ITC,loss,10,right,7,ITC_start,493,space,0,0,108,387301,1230707
22,20,female,Belg,2,53,ITC,loss,10,right,7,ITC_choice,1447,f,0,0,108,385851,1232157
22,20,female,Belg,2,53,ITC,loss,10,right,7,ITC_wait,0,undefined,0,0,108,385848,1232160
22,20,female,Belg,2,53,ITC,loss,10,right,7,ITC_collect,390,k,0,0,108,385456,1232552
22,20,female,Belg,2,53,ITC,loss,10,right,7,ITC_outcome,0,undefined,0,0,115,384450,1233558
22,20,female,Belg,2,54,guess,loss,10,right,1,guess_start,404,space,0,0,115,384044,1233964
22,20,female,Belg,2,54,guess,loss,10,right,1,guess_choice,576,j,0,0,115,383462,1234546
22,20,female,Belg,2,54,guess,loss,10,right,1,guess_outcome,0,undefined,0,0,100,381902,1236106
22,20,female,Belg,2,54,ITC,loss,10,right,1,ITC_start,60,space,0,0,100,381839,1236169
22,20,female,Belg,2,54,ITC,loss,10,right,1,ITC_choice,2701,f,0,0,100,379135,1238873
22,20,female,Belg,2,54,ITC,loss,10,right,1,ITC_wait,0,undefined,0,0,100,379132,1238876
22,20,female,Belg,2,54,ITC,loss,10,right,1,ITC_collect,757,k,0,0,100,378374,1239634
22,20,female,Belg,2,54,ITC,loss,10,right,1,ITC_outcome,0,undefined,0,0,101,377368,1240640
22,20,female,Belg,2,55,guess,neutral,5,left,1,guess_start,360,space,0,0,101,377005,1241003
22,20,female,Belg,2,55,guess,neutral,5,left,1,guess_choice,599,f,0,0,101,376401,1241607
22,20,female,Belg,2,55,guess,neutral,5,left,1,guess_outcome,0,undefined,0,0,101,374845,1243163
22,20,female,Belg,2,55,ITC,neutral,5,left,1,ITC_start,815,space,0,0,101,374026,1243982
22,20,female,Belg,2,55,ITC,neutral,5,left,1,ITC_choice,1138,f,0,0,101,372886,1245122
22,20,female,Belg,2,55,ITC,neutral,5,left,1,ITC_wait,0,undefined,0,0,101,367879,1250129
22,20,female,Belg,2,55,ITC,neutral,5,left,1,ITC_collect,709,k,0,0,101,367168,1250840
22,20,female,Belg,2,55,ITC,neutral,5,left,1,ITC_outcome,0,undefined,0,0,121,366157,1251851
22,20,female,Belg,2,56,guess,win,5,right,6,guess_start,164,space,0,0,121,365991,1252017
22,20,female,Belg,2,56,guess,win,5,right,6,guess_choice,577,f,0,0,121,365410,1252598
22,20,female,Belg,2,56,guess,win,5,right,6,guess_outcome,0,undefined,0,0,141,363850,1254158
22,20,female,Belg,2,56,ITC,win,5,right,6,ITC_start,811,space,0,0,141,363036,1254972
22,20,female,Belg,2,56,ITC,win,5,right,6,ITC_choice,948,j,0,0,141,362086,1255922
22,20,female,Belg,2,56,ITC,win,5,right,6,ITC_wait,0,undefined,0,0,141,357079,1260929
22,20,female,Belg,2,56,ITC,win,5,right,6,ITC_collect,676,k,0,0,141,356401,1261607
22,20,female,Belg,2,56,ITC,win,5,right,6,ITC_outcome,0,undefined,0,0,161,355394,1262614
22,20,female,Belg,2,57,guess,win,10,left,6,guess_start,408,space,0,0,161,354983,1263025
22,20,female,Belg,2,57,guess,win,10,left,6,guess_choice,1474,f,0,0,161,353503,1264505
22,20,female,Belg,2,57,guess,win,10,left,6,guess_outcome,0,undefined,0,0,181,351943,1266065
22,20,female,Belg,2,57,ITC,win,10,left,6,ITC_start,499,space,0,0,181,351442,1266566
22,20,female,Belg,2,57,ITC,win,10,left,6,ITC_choice,1435,j,0,0,181,350003,1268005
22,20,female,Belg,2,57,ITC,win,10,left,6,ITC_wait,0,undefined,0,0,181,350000,1268008
22,20,female,Belg,2,57,ITC,win,10,left,6,ITC_collect,381,k,0,0,181,349617,1268391
22,20,female,Belg,2,57,ITC,win,10,left,6,ITC_outcome,0,undefined,0,0,187,348608,1269400
22,20,female,Belg,2,58,guess,win,10,right,8,guess_start,362,space,0,0,187,348244,1269764
22,20,female,Belg,2,58,guess,win,10,right,8,guess_choice,686,j,0,0,187,347554,1270454
22,20,female,Belg,2,58,guess,win,10,right,8,guess_outcome,0,undefined,0,0,207,345995,1272013
22,20,female,Belg,2,58,ITC,win,10,right,8,ITC_start,502,space,0,0,207,345490,1272518
22,20,female,Belg,2,58,ITC,win,10,right,8,ITC_choice,1338,f,0,0,207,344149,1273859
22,20,female,Belg,2,58,ITC,win,10,right,8,ITC_wait,0,undefined,0,0,207,344146,1273862
22,20,female,Belg,2,58,ITC,win,10,right,8,ITC_collect,418,k,0,0,207,343726,1274282
22,20,female,Belg,2,58,ITC,win,10,right,8,ITC_outcome,0,undefined,0,0,215,342718,1275290
22,20,female,Belg,2,59,guess,neutral,10,right,5,guess_start,593,space,0,0,215,342122,1275886
22,20,female,Belg,2,59,guess,neutral,10,right,5,guess_choice,590,f,0,0,215,341528,1276480
22,20,female,Belg,2,59,guess,neutral,10,right,5,guess_outcome,0,undefined,0,0,215,339968,1278040
22,20,female,Belg,2,59,ITC,neutral,10,right,5,ITC_start,332,space,0,0,215,339633,1278375
22,20,female,Belg,2,59,ITC,neutral,10,right,5,ITC_choice,1265,f,0,0,215,338365,1279643
22,20,female,Belg,2,59,ITC,neutral,10,right,5,ITC_wait,0,undefined,0,0,215,338361,1279647
22,20,female,Belg,2,59,ITC,neutral,10,right,5,ITC_collect,979,k,0,0,215,337382,1280626
22,20,female,Belg,2,59,ITC,neutral,10,right,5,ITC_outcome,0,undefined,0,0,220,336372,1281636
22,20,female,Belg,2,60,guess,loss,5,right,6,guess_start,240,space,0,0,220,336130,1281878
22,20,female,Belg,2,60,guess,loss,5,right,6,guess_choice,1088,j,0,0,220,335038,1282970
22,20,female,Belg,2,60,guess,loss,5,right,6,guess_outcome,0,undefined,0,0,205,333479,1284529
22,20,female,Belg,2,60,ITC,loss,5,right,6,ITC_start,401,space,0,0,205,333074,1284934
22,20,female,Belg,2,60,ITC,loss,5,right,6,ITC_choice,865,j,0,0,205,332207,1285801
22,20,female,Belg,2,60,ITC,loss,5,right,6,ITC_wait,0,undefined,0,0,205,327201,1290807
22,20,female,Belg,2,60,ITC,loss,5,right,6,ITC_collect,291,k,0,0,205,326908,1291100
22,20,female,Belg,2,60,ITC,loss,5,right,6,ITC_outcome,0,undefined,0,0,225,325898,1292110
22,20,female,Belg,2,61,guess,loss,5,right,4,guess_start,492,space,0,0,225,325404,1292604
22,20,female,Belg,2,61,guess,loss,5,right,4,guess_choice,1037,j,0,0,225,324362,1293646
22,20,female,Belg,2,61,guess,loss,5,right,4,guess_outcome,0,undefined,0,0,210,322805,1295203
22,20,female,Belg,2,61,ITC,loss,5,right,4,ITC_start,524,space,0,0,210,322279,1295729
22,20,female,Belg,2,61,ITC,loss,5,right,4,ITC_choice,1210,j,0,0,210,321065,1296943
22,20,female,Belg,2,61,ITC,loss,5,right,4,ITC_wait,0,undefined,0,0,210,316058,1301950
22,20,female,Belg,2,61,ITC,loss,5,right,4,ITC_collect,1023,k,0,0,210,315034,1302974
22,20,female,Belg,2,61,ITC,loss,5,right,4,ITC_outcome,0,undefined,0,0,230,314026,1303982
22,20,female,Belg,2,62,guess,win,5,right,3,guess_start,659,space,0,0,230,313365,1304643
22,20,female,Belg,2,62,guess,win,5,right,3,guess_choice,1040,j,0,0,230,312320,1305688
22,20,female,Belg,2,62,guess,win,5,right,3,guess_outcome,0,undefined,0,0,250,310760,1307248
22,20,female,Belg,2,62,ITC,win,5,right,3,ITC_start,565,space,0,0,250,310193,1307815
22,20,female,Belg,2,62,ITC,win,5,right,3,ITC_choice,1157,j,0,0,250,309032,1308976
22,20,female,Belg,2,62,ITC,win,5,right,3,ITC_wait,0,undefined,0,0,250,304027,1313981
22,20,female,Belg,2,62,ITC,win,5,right,3,ITC_collect,331,k,0,0,250,303693,1314315
22,20,female,Belg,2,62,ITC,win,5,right,3,ITC_outcome,0,undefined,0,0,270,302684,1315324
22,20,female,Belg,2,63,guess,win,5,right,5,guess_start,458,space,0,0,270,302222,1315786
22,20,female,Belg,2,63,guess,win,5,right,5,guess_choice,1105,f,0,0,270,301113,1316895
22,20,female,Belg,2,63,guess,win,5,right,5,guess_outcome,0,undefined,0,0,290,299555,1318453
22,20,female,Belg,2,63,ITC,win,5,right,5,ITC_start,492,space,0,0,290,299060,1318948
22,20,female,Belg,2,63,ITC,win,5,right,5,ITC_choice,1735,j,0,0,290,297323,1320685
22,20,female,Belg,2,63,ITC,win,5,right,5,ITC_wait,0,undefined,0,0,290,292320,1325688
22,20,female,Belg,2,63,ITC,win,5,right,5,ITC_collect,333,k,0,0,290,291985,1326023
22,20,female,Belg,2,63,ITC,win,5,right,5,ITC_outcome,0,undefined,0,0,310,290976,1327032
22,20,female,Belg,2,64,guess,loss,10,left,4,guess_start,425,space,0,0,310,290548,1327460
22,20,female,Belg,2,64,guess,loss,10,left,4,guess_choice,1002,j,0,0,310,289541,1328467
22,20,female,Belg,2,64,guess,loss,10,left,4,guess_outcome,0,undefined,0,0,295,287981,1330027
22,20,female,Belg,2,64,ITC,loss,10,left,4,ITC_start,407,space,0,0,295,287572,1330436
22,20,female,Belg,2,64,ITC,loss,10,left,4,ITC_choice,1344,j,0,0,295,286226,1331782
22,20,female,Belg,2,64,ITC,loss,10,left,4,ITC_wait,0,undefined,0,0,295,286223,1331785
22,20,female,Belg,2,64,ITC,loss,10,left,4,ITC_collect,495,k,0,0,295,285726,1332282
22,20,female,Belg,2,64,ITC,loss,10,left,4,ITC_outcome,0,undefined,0,0,299,284717,1333291
22,20,female,Belg,2,65,guess,win,5,left,7,guess_start,433,space,0,0,299,284281,1333727
22,20,female,Belg,2,65,guess,win,5,left,7,guess_choice,946,j,0,0,299,283329,1334679
22,20,female,Belg,2,65,guess,win,5,left,7,guess_outcome,0,undefined,0,0,319,281771,1336237
22,20,female,Belg,2,65,ITC,win,5,left,7,ITC_start,456,space,0,0,319,281312,1336696
22,20,female,Belg,2,65,ITC,win,5,left,7,ITC_choice,1014,f,0,0,319,280296,1337712
22,20,female,Belg,2,65,ITC,win,5,left,7,ITC_wait,0,undefined,0,0,319,275291,1342717
22,20,female,Belg,2,65,ITC,win,5,left,7,ITC_collect,7,k,0,0,319,275282,1342726
22,20,female,Belg,2,65,ITC,win,5,left,7,ITC_outcome,0,undefined,0,0,339,274279,1343729
22,20,female,Belg,2,66,guess,neutral,5,right,13,guess_start,452,space,0,0,339,273824,1344184
22,20,female,Belg,2,66,guess,neutral,5,right,13,guess_choice,686,j,0,0,339,273133,1344875
22,20,female,Belg,2,66,guess,neutral,5,right,13,guess_outcome,0,undefined,0,0,339,271573,1346435
22,20,female,Belg,2,66,ITC,neutral,5,right,13,ITC_start,939,space,0,0,339,270630,1347378
22,20,female,Belg,2,66,ITC,neutral,5,right,13,ITC_choice,1504,f,0,0,339,269124,1348884
22,20,female,Belg,2,66,ITC,neutral,5,right,13,ITC_wait,0,undefined,0,0,339,269121,1348887
22,20,female,Belg,2,66,ITC,neutral,5,right,13,ITC_collect,487,k,0,0,339,268633,1349375
22,20,female,Belg,2,66,ITC,neutral,5,right,13,ITC_outcome,0,undefined,0,0,352,267623,1350385
22,20,female,Belg,2,67,guess,win,5,right,14,guess_start,466,space,0,0,352,267154,1350854
22,20,female,Belg,2,67,guess,win,5,right,14,guess_choice,786,f,0,0,352,266363,1351645
22,20,female,Belg,2,67,guess,win,5,right,14,guess_outcome,0,undefined,0,0,372,264804,1353204
22,20,female,Belg,2,67,ITC,win,5,right,14,ITC_start,426,space,0,0,372,264375,1353633
22,20,female,Belg,2,67,ITC,win,5,right,14,ITC_choice,1254,f,0,0,372,263119,1354889
22,20,female,Belg,2,67,ITC,win,5,right,14,ITC_wait,0,undefined,0,0,372,263115,1354893
22,20,female,Belg,2,67,ITC,win,5,right,14,ITC_collect,523,k,0,0,372,262591,1355417
22,20,female,Belg,2,67,ITC,win,5,right,14,ITC_outcome,0,undefined,0,0,386,261582,1356426
22,20,female,Belg,2,68,guess,neutral,5,right,8,guess_start,494,space,0,0,386,261085,1356923
22,20,female,Belg,2,68,guess,neutral,5,right,8,guess_choice,549,j,0,0,386,260530,1357478
22,20,female,Belg,2,68,guess,neutral,5,right,8,guess_outcome,0,undefined,0,0,386,258971,1359037
22,20,female,Belg,2,68,ITC,neutral,5,right,8,ITC_start,638,space,0,0,386,258330,1359678
22,20,female,Belg,2,68,ITC,neutral,5,right,8,ITC_wait,0,undefined,0,0,386,257246,1360762
22,20,female,Belg,2,68,ITC,neutral,5,right,8,ITC_choice,1079,f,0,0,386,257249,1360759
22,20,female,Belg,2,68,ITC,neutral,5,right,8,ITC_collect,678,k,0,0,386,256567,1361441
22,20,female,Belg,2,68,ITC,neutral,5,right,8,ITC_outcome,0,undefined,0,0,394,255559,1362449
22,20,female,Belg,2,69,guess,neutral,5,right,4,guess_start,373,space,0,0,394,255183,1362825
22,20,female,Belg,2,69,guess,neutral,5,right,4,guess_choice,625,j,0,0,394,254553,1363455
22,20,female,Belg,2,69,guess,neutral,5,right,4,guess_outcome,0,undefined,0,0,394,252992,1365016
22,20,female,Belg,2,69,ITC,neutral,5,right,4,ITC_start,400,space,0,0,394,252589,1365419
22,20,female,Belg,2,69,ITC,neutral,5,right,4,ITC_choice,1310,j,0,0,394,251277,1366731
22,20,female,Belg,2,69,ITC,neutral,5,right,4,ITC_wait,0,undefined,0,0,394,246271,1371737
22,20,female,Belg,2,69,ITC,neutral,5,right,4,ITC_collect,254,k,0,0,394,246015,1371993
22,20,female,Belg,2,69,ITC,neutral,5,right,4,ITC_outcome,0,undefined,0,0,414,245010,1372998
22,20,female,Belg,2,70,guess,loss,5,right,14,guess_start,347,space,0,0,414,244661,1373347
22,20,female,Belg,2,70,guess,loss,5,right,14,guess_choice,658,f,0,0,414,243998,1374010
22,20,female,Belg,2,70,guess,loss,5,right,14,guess_outcome,0,undefined,0,0,399,242444,1375564
22,20,female,Belg,2,70,ITC,loss,5,right,14,ITC_start,549,space,0,0,399,241894,1376114
22,20,female,Belg,2,70,ITC,loss,5,right,14,ITC_choice,1106,f,0,0,399,240785,1377223
22,20,female,Belg,2,70,ITC,loss,5,right,14,ITC_wait,0,undefined,0,0,399,240782,1377226
22,20,female,Belg,2,70,ITC,loss,5,right,14,ITC_collect,479,k,0,0,399,240302,1377706
22,20,female,Belg,2,70,ITC,loss,5,right,14,ITC_outcome,0,undefined,0,0,413,239297,1378711
22,20,female,Belg,2,71,guess,loss,5,right,3,guess_start,510,space,0,0,413,238783,1379225
22,20,female,Belg,2,71,guess,loss,5,right,3,guess_choice,759,j,0,0,413,238018,1379990
22,20,female,Belg,2,71,guess,loss,5,right,3,guess_outcome,0,undefined,0,0,398,236460,1381548
22,20,female,Belg,2,71,ITC,loss,5,right,3,ITC_start,476,space,0,0,398,235982,1382026
22,20,female,Belg,2,71,ITC,loss,5,right,3,ITC_choice,1167,j,0,0,398,234813,1383195
22,20,female,Belg,2,71,ITC,loss,5,right,3,ITC_wait,0,undefined,0,0,398,229805,1388203
22,20,female,Belg,2,71,ITC,loss,5,right,3,ITC_collect,282,k,0,0,398,229521,1388487
22,20,female,Belg,2,71,ITC,loss,5,right,3,ITC_outcome,0,undefined,0,0,418,228511,1389497
22,20,female,Belg,2,72,guess,neutral,10,left,2,guess_start,439,space,0,0,418,228071,1389937
22,20,female,Belg,2,72,guess,neutral,10,left,2,guess_choice,608,f,0,0,418,227459,1390549
22,20,female,Belg,2,72,guess,neutral,10,left,2,guess_outcome,0,undefined,0,0,418,225899,1392109
22,20,female,Belg,2,72,ITC,neutral,10,left,2,ITC_start,546,space,0,0,418,225350,1392658
22,20,female,Belg,2,72,ITC,neutral,10,left,2,ITC_choice,1485,j,0,0,418,223863,1394145
22,20,female,Belg,2,72,ITC,neutral,10,left,2,ITC_wait,0,undefined,0,0,418,223860,1394148
22,20,female,Belg,2,72,ITC,neutral,10,left,2,ITC_collect,479,k,0,0,418,223380,1394628
22,20,female,Belg,2,72,ITC,neutral,10,left,2,ITC_outcome,0,undefined,0,0,420,222371,1395637
22,20,female,Belg,2,73,guess,loss,10,right,7,guess_start,432,space,0,0,420,221937,1396071
22,20,female,Belg,2,73,guess,loss,10,right,7,guess_choice,675,j,0,0,420,221255,1396753
22,20,female,Belg,2,73,guess,loss,10,right,7,guess_outcome,0,undefined,0,0,405,219695,1398313
22,20,female,Belg,2,73,ITC,loss,10,right,7,ITC_start,357,space,0,0,405,219337,1398671
22,20,female,Belg,2,73,ITC,loss,10,right,7,ITC_choice,1141,f,0,0,405,218192,1399816
22,20,female,Belg,2,73,ITC,loss,10,right,7,ITC_wait,0,undefined,0,0,405,218188,1399820
22,20,female,Belg,2,73,ITC,loss,10,right,7,ITC_collect,351,k,0,0,405,217837,1400171
22,20,female,Belg,2,73,ITC,loss,10,right,7,ITC_outcome,0,undefined,0,0,412,216832,1401176
22,20,female,Belg,2,74,guess,win,5,left,7,guess_start,363,space,0,0,412,216465,1401543
22,20,female,Belg,2,74,guess,win,5,left,7,guess_choice,733,f,0,0,412,215727,1402281
22,20,female,Belg,2,74,guess,win,5,left,7,guess_outcome,0,undefined,0,0,432,214167,1403841
22,20,female,Belg,2,74,ITC,win,5,left,7,ITC_start,482,space,0,0,432,213683,1404325
22,20,female,Belg,2,74,ITC,win,5,left,7,ITC_choice,1141,f,0,0,432,212540,1405468
22,20,female,Belg,2,74,ITC,win,5,left,7,ITC_wait,0,undefined,0,0,432,207533,1410475
22,20,female,Belg,2,74,ITC,win,5,left,7,ITC_collect,217,k,0,0,432,207313,1410695
22,20,female,Belg,2,74,ITC,win,5,left,7,ITC_outcome,0,undefined,0,0,452,206304,1411704
22,20,female,Belg,2,75,guess,loss,5,right,3,guess_start,362,space,0,0,452,205940,1412068
22,20,female,Belg,2,75,guess,loss,5,right,3,guess_choice,638,j,0,0,452,205297,1412711
22,20,female,Belg,2,75,guess,loss,5,right,3,guess_outcome,0,undefined,0,0,437,203739,1414269
22,20,female,Belg,2,75,ITC,loss,5,right,3,ITC_start,884,space,0,0,437,202853,1415155
22,20,female,Belg,2,75,ITC,loss,5,right,3,ITC_choice,1832,j,0,0,437,201019,1416989
22,20,female,Belg,2,75,ITC,loss,5,right,3,ITC_wait,0,undefined,0,0,437,196011,1421997
22,20,female,Belg,2,75,ITC,loss,5,right,3,ITC_collect,322,k,0,0,437,195686,1422322
22,20,female,Belg,2,75,ITC,loss,5,right,3,ITC_outcome,0,undefined,0,0,457,194678,1423330
22,20,female,Belg,2,76,guess,win,10,right,4,guess_start,465,space,0,0,457,194211,1423797
22,20,female,Belg,2,76,guess,win,10,right,4,guess_choice,866,f,0,0,457,193339,1424669
22,20,female,Belg,2,76,guess,win,10,right,4,guess_outcome,0,undefined,0,0,477,191781,1426227
22,20,female,Belg,2,76,ITC,win,10,right,4,ITC_start,854,space,0,0,477,190924,1427084
22,20,female,Belg,2,76,ITC,win,10,right,4,ITC_choice,1123,f,0,0,477,189799,1428209
22,20,female,Belg,2,76,ITC,win,10,right,4,ITC_wait,0,undefined,0,0,477,189795,1428213
22,20,female,Belg,2,76,ITC,win,10,right,4,ITC_collect,388,k,0,0,477,189407,1428601
22,20,female,Belg,2,76,ITC,win,10,right,4,ITC_outcome,0,undefined,0,0,481,188396,1429612
22,20,female,Belg,2,77,guess,loss,10,left,3,guess_start,343,space,0,0,481,188050,1429958
22,20,female,Belg,2,77,guess,loss,10,left,3,guess_choice,669,j,0,0,481,187376,1430632
22,20,female,Belg,2,77,guess,loss,10,left,3,guess_outcome,0,undefined,0,0,466,185815,1432193
22,20,female,Belg,2,77,ITC,loss,10,left,3,ITC_start,400,space,0,0,466,185411,1432597
22,20,female,Belg,2,77,ITC,loss,10,left,3,ITC_wait,0,undefined,0,0,466,184324,1433684
22,20,female,Belg,2,77,ITC,loss,10,left,3,ITC_choice,1082,j,0,0,466,184328,1433680
22,20,female,Belg,2,77,ITC,loss,10,left,3,ITC_collect,369,k,0,0,466,183954,1434054
22,20,female,Belg,2,77,ITC,loss,10,left,3,ITC_outcome,0,undefined,0,0,469,182943,1435065
22,20,female,Belg,2,78,guess,loss,5,right,4,guess_start,303,space,0,0,469,182638,1435370
22,20,female,Belg,2,78,guess,loss,5,right,4,guess_choice,558,f,0,0,469,182075,1435933
22,20,female,Belg,2,78,guess,loss,5,right,4,guess_outcome,0,undefined,0,0,454,180517,1437491
22,20,female,Belg,2,78,ITC,loss,5,right,4,ITC_start,482,space,0,0,454,180033,1437975
22,20,female,Belg,2,78,ITC,loss,5,right,4,ITC_choice,977,f,0,0,454,179052,1438956
22,20,female,Belg,2,78,ITC,loss,5,right,4,ITC_wait,0,undefined,0,0,454,179048,1438960
22,20,female,Belg,2,78,ITC,loss,5,right,4,ITC_collect,617,k,0,0,454,178431,1439577
22,20,female,Belg,2,78,ITC,loss,5,right,4,ITC_outcome,0,undefined,0,0,458,177421,1440587
22,20,female,Belg,2,79,guess,loss,5,right,5,guess_start,427,space,0,0,458,176991,1441017
22,20,female,Belg,2,79,guess,loss,5,right,5,guess_choice,554,j,0,0,458,176432,1441576
22,20,female,Belg,2,79,guess,loss,5,right,5,guess_outcome,0,undefined,0,0,443,174873,1443135
22,20,female,Belg,2,79,ITC,loss,5,right,5,ITC_start,492,space,0,0,443,174377,1443631
22,20,female,Belg,2,79,ITC,loss,5,right,5,ITC_choice,749,j,0,0,443,173625,1444383
22,20,female,Belg,2,79,ITC,loss,5,right,5,ITC_wait,0,undefined,0,0,443,168619,1449389
22,20,female,Belg,2,79,ITC,loss,5,right,5,ITC_collect,258,k,0,0,443,168358,1449650
22,20,female,Belg,2,79,ITC,loss,5,right,5,ITC_outcome,0,undefined,0,0,463,167352,1450656
22,20,female,Belg,2,80,guess,neutral,5,left,12,guess_start,448,space,0,0,463,166901,1451107
22,20,female,Belg,2,80,guess,neutral,5,left,12,guess_choice,592,j,0,0,463,166304,1451704
22,20,female,Belg,2,80,guess,neutral,5,left,12,guess_outcome,0,undefined,0,0,463,164744,1453264
22,20,female,Belg,2,80,ITC,neutral,5,left,12,ITC_start,462,space,0,0,463,164279,1453729
22,20,female,Belg,2,80,ITC,neutral,5,left,12,ITC_choice,1144,j,0,0,463,163133,1454875
22,20,female,Belg,2,80,ITC,neutral,5,left,12,ITC_wait,0,undefined,0,0,463,163129,1454879
22,20,female,Belg,2,80,ITC,neutral,5,left,12,ITC_collect,780,k,0,0,463,162348,1455660
22,20,female,Belg,2,80,ITC,neutral,5,left,12,ITC_outcome,0,undefined,0,0,475,161342,1456666
22,20,female,Belg,2,81,guess,win,5,left,14,guess_start,380,space,0,0,475,160959,1457049
22,20,female,Belg,2,81,guess,win,5,left,14,guess_choice,709,f,0,0,475,160245,1457763
22,20,female,Belg,2,81,guess,win,5,left,14,guess_outcome,0,undefined,0,0,495,158690,1459318
22,20,female,Belg,2,81,ITC,win,5,left,14,ITC_start,479,space,0,0,495,158208,1459800
22,20,female,Belg,2,81,ITC,win,5,left,14,ITC_choice,1420,j,0,0,495,156787,1461221
22,20,female,Belg,2,81,ITC,win,5,left,14,ITC_wait,0,undefined,0,0,495,156783,1461225
22,20,female,Belg,2,81,ITC,win,5,left,14,ITC_collect,571,k,0,0,495,156210,1461798
22,20,female,Belg,2,81,ITC,win,5,left,14,ITC_outcome,0,undefined,0,0,509,155202,1462806
22,20,female,Belg,2,82,guess,win,5,left,2,guess_start,585,space,0,0,509,154615,1463393
22,20,female,Belg,2,82,guess,win,5,left,2,guess_choice,565,j,0,0,509,154045,1463963
22,20,female,Belg,2,82,guess,win,5,left,2,guess_outcome,0,undefined,0,0,529,152485,1465523
22,20,female,Belg,2,82,ITC,win,5,left,2,ITC_start,441,space,0,0,529,152041,1465967
22,20,female,Belg,2,82,ITC,win,5,left,2,ITC_choice,1158,f,0,0,529,150881,1467127
22,20,female,Belg,2,82,ITC,win,5,left,2,ITC_wait,0,undefined,0,0,529,145873,1472135
22,20,female,Belg,2,82,ITC,win,5,left,2,ITC_collect,274,k,0,0,529,145596,1472412
22,20,female,Belg,2,82,ITC,win,5,left,2,ITC_outcome,0,undefined,0,0,549,144588,1473420
22,20,female,Belg,2,83,guess,loss,5,left,7,guess_start,323,space,0,0,549,144263,1473745
22,20,female,Belg,2,83,guess,loss,5,left,7,guess_choice,613,j,0,0,549,143644,1474364
22,20,female,Belg,2,83,guess,loss,5,left,7,guess_outcome,0,undefined,0,0,534,142084,1475924
22,20,female,Belg,2,83,ITC,loss,5,left,7,ITC_start,476,space,0,0,534,141605,1476403
22,20,female,Belg,2,83,ITC,loss,5,left,7,ITC_choice,876,j,0,0,534,140726,1477282
22,20,female,Belg,2,83,ITC,loss,5,left,7,ITC_wait,0,undefined,0,0,534,140723,1477285
22,20,female,Belg,2,83,ITC,loss,5,left,7,ITC_collect,798,k,0,0,534,139924,1478084
22,20,female,Belg,2,83,ITC,loss,5,left,7,ITC_outcome,0,undefined,0,0,541,138914,1479094
22,20,female,Belg,2,84,guess,win,5,right,12,guess_start,415,space,0,0,541,138495,1479513
22,20,female,Belg,2,84,guess,win,5,right,12,guess_choice,498,f,0,0,541,137992,1480016
22,20,female,Belg,2,84,guess,win,5,right,12,guess_outcome,0,undefined,0,0,561,136432,1481576
22,20,female,Belg,2,84,ITC,win,5,right,12,ITC_start,453,space,0,0,561,135977,1482031
22,20,female,Belg,2,84,ITC,win,5,right,12,ITC_wait,0,undefined,0,0,561,134925,1483083
22,20,female,Belg,2,84,ITC,win,5,right,12,ITC_choice,1045,f,0,0,561,134928,1483080
22,20,female,Belg,2,84,ITC,win,5,right,12,ITC_collect,430,k,0,0,561,134494,1483514
22,20,female,Belg,2,84,ITC,win,5,right,12,ITC_outcome,0,undefined,0,0,573,133487,1484521
22,20,female,Belg,2,85,guess,neutral,10,right,7,guess_start,297,space,0,0,573,133186,1484822
22,20,female,Belg,2,85,guess,neutral,10,right,7,guess_choice,618,f,0,0,573,132564,1485444
22,20,female,Belg,2,85,guess,neutral,10,right,7,guess_outcome,0,undefined,0,0,573,131009,1486999
22,20,female,Belg,2,85,ITC,neutral,10,right,7,ITC_start,568,space,0,0,573,130439,1487569
22,20,female,Belg,2,85,ITC,neutral,10,right,7,ITC_choice,1157,f,0,0,573,129279,1488729
22,20,female,Belg,2,85,ITC,neutral,10,right,7,ITC_wait,0,undefined,0,0,573,129275,1488733
22,20,female,Belg,2,85,ITC,neutral,10,right,7,ITC_collect,1691,k,0,0,573,127582,1490426
22,20,female,Belg,2,85,ITC,neutral,10,right,7,ITC_outcome,0,undefined,0,0,580,126573,1491435
22,20,female,Belg,2,86,guess,loss,5,right,9,guess_start,368,space,0,0,580,126203,1491805
22,20,female,Belg,2,86,guess,loss,5,right,9,guess_choice,566,j,0,0,580,125631,1492377
22,20,female,Belg,2,86,guess,loss,5,right,9,guess_outcome,0,undefined,0,0,565,124073,1493935
22,20,female,Belg,2,86,ITC,loss,5,right,9,ITC_start,613,space,0,0,565,123458,1494550
22,20,female,Belg,2,86,ITC,loss,5,right,9,ITC_wait,0,undefined,0,0,565,122362,1495646
22,20,female,Belg,2,86,ITC,loss,5,right,9,ITC_choice,1090,f,0,0,565,122366,1495642
22,20,female,Belg,2,86,ITC,loss,5,right,9,ITC_collect,463,k,0,0,565,121898,1496110
22,20,female,Belg,2,86,ITC,loss,5,right,9,ITC_outcome,0,undefined,0,0,574,120892,1497116
22,20,female,Belg,2,87,guess,loss,10,right,2,guess_start,532,space,0,0,574,120358,1497650
22,20,female,Belg,2,87,guess,loss,10,right,2,guess_choice,882,j,0,0,574,119472,1498536
22,20,female,Belg,2,87,guess,loss,10,right,2,guess_outcome,0,undefined,0,0,559,117915,1500093
22,20,female,Belg,2,87,ITC,loss,10,right,2,ITC_start,357,space,0,0,559,117556,1500452
22,20,female,Belg,2,87,ITC,loss,10,right,2,ITC_choice,1530,j,0,0,559,116024,1501984
22,20,female,Belg,2,87,ITC,loss,10,right,2,ITC_wait,0,undefined,0,0,559,106018,1511990
22,20,female,Belg,2,87,ITC,loss,10,right,2,ITC_collect,711,k,0,0,559,105304,1512704
22,20,female,Belg,2,87,ITC,loss,10,right,2,ITC_outcome,0,undefined,0,0,579,104296,1513712
22,20,female,Belg,2,88,guess,win,5,right,6,guess_start,389,space,0,0,579,103904,1514104
22,20,female,Belg,2,88,guess,win,5,right,6,guess_choice,653,f,0,0,579,103246,1514762
22,20,female,Belg,2,88,guess,win,5,right,6,guess_outcome,0,undefined,0,0,599,101685,1516323
22,20,female,Belg,2,88,ITC,win,5,right,6,ITC_start,431,space,0,0,599,101252,1516756
22,20,female,Belg,2,88,ITC,win,5,right,6,ITC_choice,1342,j,0,0,599,99909,1518099
22,20,female,Belg,2,88,ITC,win,5,right,6,ITC_wait,0,undefined,0,0,599,94905,1523103
22,20,female,Belg,2,88,ITC,win,5,right,6,ITC_collect,338,k,0,0,599,94566,1523442
22,20,female,Belg,2,88,ITC,win,5,right,6,ITC_outcome,0,undefined,0,0,619,93558,1524450
22,20,female,Belg,2,89,guess,win,10,left,3,guess_start,376,space,0,0,619,93179,1524829
22,20,female,Belg,2,89,guess,win,10,left,3,guess_choice,948,f,0,0,619,92226,1525782
22,20,female,Belg,2,89,guess,win,10,left,3,guess_outcome,0,undefined,0,0,639,90668,1527340
22,20,female,Belg,2,89,ITC,win,10,left,3,ITC_start,439,space,0,0,639,90225,1527783
22,20,female,Belg,2,89,ITC,win,10,left,3,ITC_choice,1569,j,0,0,639,88654,1529354
22,20,female,Belg,2,89,ITC,win,10,left,3,ITC_wait,0,undefined,0,0,639,88650,1529358
22,20,female,Belg,2,89,ITC,win,10,left,3,ITC_collect,870,k,0,0,639,87779,1530229
22,20,female,Belg,2,89,ITC,win,10,left,3,ITC_outcome,0,undefined,0,0,642,86769,1531239
22,20,female,Belg,2,90,guess,win,5,right,5,guess_start,410,space,0,0,642,86356,1531652
22,20,female,Belg,2,90,guess,win,5,right,5,guess_choice,567,j,0,0,642,85784,1532224
22,20,female,Belg,2,90,guess,win,5,right,5,guess_outcome,0,undefined,0,0,662,84226,1533782
22,20,female,Belg,2,90,ITC,win,5,right,5,ITC_start,417,space,0,0,662,83806,1534202
22,20,female,Belg,2,90,ITC,win,5,right,5,ITC_wait,0,undefined,0,0,662,82894,1535114
22,20,female,Belg,2,90,ITC,win,5,right,5,ITC_choice,907,f,0,0,662,82896,1535112
22,20,female,Belg,2,90,ITC,win,5,right,5,ITC_collect,790,k,0,0,662,82102,1535906
22,20,female,Belg,2,90,ITC,win,5,right,5,ITC_outcome,0,undefined,0,0,667,81092,1536916
22,20,female,Belg,2,91,guess,loss,5,left,16,guess_start,440,space,0,0,667,80648,1537360
22,20,female,Belg,2,91,guess,loss,5,left,16,guess_choice,709,j,0,0,667,79934,1538074
22,20,female,Belg,2,91,guess,loss,5,left,16,guess_outcome,0,undefined,0,0,652,78374,1539634
22,20,female,Belg,2,91,ITC,loss,5,left,16,ITC_start,471,space,0,0,652,77899,1540109
22,20,female,Belg,2,91,ITC,loss,5,left,16,ITC_choice,843,j,0,0,652,77054,1540954
22,20,female,Belg,2,91,ITC,loss,5,left,16,ITC_wait,0,undefined,0,0,652,77050,1540958
22,20,female,Belg,2,91,ITC,loss,5,left,16,ITC_collect,582,k,0,0,652,76467,1541541
22,20,female,Belg,2,91,ITC,loss,5,left,16,ITC_outcome,0,undefined,0,0,668,75457,1542551
22,20,female,Belg,2,92,guess,neutral,10,right,5,guess_start,435,space,0,0,668,75019,1542989
22,20,female,Belg,2,92,guess,neutral,10,right,5,guess_choice,581,j,0,0,668,74433,1543575
22,20,female,Belg,2,92,guess,neutral,10,right,5,guess_outcome,0,undefined,0,0,668,72876,1545132
22,20,female,Belg,2,92,ITC,neutral,10,right,5,ITC_start,438,space,0,0,668,72435,1545573
22,20,female,Belg,2,92,ITC,neutral,10,right,5,ITC_wait,0,undefined,0,0,668,71342,1546666
22,20,female,Belg,2,92,ITC,neutral,10,right,5,ITC_choice,1087,f,0,0,668,71345,1546663
22,20,female,Belg,2,92,ITC,neutral,10,right,5,ITC_collect,742,k,0,0,668,70599,1547409
22,20,female,Belg,2,92,ITC,neutral,10,right,5,ITC_outcome,0,undefined,0,0,673,69588,1548420
22,20,female,Belg,2,93,guess,neutral,5,right,8,guess_start,386,space,0,0,673,69201,1548807
22,20,female,Belg,2,93,guess,neutral,5,right,8,guess_choice,703,f,0,0,673,68493,1549515
22,20,female,Belg,2,93,guess,neutral,5,right,8,guess_outcome,0,undefined,0,0,673,66934,1551074
22,20,female,Belg,2,93,ITC,neutral,5,right,8,ITC_start,630,space,0,0,673,66301,1551707
22,20,female,Belg,2,93,ITC,neutral,5,right,8,ITC_choice,836,f,0,0,673,65463,1552545
22,20,female,Belg,2,93,ITC,neutral,5,right,8,ITC_wait,0,undefined,0,0,673,65460,1552548
22,20,female,Belg,2,93,ITC,neutral,5,right,8,ITC_collect,384,k,0,0,673,65074,1552934
22,20,female,Belg,2,93,ITC,neutral,5,right,8,ITC_outcome,0,undefined,0,0,681,64069,1553939
22,20,female,Belg,2,94,guess,loss,5,right,10,guess_start,339,space,0,0,681,63728,1554280
22,20,female,Belg,2,94,guess,loss,5,right,10,guess_choice,764,j,0,0,681,62958,1555050
22,20,female,Belg,2,94,guess,loss,5,right,10,guess_outcome,0,undefined,0,0,666,61399,1556609
22,20,female,Belg,2,94,ITC,loss,5,right,10,ITC_start,795,space,0,0,666,60600,1557408
22,20,female,Belg,2,94,ITC,loss,5,right,10,ITC_choice,1192,f,0,0,666,59406,1558602
22,20,female,Belg,2,94,ITC,loss,5,right,10,ITC_wait,0,undefined,0,0,666,59402,1558606
22,20,female,Belg,2,94,ITC,loss,5,right,10,ITC_collect,584,k,0,0,666,58815,1559193
22,20,female,Belg,2,94,ITC,loss,5,right,10,ITC_outcome,0,undefined,0,0,676,57809,1560199
22,20,female,Belg,2,95,guess,win,5,left,16,guess_start,464,space,0,0,676,57343,1560665
22,20,female,Belg,2,95,guess,win,5,left,16,guess_choice,740,j,0,0,676,56598,1561410
22,20,female,Belg,2,95,guess,win,5,left,16,guess_outcome,0,undefined,0,0,696,55041,1562967
22,20,female,Belg,2,95,ITC,win,5,left,16,ITC_start,420,space,0,0,696,54618,1563390
22,20,female,Belg,2,95,ITC,win,5,left,16,ITC_choice,690,j,0,0,696,53925,1564083
22,20,female,Belg,2,95,ITC,win,5,left,16,ITC_wait,0,undefined,0,0,696,53921,1564087
22,20,female,Belg,2,95,ITC,win,5,left,16,ITC_collect,533,k,0,0,696,53388,1564620
22,20,female,Belg,2,95,ITC,win,5,left,16,ITC_outcome,0,undefined,0,0,712,52377,1565631
22,20,female,Belg,2,96,guess,neutral,5,left,2,guess_start,345,space,0,0,712,52030,1565978
22,20,female,Belg,2,96,guess,neutral,5,left,2,guess_choice,554,j,0,0,712,51469,1566539
22,20,female,Belg,2,96,guess,neutral,5,left,2,guess_outcome,0,undefined,0,0,712,49909,1568099
22,20,female,Belg,2,96,ITC,neutral,5,left,2,ITC_start,385,space,0,0,712,49522,1568486
22,20,female,Belg,2,96,ITC,neutral,5,left,2,ITC_choice,1255,f,0,0,712,48264,1569744
22,20,female,Belg,2,96,ITC,neutral,5,left,2,ITC_wait,0,undefined,0,0,712,43257,1574751
22,20,female,Belg,2,96,ITC,neutral,5,left,2,ITC_collect,418,k,0,0,712,42836,1575172
22,20,female,Belg,2,96,ITC,neutral,5,left,2,ITC_outcome,0,undefined,0,0,732,41825,1576183
22,20,female,Belg,2,97,guess,win,5,left,11,guess_start,652,space,0,0,732,41170,1576838
22,20,female,Belg,2,97,guess,win,5,left,11,guess_choice,604,j,0,0,732,40560,1577448
22,20,female,Belg,2,97,guess,win,5,left,11,guess_outcome,0,undefined,0,0,752,39005,1579003
22,20,female,Belg,2,97,ITC,win,5,left,11,ITC_start,428,space,0,0,752,38575,1579433
22,20,female,Belg,2,97,ITC,win,5,left,11,ITC_choice,696,j,0,0,752,37877,1580131
22,20,female,Belg,2,97,ITC,win,5,left,11,ITC_wait,0,undefined,0,0,752,37874,1580134
22,20,female,Belg,2,97,ITC,win,5,left,11,ITC_collect,747,k,0,0,752,37127,1580881
22,20,female,Belg,2,97,ITC,win,5,left,11,ITC_outcome,0,undefined,0,0,763,36117,1581891
22,20,female,Belg,2,98,guess,neutral,10,right,1,guess_start,501,space,0,0,763,35614,1582394
22,20,female,Belg,2,98,guess,neutral,10,right,1,guess_choice,631,f,0,0,763,34976,1583032
22,20,female,Belg,2,98,guess,neutral,10,right,1,guess_outcome,0,undefined,0,0,763,33416,1584592
22,20,female,Belg,2,98,ITC,neutral,10,right,1,ITC_start,482,space,0,0,763,32932,1585076
22,20,female,Belg,2,98,ITC,neutral,10,right,1,ITC_choice,1282,j,0,0,763,31648,1586360
22,20,female,Belg,2,98,ITC,neutral,10,right,1,ITC_wait,0,undefined,0,0,763,21641,1596367
22,20,female,Belg,2,98,ITC,neutral,10,right,1,ITC_collect,384,k,0,0,763,21254,1596754
22,20,female,Belg,2,98,ITC,neutral,10,right,1,ITC_outcome,0,undefined,0,0,783,20244,1597764
22,20,female,Belg,2,99,guess,win,10,left,8,guess_start,274,space,0,0,783,19967,1598041
22,20,female,Belg,2,99,guess,win,10,left,8,guess_choice,906,f,0,0,783,19055,1598953
22,20,female,Belg,2,99,guess,win,10,left,8,guess_outcome,0,undefined,0,0,803,17497,1600511
22,20,female,Belg,2,99,ITC,win,10,left,8,ITC_start,355,space,0,0,803,17139,1600869
22,20,female,Belg,2,99,ITC,win,10,left,8,ITC_choice,742,j,0,0,803,16394,1601614
22,20,female,Belg,2,99,ITC,win,10,left,8,ITC_wait,0,undefined,0,0,803,16390,1601618
22,20,female,Belg,2,99,ITC,win,10,left,8,ITC_collect,1102,k,0,0,803,15287,1602721
22,20,female,Belg,2,99,ITC,win,10,left,8,ITC_outcome,0,undefined,0,0,811,14279,1603729
22,20,female,Belg,2,100,guess,win,5,left,1,guess_start,385,space,0,0,811,13890,1604118
22,20,female,Belg,2,100,guess,win,5,left,1,guess_choice,568,j,0,0,811,13317,1604691
22,20,female,Belg,2,100,guess,win,5,left,1,guess_outcome,0,undefined,0,0,831,11758,1606250
22,20,female,Belg,2,100,ITC,win,5,left,1,ITC_start,417,space,0,0,831,11338,1606670
22,20,female,Belg,2,100,ITC,win,5,left,1,ITC_choice,1195,f,0,0,831,10141,1607867
22,20,female,Belg,2,100,ITC,win,5,left,1,ITC_wait,0,undefined,0,0,831,5134,1612874
22,20,female,Belg,2,100,ITC,win,5,left,1,ITC_collect,479,k,0,0,831,4652,1613356
22,20,female,Belg,2,100,ITC,win,5,left,1,ITC_outcome,0,undefined,0,0,851,3647,1614361
22,20,female,Belg,2,101,guess,win,10,left,5,guess_start,443,space,0,0,851,3199,1614809
22,20,female,Belg,2,101,guess,win,10,left,5,guess_choice,643,j,0,0,851,2551,1615457
22,20,female,Belg,2,101,guess,win,10,left,5,guess_outcome,0,undefined,0,0,871,992,1617016
22,20,female,Belg,2,101,ITC,win,10,left,5,ITC_start,432,space,0,0,871,557,1617451
22,20,female,Belg,2,101,ITC,win,10,left,5,ITC_choice,0,undefined,0,0,871,-8,1618016
22,20,female,Belg,3,102,guess,win,5,right,3,guess_start,1303,space,0,0,0,478697,1682742
22,20,female,Belg,3,102,guess,win,5,right,3,guess_choice,640,j,0,0,0,478052,1683387
22,20,female,Belg,3,102,guess,win,5,right,3,guess_outcome,0,undefined,0,0,20,476492,1684947
22,20,female,Belg,3,102,ITC,win,5,right,3,ITC_start,356,space,0,0,20,476134,1685305
22,20,female,Belg,3,102,ITC,win,5,right,3,ITC_choice,1071,j,0,0,20,475061,1686378
22,20,female,Belg,3,102,ITC,win,5,right,3,ITC_wait,0,undefined,0,0,20,470056,1691383
22,20,female,Belg,3,102,ITC,win,5,right,3,ITC_collect,417,k,0,0,20,469636,1691803
22,20,female,Belg,3,102,ITC,win,5,right,3,ITC_outcome,0,undefined,0,0,40,468627,1692812
22,20,female,Belg,3,103,guess,loss,10,right,5,guess_start,399,space,0,0,40,468224,1693215
22,20,female,Belg,3,103,guess,loss,10,right,5,guess_choice,588,f,0,0,40,467631,1693808
22,20,female,Belg,3,103,guess,loss,10,right,5,guess_outcome,0,undefined,0,0,25,466070,1695369
22,20,female,Belg,3,103,ITC,loss,10,right,5,ITC_start,466,space,0,0,25,465601,1695838
22,20,female,Belg,3,103,ITC,loss,10,right,5,ITC_choice,764,f,0,0,25,464834,1696605
22,20,female,Belg,3,103,ITC,loss,10,right,5,ITC_wait,0,undefined,0,0,25,464831,1696608
22,20,female,Belg,3,103,ITC,loss,10,right,5,ITC_collect,353,k,0,0,25,464477,1696962
22,20,female,Belg,3,103,ITC,loss,10,right,5,ITC_outcome,0,undefined,0,0,30,463471,1697968
22,20,female,Belg,3,104,guess,loss,5,left,13,guess_start,361,space,0,0,30,463107,1698332
22,20,female,Belg,3,104,guess,loss,5,left,13,guess_choice,516,j,0,0,30,462586,1698853
22,20,female,Belg,3,104,guess,loss,5,left,13,guess_outcome,0,undefined,0,0,15,461027,1700412
22,20,female,Belg,3,104,ITC,loss,5,left,13,ITC_start,371,space,0,0,15,460655,1700784
22,20,female,Belg,3,104,ITC,loss,5,left,13,ITC_wait,0,undefined,0,0,15,459943,1701496
22,20,female,Belg,3,104,ITC,loss,5,left,13,ITC_choice,706,j,0,0,15,459945,1701494
22,20,female,Belg,3,104,ITC,loss,5,left,13,ITC_collect,420,k,0,0,15,459521,1701918
22,20,female,Belg,3,104,ITC,loss,5,left,13,ITC_outcome,0,undefined,0,0,28,458512,1702927
22,20,female,Belg,3,105,guess,win,5,right,9,guess_start,374,space,0,0,28,458134,1703305
22,20,female,Belg,3,105,guess,win,5,right,9,guess_choice,448,j,0,0,28,457682,1703757
22,20,female,Belg,3,105,guess,win,5,right,9,guess_outcome,0,undefined,0,0,48,456121,1705318
22,20,female,Belg,3,105,ITC,win,5,right,9,ITC_start,374,space,0,0,48,455746,1705693
22,20,female,Belg,3,105,ITC,win,5,right,9,ITC_choice,840,f,0,0,48,454902,1706537
22,20,female,Belg,3,105,ITC,win,5,right,9,ITC_wait,0,undefined,0,0,48,454898,1706541
22,20,female,Belg,3,105,ITC,win,5,right,9,ITC_collect,336,k,0,0,48,454561,1706878
22,20,female,Belg,3,105,ITC,win,5,right,9,ITC_outcome,0,undefined,0,0,57,453550,1707889
22,20,female,Belg,3,106,guess,neutral,10,left,2,guess_start,359,space,0,0,57,453188,1708251
22,20,female,Belg,3,106,guess,neutral,10,left,2,guess_choice,539,j,0,0,57,452643,1708796
22,20,female,Belg,3,106,guess,neutral,10,left,2,guess_outcome,0,undefined,0,0,57,451083,1710356
22,20,female,Belg,3,106,ITC,neutral,10,left,2,ITC_start,386,space,0,0,57,450694,1710745
22,20,female,Belg,3,106,ITC,neutral,10,left,2,ITC_choice,1473,j,0,0,57,449218,1712221
22,20,female,Belg,3,106,ITC,neutral,10,left,2,ITC_wait,0,undefined,0,0,57,449214,1712225
22,20,female,Belg,3,106,ITC,neutral,10,left,2,ITC_collect,463,k,0,0,57,448750,1712689
22,20,female,Belg,3,106,ITC,neutral,10,left,2,ITC_outcome,0,undefined,0,0,59,447741,1713698
22,20,female,Belg,3,107,guess,neutral,5,left,10,guess_start,345,space,0,0,59,447392,1714047
22,20,female,Belg,3,107,guess,neutral,5,left,10,guess_choice,507,f,0,0,59,446880,1714559
22,20,female,Belg,3,107,guess,neutral,5,left,10,guess_outcome,0,undefined,0,0,59,445322,1716117
22,20,female,Belg,3,107,ITC,neutral,5,left,10,ITC_start,403,space,0,0,59,444917,1716522
22,20,female,Belg,3,107,ITC,neutral,5,left,10,ITC_wait,0,undefined,0,0,59,444091,1717348
22,20,female,Belg,3,107,ITC,neutral,5,left,10,ITC_choice,819,j,0,0,59,444094,1717345
22,20,female,Belg,3,107,ITC,neutral,5,left,10,ITC_collect,635,k,0,0,59,443454,1717985
22,20,female,Belg,3,107,ITC,neutral,5,left,10,ITC_outcome,0,undefined,0,0,69,442446,1718993
22,20,female,Belg,3,108,guess,win,5,left,15,guess_start,282,space,0,0,69,442161,1719278
22,20,female,Belg,3,108,guess,win,5,left,15,guess_choice,745,f,0,0,69,441409,1720030
22,20,female,Belg,3,108,guess,win,5,left,15,guess_outcome,0,undefined,0,0,89,439850,1721589
22,20,female,Belg,3,108,ITC,win,5,left,15,ITC_start,318,space,0,0,89,439529,1721910
22,20,female,Belg,3,108,ITC,win,5,left,15,ITC_choice,679,j,0,0,89,438846,1722593
22,20,female,Belg,3,108,ITC,win,5,left,15,ITC_wait,0,undefined,0,0,89,438844,1722595
22,20,female,Belg,3,108,ITC,win,5,left,15,ITC_collect,592,k,0,0,89,438251,1723188
22,20,female,Belg,3,108,ITC,win,5,left,15,ITC_outcome,0,undefined,0,0,104,437245,1724194
22,20,female,Belg,3,109,guess,loss,5,left,11,guess_start,390,space,0,0,104,436853,1724586
22,20,female,Belg,3,109,guess,loss,5,left,11,guess_choice,752,f,0,0,104,436095,1725344
22,20,female,Belg,3,109,guess,loss,5,left,11,guess_outcome,0,undefined,0,0,89,434534,1726905
22,20,female,Belg,3,109,ITC,loss,5,left,11,ITC_start,302,space,0,0,89,434230,1727209
22,20,female,Belg,3,109,ITC,loss,5,left,11,ITC_wait,0,undefined,0,0,89,433597,1727842
22,20,female,Belg,3,109,ITC,loss,5,left,11,ITC_choice,628,j,0,0,89,433599,1727840
22,20,female,Belg,3,109,ITC,loss,5,left,11,ITC_collect,397,k,0,0,89,433198,1728241
22,20,female,Belg,3,109,ITC,loss,5,left,11,ITC_outcome,0,undefined,0,0,100,432192,1729247
22,20,female,Belg,3,110,guess,neutral,10,left,6,guess_start,498,space,0,0,100,431690,1729749
22,20,female,Belg,3,110,guess,neutral,10,left,6,guess_choice,551,j,0,0,100,431133,1730306
22,20,female,Belg,3,110,guess,neutral,10,left,6,guess_outcome,0,undefined,0,0,100,429576,1731863
22,20,female,Belg,3,110,ITC,neutral,10,left,6,ITC_start,414,space,0,0,100,429159,1732280
22,20,female,Belg,3,110,ITC,neutral,10,left,6,ITC_wait,0,undefined,0,0,100,428299,1733140
22,20,female,Belg,3,110,ITC,neutral,10,left,6,ITC_choice,854,j,0,0,100,428303,1733136
22,20,female,Belg,3,110,ITC,neutral,10,left,6,ITC_collect,494,k,0,0,100,427805,1733634
22,20,female,Belg,3,110,ITC,neutral,10,left,6,ITC_outcome,0,undefined,0,0,106,426794,1734645
22,20,female,Belg,3,111,guess,win,10,right,7,guess_start,328,space,0,0,106,426464,1734975
22,20,female,Belg,3,111,guess,win,10,right,7,guess_choice,505,j,0,0,106,425954,1735485
22,20,female,Belg,3,111,guess,win,10,right,7,guess_outcome,0,undefined,0,0,126,424395,1737044
22,20,female,Belg,3,111,ITC,win,10,right,7,ITC_start,351,space,0,0,126,424040,1737399
22,20,female,Belg,3,111,ITC,win,10,right,7,ITC_wait,0,undefined,0,0,126,423269,1738170
22,20,female,Belg,3,111,ITC,win,10,right,7,ITC_choice,764,f,0,0,126,423273,1738166
22,20,female,Belg,3,111,ITC,win,10,right,7,ITC_collect,294,k,0,0,126,422973,1738466
22,20,female,Belg,3,111,ITC,win,10,right,7,ITC_outcome,0,undefined,0,0,133,421968,1739471
22,20,female,Belg,3,112,guess,neutral,5,right,16,guess_start,401,space,0,0,133,421564,1739875
22,20,female,Belg,3,112,guess,neutral,5,right,16,guess_choice,494,j,0,0,133,421064,1740375
22,20,female,Belg,3,112,guess,neutral,5,right,16,guess_outcome,0,undefined,0,0,133,419504,1741935
22,20,female,Belg,3,112,ITC,neutral,5,right,16,ITC_start,505,space,0,0,133,418995,1742444
22,20,female,Belg,3,112,ITC,neutral,5,right,16,ITC_choice,1801,j,0,0,133,417193,1744246
22,20,female,Belg,3,112,ITC,neutral,5,right,16,ITC_wait,0,undefined,0,0,133,412185,1749254
22,20,female,Belg,3,112,ITC,neutral,5,right,16,ITC_collect,1633,k,0,0,133,410550,1750889
22,20,female,Belg,3,112,ITC,neutral,5,right,16,ITC_outcome,0,undefined,0,0,153,409541,1751898
22,20,female,Belg,3,113,guess,win,5,left,4,guess_start,281,space,0,0,153,409257,1752182
22,20,female,Belg,3,113,guess,win,5,left,4,guess_choice,642,f,0,0,153,408609,1752830
22,20,female,Belg,3,113,guess,win,5,left,4,guess_outcome,0,undefined,0,0,173,407048,1754391
22,20,female,Belg,3,113,ITC,win,5,left,4,ITC_start,336,space,0,0,173,406710,1754729
22,20,female,Belg,3,113,ITC,win,5,left,4,ITC_choice,1004,f,0,0,173,405704,1755735
22,20,female,Belg,3,113,ITC,win,5,left,4,ITC_wait,0,undefined,0,0,173,400698,1760741
22,20,female,Belg,3,113,ITC,win,5,left,4,ITC_collect,356,k,0,0,173,400339,1761100
22,20,female,Belg,3,113,ITC,win,5,left,4,ITC_outcome,0,undefined,0,0,193,399330,1762109
22,20,female,Belg,3,114,guess,neutral,5,left,13,guess_start,440,space,0,0,193,398886,1762553
22,20,female,Belg,3,114,guess,neutral,5,left,13,guess_choice,526,f,0,0,193,398355,1763084
22,20,female,Belg,3,114,guess,neutral,5,left,13,guess_outcome,0,undefined,0,0,193,396795,1764644
22,20,female,Belg,3,114,ITC,neutral,5,left,13,ITC_start,563,space,0,0,193,396230,1765209
22,20,female,Belg,3,114,ITC,neutral,5,left,13,ITC_choice,669,j,0,0,193,395559,1765880
22,20,female,Belg,3,114,ITC,neutral,5,left,13,ITC_wait,0,undefined,0,0,193,395555,1765884
22,20,female,Belg,3,114,ITC,neutral,5,left,13,ITC_collect,356,k,0,0,193,395197,1766242
22,20,female,Belg,3,114,ITC,neutral,5,left,13,ITC_outcome,0,undefined,0,0,206,394191,1767248
22,20,female,Belg,3,115,guess,loss,10,right,4,guess_start,379,space,0,0,206,393808,1767631
22,20,female,Belg,3,115,guess,loss,10,right,4,guess_choice,660,j,0,0,206,393143,1768296
22,20,female,Belg,3,115,guess,loss,10,right,4,guess_outcome,0,undefined,0,0,191,391584,1769855
22,20,female,Belg,3,115,ITC,loss,10,right,4,ITC_start,406,space,0,0,191,391175,1770264
22,20,female,Belg,3,115,ITC,loss,10,right,4,ITC_choice,1555,f,0,0,191,389617,1771822
22,20,female,Belg,3,115,ITC,loss,10,right,4,ITC_wait,0,undefined,0,0,191,389614,1771825
22,20,female,Belg,3,115,ITC,loss,10,right,4,ITC_collect,393,k,0,0,191,389218,1772221
22,20,female,Belg,3,115,ITC,loss,10,right,4,ITC_outcome,0,undefined,0,0,195,388208,1773231
22,20,female,Belg,3,116,guess,neutral,5,left,1,guess_start,367,space,0,0,195,387838,1773601
22,20,female,Belg,3,116,guess,neutral,5,left,1,guess_choice,429,f,0,0,195,387402,1774037
22,20,female,Belg,3,116,guess,neutral,5,left,1,guess_outcome,0,undefined,0,0,195,385842,1775597
22,20,female,Belg,3,116,ITC,neutral,5,left,1,ITC_start,563,space,0,0,195,385277,1776162
22,20,female,Belg,3,116,ITC,neutral,5,left,1,ITC_choice,1225,f,0,0,195,384050,1777389
22,20,female,Belg,3,116,ITC,neutral,5,left,1,ITC_wait,0,undefined,0,0,195,379044,1782395
22,20,female,Belg,3,116,ITC,neutral,5,left,1,ITC_collect,489,k,0,0,195,378551,1782888
22,20,female,Belg,3,116,ITC,neutral,5,left,1,ITC_outcome,0,undefined,0,0,215,377546,1783893
22,20,female,Belg,3,117,guess,neutral,5,left,7,guess_start,319,space,0,0,215,377225,1784214
22,20,female,Belg,3,117,guess,neutral,5,left,7,guess_choice,520,f,0,0,215,376700,1784739
22,20,female,Belg,3,117,guess,neutral,5,left,7,guess_outcome,0,undefined,0,0,215,375142,1786297
22,20,female,Belg,3,117,ITC,neutral,5,left,7,ITC_start,431,space,0,0,215,374706,1786733
22,20,female,Belg,3,117,ITC,neutral,5,left,7,ITC_choice,728,j,0,0,215,373975,1787464
22,20,female,Belg,3,117,ITC,neutral,5,left,7,ITC_wait,0,undefined,0,0,215,373971,1787468
22,20,female,Belg,3,117,ITC,neutral,5,left,7,ITC_collect,464,k,0,0,215,373506,1787933
22,20,female,Belg,3,117,ITC,neutral,5,left,7,ITC_outcome,0,undefined,0,0,222,372500,1788939
22,20,female,Belg,3,118,guess,neutral,5,left,5,guess_start,384,space,0,0,222,372112,1789327
22,20,female,Belg,3,118,guess,neutral,5,left,5,guess_choice,497,f,0,0,222,371609,1789830
22,20,female,Belg,3,118,guess,neutral,5,left,5,guess_outcome,0,undefined,0,0,222,370050,1791389
22,20,female,Belg,3,118,ITC,neutral,5,left,5,ITC_start,441,space,0,0,222,369605,1791834
22,20,female,Belg,3,118,ITC,neutral,5,left,5,ITC_choice,1281,f,0,0,222,368321,1793118
22,20,female,Belg,3,118,ITC,neutral,5,left,5,ITC_wait,0,undefined,0,0,222,363314,1798125
22,20,female,Belg,3,118,ITC,neutral,5,left,5,ITC_collect,250,k,0,0,222,363062,1798377
22,20,female,Belg,3,118,ITC,neutral,5,left,5,ITC_outcome,0,undefined,0,0,242,362053,1799386
22,20,female,Belg,3,119,guess,neutral,5,left,9,guess_start,267,space,0,0,242,361783,1799656
22,20,female,Belg,3,119,guess,neutral,5,left,9,guess_choice,482,f,0,0,242,361296,1800143
22,20,female,Belg,3,119,guess,neutral,5,left,9,guess_outcome,0,undefined,0,0,242,359735,1801704
22,20,female,Belg,3,119,ITC,neutral,5,left,9,ITC_start,485,space,0,0,242,359247,1802192
22,20,female,Belg,3,119,ITC,neutral,5,left,9,ITC_choice,971,f,0,0,242,358274,1803165
22,20,female,Belg,3,119,ITC,neutral,5,left,9,ITC_wait,0,undefined,0,0,242,353269,1808170
22,20,female,Belg,3,119,ITC,neutral,5,left,9,ITC_collect,615,k,0,0,242,352651,1808788
22,20,female,Belg,3,119,ITC,neutral,5,left,9,ITC_outcome,0,undefined,0,0,262,351642,1809797
22,20,female,Belg,3,120,guess,loss,5,right,14,guess_start,348,space,0,0,262,351292,1810147
22,20,female,Belg,3,120,guess,loss,5,right,14,guess_choice,799,f,0,0,262,350486,1810953
22,20,female,Belg,3,120,guess,loss,5,right,14,guess_outcome,0,undefined,0,0,247,348930,1812509
22,20,female,Belg,3,120,ITC,loss,5,right,14,ITC_start,331,space,0,0,247,348596,1812843
22,20,female,Belg,3,120,ITC,loss,5,right,14,ITC_choice,1319,f,0,0,247,347276,1814163
22,20,female,Belg,3,120,ITC,loss,5,right,14,ITC_wait,0,undefined,0,0,247,347272,1814167
22,20,female,Belg,3,120,ITC,loss,5,right,14,ITC_collect,406,k,0,0,247,346864,1814575
22,20,female,Belg,3,120,ITC,loss,5,right,14,ITC_outcome,0,undefined,0,0,261,345855,1815584
22,20,female,Belg,3,121,guess,neutral,5,left,6,guess_start,525,space,0,0,261,345326,1816113
22,20,female,Belg,3,121,guess,neutral,5,left,6,guess_choice,419,f,0,0,261,344902,1816537
22,20,female,Belg,3,121,guess,neutral,5,left,6,guess_outcome,0,undefined,0,0,261,343346,1818093
22,20,female,Belg,3,121,ITC,neutral,5,left,6,ITC_start,586,space,0,0,261,342758,1818681
22,20,female,Belg,3,121,ITC,neutral,5,left,6,ITC_choice,1171,f,0,0,261,341583,1819856
22,20,female,Belg,3,121,ITC,neutral,5,left,6,ITC_wait,0,undefined,0,0,261,336576,1824863
22,20,female,Belg,3,121,ITC,neutral,5,left,6,ITC_collect,412,k,0,0,261,336162,1825277
22,20,female,Belg,3,121,ITC,neutral,5,left,6,ITC_outcome,0,undefined,0,0,281,335152,1826287
22,20,female,Belg,3,122,guess,neutral,5,right,15,guess_start,346,space,0,0,281,334802,1826637
22,20,female,Belg,3,122,guess,neutral,5,right,15,guess_choice,486,f,0,0,281,334311,1827128
22,20,female,Belg,3,122,guess,neutral,5,right,15,guess_outcome,0,undefined,0,0,281,332750,1828689
22,20,female,Belg,3,122,ITC,neutral,5,right,15,ITC_start,378,space,0,0,281,332369,1829070
22,20,female,Belg,3,122,ITC,neutral,5,right,15,ITC_choice,864,f,0,0,281,331503,1829936
22,20,female,Belg,3,123,ITC,neutral,10,right,3,ITC_collect,384,k,0,0,296,325279,1836160
22,20,female,Belg,3,122,ITC,neutral,5,right,15,ITC_outcome,0,undefined,0,0,296,330133,1831306
22,20,female,Belg,3,122,ITC,neutral,5,right,15,ITC_collect,358,k,0,0,281,331139,1830300
22,20,female,Belg,3,123,guess,neutral,10,right,3,guess_choice,469,j,0,0,296,329215,1832224
22,20,female,Belg,3,123,guess,neutral,10,right,3,guess_outcome,0,undefined,0,0,296,327658,1833781
22,20,female,Belg,3,122,ITC,neutral,5,right,15,ITC_wait,0,undefined,0,0,281,331498,1829941
22,20,female,Belg,3,123,guess,neutral,10,right,3,guess_start,440,space,0,0,296,329690,1831749
22,20,female,Belg,3,123,ITC,neutral,10,right,3,ITC_choice,1485,f,0,0,296,325669,1835770
22,20,female,Belg,3,123,ITC,neutral,10,right,3,ITC_start,498,space,0,0,296,327156,1834283
22,20,female,Belg,3,124,guess,win,5,right,10,guess_start,385,space,0,0,299,323883,1837556
22,20,female,Belg,3,123,ITC,neutral,10,right,3,ITC_wait,0,undefined,0,0,296,325665,1835774
22,20,female,Belg,3,123,ITC,neutral,10,right,3,ITC_outcome,0,undefined,0,0,299,324270,1837169
22,20,female,Belg,3,124,guess,win,5,right,10,guess_choice,450,j,0,0,299,323428,1838011
22,20,female,Belg,3,124,ITC,win,5,right,10,ITC_start,414,space,0,0,319,321456,1839983
22,20,female,Belg,3,124,guess,win,5,right,10,guess_outcome,0,undefined,0,0,319,321873,1839566
22,20,female,Belg,3,124,ITC,win,5,right,10,ITC_choice,1255,f,0,0,319,320197,1841242
22,20,female,Belg,3,124,ITC,win,5,right,10,ITC_wait,0,undefined,0,0,319,320194,1841245
22,20,female,Belg,3,124,ITC,win,5,right,10,ITC_collect,305,k,0,0,319,319887,1841552
22,20,female,Belg,3,124,ITC,win,5,right,10,ITC_outcome,0,undefined,0,0,329,318877,1842562
22,20,female,Belg,3,125,guess,win,5,left,8,guess_start,470,space,0,0,329,318405,1843034
22,20,female,Belg,3,125,guess,win,5,left,8,guess_choice,729,j,0,0,329,317670,1843769
22,20,female,Belg,3,125,guess,win,5,left,8,guess_outcome,0,undefined,0,0,349,316110,1845329
22,20,female,Belg,3,125,ITC,win,5,left,8,ITC_start,376,space,0,0,349,315731,1845708
22,20,female,Belg,3,125,ITC,win,5,left,8,ITC_choice,1104,f,0,0,349,314624,1846815
22,20,female,Belg,3,125,ITC,win,5,left,8,ITC_wait,0,undefined,0,0,349,309618,1851821
22,20,female,Belg,3,125,ITC,win,5,left,8,ITC_collect,520,k,0,0,349,309095,1852344
22,20,female,Belg,3,125,ITC,win,5,left,8,ITC_outcome,0,undefined,0,0,369,308086,1853353
22,20,female,Belg,3,126,guess,loss,5,left,2,guess_start,349,space,0,0,369,307732,1853707
22,20,female,Belg,3,126,guess,loss,5,left,2,guess_choice,611,f,0,0,369,307117,1854322
22,20,female,Belg,3,126,guess,loss,5,left,2,guess_outcome,0,undefined,0,0,354,305556,1855883
22,20,female,Belg,3,126,ITC,loss,5,left,2,ITC_start,328,space,0,0,354,305224,1856215
22,20,female,Belg,3,126,ITC,loss,5,left,2,ITC_choice,970,f,0,0,354,304252,1857187
22,20,female,Belg,3,126,ITC,loss,5,left,2,ITC_wait,0,undefined,0,0,354,299244,1862195
22,20,female,Belg,3,126,ITC,loss,5,left,2,ITC_collect,371,k,0,0,354,298871,1862568
22,20,female,Belg,3,126,ITC,loss,5,left,2,ITC_outcome,0,undefined,0,0,374,297861,1863578
22,20,female,Belg,3,127,guess,loss,5,left,15,guess_start,290,space,0,0,374,297568,1863871
22,20,female,Belg,3,127,guess,loss,5,left,15,guess_choice,964,f,0,0,374,296599,1864840
22,20,female,Belg,3,127,guess,loss,5,left,15,guess_outcome,0,undefined,0,0,359,295040,1866399
22,20,female,Belg,3,127,ITC,loss,5,left,15,ITC_start,404,space,0,0,359,294634,1866805
22,20,female,Belg,3,127,ITC,loss,5,left,15,ITC_choice,689,j,0,0,359,293942,1867497
22,20,female,Belg,3,127,ITC,loss,5,left,15,ITC_wait,0,undefined,0,0,359,293940,1867499
22,20,female,Belg,3,127,ITC,loss,5,left,15,ITC_collect,380,k,0,0,359,293558,1867881
22,20,female,Belg,3,127,ITC,loss,5,left,15,ITC_outcome,0,undefined,0,0,374,292548,1868891
22,20,female,Belg,3,128,guess,neutral,5,right,4,guess_start,312,space,0,0,374,292233,1869206
22,20,female,Belg,3,128,guess,neutral,5,right,4,guess_choice,555,f,0,0,374,291672,1869767
22,20,female,Belg,3,128,guess,neutral,5,right,4,guess_outcome,0,undefined,0,0,374,290112,1871327
22,20,female,Belg,3,128,ITC,neutral,5,right,4,ITC_start,228,space,0,0,374,289882,1871557
22,20,female,Belg,3,128,ITC,neutral,5,right,4,ITC_choice,1495,j,0,0,374,288384,1873055
22,20,female,Belg,3,128,ITC,neutral,5,right,4,ITC_wait,0,undefined,0,0,374,283382,1878057
22,20,female,Belg,3,128,ITC,neutral,5,right,4,ITC_collect,613,k,0,0,374,282766,1878673
22,20,female,Belg,3,128,ITC,neutral,5,right,4,ITC_outcome,0,undefined,0,0,394,281755,1879684
22,20,female,Belg,3,129,guess,loss,5,right,8,guess_start,275,space,0,0,394,281478,1879961
22,20,female,Belg,3,129,guess,loss,5,right,8,guess_choice,625,f,0,0,394,280847,1880592
22,20,female,Belg,3,129,guess,loss,5,right,8,guess_outcome,0,undefined,0,0,379,279287,1882152
22,20,female,Belg,3,129,ITC,loss,5,right,8,ITC_start,647,space,0,0,379,278637,1882802
22,20,female,Belg,3,129,ITC,loss,5,right,8,ITC_choice,1131,j,0,0,379,277504,1883935
22,20,female,Belg,3,129,ITC,loss,5,right,8,ITC_wait,0,undefined,0,0,379,272501,1888938
22,20,female,Belg,3,129,ITC,loss,5,right,8,ITC_collect,386,k,0,0,379,272112,1889327
22,20,female,Belg,3,129,ITC,loss,5,right,8,ITC_outcome,0,undefined,0,0,399,271104,1890335
22,20,female,Belg,3,130,guess,neutral,10,right,8,guess_start,101,space,0,0,399,270999,1890440
22,20,female,Belg,3,130,guess,neutral,10,right,8,guess_choice,589,j,0,0,399,270404,1891035
22,20,female,Belg,3,130,guess,neutral,10,right,8,guess_outcome,0,undefined,0,0,399,268847,1892592
22,20,female,Belg,3,130,ITC,neutral,10,right,8,ITC_start,186,space,0,0,399,268657,1892782
22,20,female,Belg,3,130,ITC,neutral,10,right,8,ITC_choice,1153,f,0,0,399,267502,1893937
22,20,female,Belg,3,130,ITC,neutral,10,right,8,ITC_wait,0,undefined,0,0,399,267498,1893941
22,20,female,Belg,3,130,ITC,neutral,10,right,8,ITC_collect,310,k,0,0,399,267186,1894253
22,20,female,Belg,3,130,ITC,neutral,10,right,8,ITC_outcome,0,undefined,0,0,407,266176,1895263
22,20,female,Belg,3,131,guess,win,10,right,6,guess_start,363,space,0,0,407,265810,1895629
22,20,female,Belg,3,131,guess,win,10,right,6,guess_choice,477,j,0,0,407,265328,1896111
22,20,female,Belg,3,131,guess,win,10,right,6,guess_outcome,0,undefined,0,0,427,263770,1897669
22,20,female,Belg,3,131,ITC,win,10,right,6,ITC_start,404,space,0,0,427,263363,1898076
22,20,female,Belg,3,131,ITC,win,10,right,6,ITC_wait,0,undefined,0,0,427,262531,1898908
22,20,female,Belg,3,131,ITC,win,10,right,6,ITC_choice,826,f,0,0,427,262535,1898904
22,20,female,Belg,3,131,ITC,win,10,right,6,ITC_collect,285,k,0,0,427,262245,1899194
22,20,female,Belg,3,131,ITC,win,10,right,6,ITC_outcome,0,undefined,0,0,433,261234,1900205
22,20,female,Belg,3,132,guess,loss,5,left,1,guess_start,336,space,0,0,433,260895,1900544
22,20,female,Belg,3,132,guess,loss,5,left,1,guess_choice,517,j,0,0,433,260374,1901065
22,20,female,Belg,3,132,guess,loss,5,left,1,guess_outcome,0,undefined,0,0,418,258816,1902623
22,20,female,Belg,3,132,ITC,loss,5,left,1,ITC_start,420,space,0,0,418,258394,1903045
22,20,female,Belg,3,132,ITC,loss,5,left,1,ITC_choice,890,f,0,0,418,257502,1903937
22,20,female,Belg,3,132,ITC,loss,5,left,1,ITC_wait,0,undefined,0,0,418,252497,1908942
22,20,female,Belg,3,132,ITC,loss,5,left,1,ITC_collect,336,k,0,0,418,252159,1909280
22,20,female,Belg,3,132,ITC,loss,5,left,1,ITC_outcome,0,undefined,0,0,438,251148,1910291
22,20,female,Belg,3,133,guess,loss,5,left,12,guess_start,377,space,0,0,438,250768,1910671
22,20,female,Belg,3,133,guess,loss,5,left,12,guess_choice,510,f,0,0,438,250253,1911186
22,20,female,Belg,3,133,guess,loss,5,left,12,guess_outcome,0,undefined,0,0,423,248693,1912746
22,20,female,Belg,3,133,ITC,loss,5,left,12,ITC_start,346,space,0,0,423,248344,1913095
22,20,female,Belg,3,133,ITC,loss,5,left,12,ITC_choice,945,j,0,0,423,247397,1914042
22,20,female,Belg,3,133,ITC,loss,5,left,12,ITC_wait,0,undefined,0,0,423,247394,1914045
22,20,female,Belg,3,133,ITC,loss,5,left,12,ITC_collect,337,k,0,0,423,247056,1914383
22,20,female,Belg,3,133,ITC,loss,5,left,12,ITC_outcome,0,undefined,0,0,435,246050,1915389
22,20,female,Belg,3,134,guess,win,10,right,1,guess_start,402,space,0,0,435,245646,1915793
22,20,female,Belg,3,134,guess,win,10,right,1,guess_choice,492,j,0,0,435,245148,1916291
22,20,female,Belg,3,134,guess,win,10,right,1,guess_outcome,0,undefined,0,0,455,243592,1917847
22,20,female,Belg,3,134,ITC,win,10,right,1,ITC_start,535,space,0,0,455,243054,1918385
22,20,female,Belg,3,134,ITC,win,10,right,1,ITC_choice,1167,j,0,0,455,241884,1919555
22,20,female,Belg,3,134,ITC,win,10,right,1,ITC_wait,0,undefined,0,0,455,231877,1929562
22,20,female,Belg,3,134,ITC,win,10,right,1,ITC_collect,297,k,0,0,455,231576,1929863
22,20,female,Belg,3,134,ITC,win,10,right,1,ITC_outcome,0,undefined,0,0,475,230569,1930870
22,20,female,Belg,3,135,guess,neutral,5,left,3,guess_start,363,space,0,0,475,230203,1931236
22,20,female,Belg,3,135,guess,neutral,5,left,3,guess_choice,452,f,0,0,475,229745,1931694
22,20,female,Belg,3,135,guess,neutral,5,left,3,guess_outcome,0,undefined,0,0,475,228185,1933254
22,20,female,Belg,3,135,ITC,neutral,5,left,3,ITC_start,470,space,0,0,475,227713,1933726
22,20,female,Belg,3,135,ITC,neutral,5,left,3,ITC_choice,1478,f,0,0,475,226233,1935206
22,20,female,Belg,3,135,ITC,neutral,5,left,3,ITC_wait,0,undefined,0,0,475,221227,1940212
22,20,female,Belg,3,135,ITC,neutral,5,left,3,ITC_collect,433,k,0,0,475,220790,1940649
22,20,female,Belg,3,135,ITC,neutral,5,left,3,ITC_outcome,0,undefined,0,0,495,219782,1941657
22,20,female,Belg,3,136,guess,win,5,left,13,guess_start,1077,space,0,0,495,218702,1942737
22,20,female,Belg,3,136,guess,win,5,left,13,guess_choice,603,j,0,0,495,218093,1943346
22,20,female,Belg,3,136,guess,win,5,left,13,guess_outcome,0,undefined,0,0,515,216533,1944906
22,20,female,Belg,3,136,ITC,win,5,left,13,ITC_start,424,space,0,0,515,216107,1945332
22,20,female,Belg,3,136,ITC,win,5,left,13,ITC_choice,661,j,0,0,515,215444,1945995
22,20,female,Belg,3,136,ITC,win,5,left,13,ITC_wait,0,undefined,0,0,515,215440,1945999
22,20,female,Belg,3,136,ITC,win,5,left,13,ITC_collect,484,k,0,0,515,214955,1946484
22,20,female,Belg,3,136,ITC,win,5,left,13,ITC_outcome,0,undefined,0,0,528,213946,1947493
22,20,female,Belg,3,137,guess,neutral,5,left,11,guess_start,342,space,0,0,528,213602,1947837
22,20,female,Belg,3,137,guess,neutral,5,left,11,guess_choice,445,j,0,0,528,213151,1948288
22,20,female,Belg,3,137,guess,neutral,5,left,11,guess_outcome,0,undefined,0,0,528,211594,1949845
22,20,female,Belg,3,137,ITC,neutral,5,left,11,ITC_start,668,space,0,0,528,210923,1950516
22,20,female,Belg,3,137,ITC,neutral,5,left,11,ITC_wait,0,undefined,0,0,528,210205,1951234
22,20,female,Belg,3,137,ITC,neutral,5,left,11,ITC_choice,712,j,0,0,528,210209,1951230
22,20,female,Belg,3,137,ITC,neutral,5,left,11,ITC_collect,403,k,0,0,528,209802,1951637
22,20,female,Belg,3,137,ITC,neutral,5,left,11,ITC_outcome,0,undefined,0,0,539,208791,1952648
22,20,female,Belg,3,138,guess,loss,10,left,1,guess_start,365,space,0,0,539,208425,1953014
22,20,female,Belg,3,138,guess,loss,10,left,1,guess_choice,866,f,0,0,539,207553,1953886
22,20,female,Belg,3,138,guess,loss,10,left,1,guess_outcome,0,undefined,0,0,524,205994,1955445
22,20,female,Belg,3,138,ITC,loss,10,left,1,ITC_start,355,space,0,0,524,205636,1955803
22,20,female,Belg,3,138,ITC,loss,10,left,1,ITC_choice,864,f,0,0,524,204767,1956672
22,20,female,Belg,3,138,ITC,loss,10,left,1,ITC_wait,0,undefined,0,0,524,194760,1966679
22,20,female,Belg,3,138,ITC,loss,10,left,1,ITC_collect,1217,k,0,0,524,193542,1967897
22,20,female,Belg,3,138,ITC,loss,10,left,1,ITC_outcome,0,undefined,0,0,544,192535,1968904
22,20,female,Belg,3,139,guess,neutral,10,right,4,guess_start,148,space,0,0,544,192384,1969055
22,20,female,Belg,3,139,guess,neutral,10,right,4,guess_choice,556,f,0,0,544,191824,1969615
22,20,female,Belg,3,139,guess,neutral,10,right,4,guess_outcome,0,undefined,0,0,544,190263,1971176
22,20,female,Belg,3,139,ITC,neutral,10,right,4,ITC_start,335,space,0,0,544,189926,1971513
22,20,female,Belg,3,139,ITC,neutral,10,right,4,ITC_choice,1778,f,0,0,544,188145,1973294
22,20,female,Belg,3,139,ITC,neutral,10,right,4,ITC_wait,0,undefined,0,0,544,188141,1973298
22,20,female,Belg,3,139,ITC,neutral,10,right,4,ITC_collect,421,k,0,0,544,187719,1973720
22,20,female,Belg,3,139,ITC,neutral,10,right,4,ITC_outcome,0,undefined,0,0,548,186709,1974730
22,20,female,Belg,3,140,guess,neutral,5,right,14,guess_start,382,space,0,0,548,186323,1975116
22,20,female,Belg,3,140,guess,neutral,5,right,14,guess_choice,526,j,0,0,548,185792,1975647
22,20,female,Belg,3,140,guess,neutral,5,right,14,guess_outcome,0,undefined,0,0,548,184236,1977203
22,20,female,Belg,3,140,ITC,neutral,5,right,14,ITC_start,481,space,0,0,548,183752,1977687
22,20,female,Belg,3,140,ITC,neutral,5,right,14,ITC_wait,0,undefined,0,0,548,182735,1978704
22,20,female,Belg,3,140,ITC,neutral,5,right,14,ITC_choice,1011,f,0,0,548,182738,1978701
22,20,female,Belg,3,140,ITC,neutral,5,right,14,ITC_collect,287,k,0,0,548,182446,1978993
22,20,female,Belg,3,140,ITC,neutral,5,right,14,ITC_outcome,0,undefined,0,0,562,181437,1980002
22,20,female,Belg,3,141,guess,win,10,left,2,guess_start,269,space,0,0,562,181164,1980275
22,20,female,Belg,3,141,guess,win,10,left,2,guess_choice,651,j,0,0,562,180509,1980930
22,20,female,Belg,3,141,guess,win,10,left,2,guess_outcome,0,undefined,0,0,582,178949,1982490
22,20,female,Belg,3,141,ITC,win,10,left,2,ITC_start,562,space,0,0,582,178384,1983055
22,20,female,Belg,3,141,ITC,win,10,left,2,ITC_choice,1218,f,0,0,582,177163,1984276
22,20,female,Belg,3,141,ITC,win,10,left,2,ITC_wait,0,undefined,0,0,582,167158,1994281
22,20,female,Belg,3,141,ITC,win,10,left,2,ITC_collect,530,k,0,0,582,166626,1994813
22,20,female,Belg,3,141,ITC,win,10,left,2,ITC_outcome,0,undefined,0,0,602,165621,1995818
22,20,female,Belg,3,142,guess,loss,5,right,6,guess_start,328,space,0,0,602,165291,1996148
22,20,female,Belg,3,142,guess,loss,5,right,6,guess_choice,519,f,0,0,602,164766,1996673
22,20,female,Belg,3,142,guess,loss,5,right,6,guess_outcome,0,undefined,0,0,587,163206,1998233
22,20,female,Belg,3,142,ITC,loss,5,right,6,ITC_start,407,space,0,0,587,162796,1998643
22,20,female,Belg,3,142,ITC,loss,5,right,6,ITC_choice,1489,j,0,0,587,161307,2000132
22,20,female,Belg,3,142,ITC,loss,5,right,6,ITC_wait,0,undefined,0,0,587,156298,2005141
22,20,female,Belg,3,142,ITC,loss,5,right,6,ITC_collect,815,k,0,0,587,155482,2005957
22,20,female,Belg,3,142,ITC,loss,5,right,6,ITC_outcome,0,undefined,0,0,607,154471,2006968
22,20,female,Belg,3,143,guess,loss,10,right,6,guess_start,398,space,0,0,607,154070,2007369
22,20,female,Belg,3,143,guess,loss,10,right,6,guess_choice,537,j,0,0,607,153527,2007912
22,20,female,Belg,3,143,guess,loss,10,right,6,guess_outcome,0,undefined,0,0,592,151967,2009472
22,20,female,Belg,3,143,ITC,loss,10,right,6,ITC_start,423,space,0,0,592,151542,2009897
22,20,female,Belg,3,143,ITC,loss,10,right,6,ITC_choice,840,f,0,0,592,150699,2010740
22,20,female,Belg,3,143,ITC,loss,10,right,6,ITC_wait,0,undefined,0,0,592,150697,2010742
22,20,female,Belg,3,143,ITC,loss,10,right,6,ITC_collect,586,k,0,0,592,150109,2011330
22,20,female,Belg,3,143,ITC,loss,10,right,6,ITC_outcome,0,undefined,0,0,598,149101,2012338
22,20,female,Belg,3,144,guess,loss,10,left,8,guess_start,280,space,0,0,598,148819,2012620
22,20,female,Belg,3,144,guess,loss,10,left,8,guess_choice,832,j,0,0,598,147984,2013455
22,20,female,Belg,3,144,guess,loss,10,left,8,guess_outcome,0,undefined,0,0,583,146424,2015015
22,20,female,Belg,3,144,ITC,loss,10,left,8,ITC_start,324,space,0,0,583,146097,2015342
22,20,female,Belg,3,144,ITC,loss,10,left,8,ITC_choice,606,j,0,0,583,145489,2015950
22,20,female,Belg,3,144,ITC,loss,10,left,8,ITC_wait,0,undefined,0,0,583,145485,2015954
22,20,female,Belg,3,144,ITC,loss,10,left,8,ITC_collect,418,k,0,0,583,145066,2016373
