subjectID,age,gender,nationality,block_number,trial_number,trial_type,guess_outcome,delay_time,delay_pos,immediate_amount,stage,respRT,respKey,blur_count,focus_count,total_points,remaining_duration,time_elapsed
31,18,female,Belgian,1,1,guess,neutral,10,left,8,guess_start,1161,space,0,0,0,478836,169517
31,18,female,Belgian,1,1,guess,neutral,10,left,8,guess_choice,1426,f,0,0,0,477392,170961
31,18,female,Belgian,1,1,guess,neutral,10,left,8,guess_outcome,0,undefined,0,0,0,475828,172525
31,18,female,Belgian,1,1,ITC,neutral,10,left,8,ITC_start,1155,space,0,0,0,474668,173685
31,18,female,Belgian,1,1,ITC,neutral,10,left,8,ITC_choice,2066,f,0,0,0,472596,175757
31,18,female,Belgian,1,1,ITC,neutral,10,left,8,ITC_wait,0,undefined,0,0,0,462584,185769
31,18,female,Belgian,1,1,ITC,neutral,10,left,8,ITC_collect,1380,k,0,0,0,461199,187154
31,18,female,Belgian,1,1,ITC,neutral,10,left,8,ITC_outcome,0,undefined,0,0,20,460187,188166
31,18,female,Belgian,1,2,guess,neutral,10,left,2,guess_start,697,space,0,0,20,459480,188873
31,18,female,Belgian,1,2,guess,neutral,10,left,2,guess_choice,810,f,0,0,20,458660,189693
31,18,female,Belgian,1,2,guess,neutral,10,left,2,guess_outcome,0,undefined,0,0,20,457095,191258
31,18,female,Belgian,1,2,ITC,neutral,10,left,2,ITC_start,590,space,0,0,20,456500,191853
31,18,female,Belgian,1,2,ITC,neutral,10,left,2,ITC_choice,1601,f,0,0,20,454896,193457
31,18,female,Belgian,1,2,ITC,neutral,10,left,2,ITC_wait,0,undefined,0,0,20,444884,203469
31,18,female,Belgian,1,2,ITC,neutral,10,left,2,ITC_collect,865,k,0,0,20,444016,204337
31,18,female,Belgian,1,2,ITC,neutral,10,left,2,ITC_outcome,0,undefined,0,0,40,443002,205351
31,18,female,Belgian,1,3,guess,loss,5,left,15,guess_start,700,space,0,0,40,442292,206061
31,18,female,Belgian,1,3,guess,loss,5,left,15,guess_choice,1402,j,0,0,40,440872,207481
31,18,female,Belgian,1,3,guess,loss,5,left,15,guess_outcome,0,undefined,0,0,25,439306,209047
31,18,female,Belgian,1,3,ITC,loss,5,left,15,ITC_start,1067,space,0,0,25,438236,210117
31,18,female,Belgian,1,3,ITC,loss,5,left,15,ITC_choice,700,f,0,0,25,437532,210821
31,18,female,Belgian,1,3,ITC,loss,5,left,15,ITC_wait,0,undefined,0,0,25,432522,215831
31,18,female,Belgian,1,3,ITC,loss,5,left,15,ITC_collect,647,k,0,0,25,431872,216481
31,18,female,Belgian,1,3,ITC,loss,5,left,15,ITC_outcome,0,undefined,0,0,45,430858,217495
31,18,female,Belgian,1,4,guess,loss,5,left,10,guess_start,582,space,0,0,45,430272,218081
31,18,female,Belgian,1,4,guess,loss,5,left,10,guess_choice,1087,j,0,0,45,429176,219177
31,18,female,Belgian,1,4,guess,loss,5,left,10,guess_outcome,0,undefined,0,0,30,427615,220738
31,18,female,Belgian,1,4,ITC,loss,5,left,10,ITC_start,503,space,0,0,30,427108,221245
31,18,female,Belgian,1,4,ITC,loss,5,left,10,ITC_choice,548,f,0,0,30,426556,221797
31,18,female,Belgian,1,4,ITC,loss,5,left,10,ITC_wait,0,undefined,0,0,30,421545,226808
31,18,female,Belgian,1,4,ITC,loss,5,left,10,ITC_collect,641,k,0,0,30,420900,227453
31,18,female,Belgian,1,4,ITC,loss,5,left,10,ITC_outcome,0,undefined,0,0,50,419890,228463
31,18,female,Belgian,1,5,guess,win,5,right,11,guess_start,530,space,0,0,50,419357,228996
31,18,female,Belgian,1,5,guess,win,5,right,11,guess_choice,1535,j,0,0,50,417812,230541
31,18,female,Belgian,1,5,guess,win,5,right,11,guess_outcome,0,undefined,0,0,70,416253,232100
31,18,female,Belgian,1,5,ITC,win,5,right,11,ITC_start,441,space,0,0,70,415809,232544
31,18,female,Belgian,1,5,ITC,win,5,right,11,ITC_choice,2625,j,0,0,70,413180,235173
31,18,female,Belgian,1,5,ITC,win,5,right,11,ITC_wait,0,undefined,1,0,70,408172,240181
31,18,female,Belgian,1,5,ITC,win,5,right,11,ITC_collect,7420,k,0,1,70,400748,247605
31,18,female,Belgian,1,5,ITC,win,5,right,11,ITC_outcome,0,undefined,0,0,90,399735,248618
31,18,female,Belgian,1,6,guess,win,10,left,2,guess_start,843,space,0,0,90,398888,249465
31,18,female,Belgian,1,6,guess,win,10,left,2,guess_choice,1207,f,0,0,90,397672,250681
31,18,female,Belgian,1,6,guess,win,10,left,2,guess_outcome,0,undefined,0,0,110,396109,252244
31,18,female,Belgian,1,6,ITC,win,10,left,2,ITC_start,685,space,0,0,110,395420,252933
31,18,female,Belgian,1,6,ITC,win,10,left,2,ITC_choice,1693,f,0,0,110,393724,254629
31,18,female,Belgian,1,6,ITC,win,10,left,2,ITC_wait,0,undefined,0,0,110,383717,264636
31,18,female,Belgian,1,6,ITC,win,10,left,2,ITC_collect,1281,k,0,0,110,382432,265921
31,18,female,Belgian,1,6,ITC,win,10,left,2,ITC_outcome,0,undefined,0,0,130,381419,266934
31,18,female,Belgian,1,7,guess,neutral,5,right,1,guess_start,631,space,0,0,130,380785,267568
31,18,female,Belgian,1,7,guess,neutral,5,right,1,guess_choice,1222,j,0,0,130,379551,268802
31,18,female,Belgian,1,7,guess,neutral,5,right,1,guess_outcome,0,undefined,0,0,130,377985,270368
31,18,female,Belgian,1,7,ITC,neutral,5,right,1,ITC_start,653,space,0,0,130,377329,271024
31,18,female,Belgian,1,7,ITC,neutral,5,right,1,ITC_choice,2085,j,0,0,130,375240,273113
31,18,female,Belgian,1,7,ITC,neutral,5,right,1,ITC_wait,0,undefined,0,0,130,370230,278123
31,18,female,Belgian,1,7,ITC,neutral,5,right,1,ITC_collect,889,k,0,0,130,369336,279017
31,18,female,Belgian,1,7,ITC,neutral,5,right,1,ITC_outcome,0,undefined,0,0,150,368322,280031
31,18,female,Belgian,1,8,guess,loss,10,right,1,guess_start,581,space,0,0,150,367736,280617
31,18,female,Belgian,1,8,guess,loss,10,right,1,guess_choice,1009,f,0,0,150,366716,281637
31,18,female,Belgian,1,8,guess,loss,10,right,1,guess_outcome,0,undefined,0,0,135,365152,283201
31,18,female,Belgian,1,8,ITC,loss,10,right,1,ITC_start,684,space,0,0,135,364464,283889
31,18,female,Belgian,1,8,ITC,loss,10,right,1,ITC_choice,856,j,0,0,135,363604,284749
31,18,female,Belgian,1,8,ITC,loss,10,right,1,ITC_wait,0,undefined,0,0,135,353595,294758
31,18,female,Belgian,1,8,ITC,loss,10,right,1,ITC_collect,635,k,0,0,135,352956,295397
31,18,female,Belgian,1,8,ITC,loss,10,right,1,ITC_outcome,0,undefined,0,0,155,351946,296407
31,18,female,Belgian,1,9,guess,win,5,left,9,guess_start,677,space,0,0,155,351265,297088
31,18,female,Belgian,1,9,guess,win,5,left,9,guess_choice,1146,j,0,0,155,350108,298245
31,18,female,Belgian,1,9,guess,win,5,left,9,guess_outcome,0,undefined,0,0,175,348542,299811
31,18,female,Belgian,1,9,ITC,win,5,left,9,ITC_start,1242,space,0,0,175,347297,301056
31,18,female,Belgian,1,9,ITC,win,5,left,9,ITC_choice,1077,f,0,0,175,346216,302137
31,18,female,Belgian,1,9,ITC,win,5,left,9,ITC_wait,0,undefined,0,0,175,341207,307146
31,18,female,Belgian,1,9,ITC,win,5,left,9,ITC_collect,1907,k,0,0,175,339296,309057
31,18,female,Belgian,1,9,ITC,win,5,left,9,ITC_outcome,0,undefined,0,0,195,338285,310068
31,18,female,Belgian,1,10,guess,loss,5,left,11,guess_start,576,space,0,0,195,337704,310649
31,18,female,Belgian,1,10,guess,loss,5,left,11,guess_choice,1255,f,0,0,195,336438,311915
31,18,female,Belgian,1,10,guess,loss,5,left,11,guess_outcome,0,undefined,0,0,180,334869,313484
31,18,female,Belgian,1,10,ITC,loss,5,left,11,ITC_start,786,space,0,0,180,334080,314273
31,18,female,Belgian,1,10,ITC,loss,5,left,11,ITC_choice,791,f,0,0,180,333285,315068
31,18,female,Belgian,1,10,ITC,loss,5,left,11,ITC_wait,0,undefined,0,0,180,328280,320073
31,18,female,Belgian,1,10,ITC,loss,5,left,11,ITC_collect,1991,k,0,0,180,326284,322069
31,18,female,Belgian,1,10,ITC,loss,5,left,11,ITC_outcome,0,undefined,0,0,200,325270,323083
31,18,female,Belgian,1,11,guess,neutral,5,left,15,guess_start,497,space,0,0,200,324769,323584
31,18,female,Belgian,1,11,guess,neutral,5,left,15,guess_choice,1128,j,0,0,200,323628,324725
31,18,female,Belgian,1,11,guess,neutral,5,left,15,guess_outcome,0,undefined,0,0,200,322061,326292
31,18,female,Belgian,1,11,ITC,neutral,5,left,15,ITC_start,829,space,0,0,200,321228,327125
31,18,female,Belgian,1,11,ITC,neutral,5,left,15,ITC_choice,803,f,0,0,200,320421,327932
31,18,female,Belgian,1,11,ITC,neutral,5,left,15,ITC_wait,0,undefined,0,0,200,315416,332937
31,18,female,Belgian,1,11,ITC,neutral,5,left,15,ITC_collect,839,k,0,0,200,314572,333781
31,18,female,Belgian,1,11,ITC,neutral,5,left,15,ITC_outcome,0,undefined,0,0,220,313562,334791
31,18,female,Belgian,1,12,guess,loss,5,left,5,guess_start,421,space,0,0,220,313137,335216
31,18,female,Belgian,1,12,guess,loss,5,left,5,guess_choice,906,f,0,0,220,312220,336133
31,18,female,Belgian,1,12,guess,loss,5,left,5,guess_outcome,0,undefined,0,0,205,310655,337698
31,18,female,Belgian,1,12,ITC,loss,5,left,5,ITC_start,608,space,0,0,205,310044,338309
31,18,female,Belgian,1,12,ITC,loss,5,left,5,ITC_choice,644,f,0,0,205,309396,338957
31,18,female,Belgian,1,12,ITC,loss,5,left,5,ITC_wait,0,undefined,0,0,205,304389,343964
31,18,female,Belgian,1,12,ITC,loss,5,left,5,ITC_collect,829,k,0,0,205,303556,344797
31,18,female,Belgian,1,12,ITC,loss,5,left,5,ITC_outcome,0,undefined,0,0,225,302538,345815
31,18,female,Belgian,1,13,guess,neutral,5,left,6,guess_start,989,space,0,0,225,301544,346809
31,18,female,Belgian,1,13,guess,neutral,5,left,6,guess_choice,938,f,0,0,225,300596,347757
31,18,female,Belgian,1,13,guess,neutral,5,left,6,guess_outcome,0,undefined,0,0,225,299030,349323
31,18,female,Belgian,1,13,ITC,neutral,5,left,6,ITC_start,470,space,0,0,225,298556,349797
31,18,female,Belgian,1,13,ITC,neutral,5,left,6,ITC_choice,704,f,0,0,225,297848,350505
31,18,female,Belgian,1,13,ITC,neutral,5,left,6,ITC_wait,0,undefined,0,0,225,292843,355510
31,18,female,Belgian,1,13,ITC,neutral,5,left,6,ITC_collect,1268,k,0,0,225,291572,356781
31,18,female,Belgian,1,13,ITC,neutral,5,left,6,ITC_outcome,0,undefined,0,0,245,290559,357794
31,18,female,Belgian,1,14,guess,loss,5,left,7,guess_start,599,space,0,0,245,289957,358396
31,18,female,Belgian,1,14,guess,loss,5,left,7,guess_choice,1111,j,0,0,245,288835,359518
31,18,female,Belgian,1,14,guess,loss,5,left,7,guess_outcome,0,undefined,0,0,230,287269,361084
31,18,female,Belgian,1,14,ITC,loss,5,left,7,ITC_start,576,space,0,0,230,286689,361664
31,18,female,Belgian,1,14,ITC,loss,5,left,7,ITC_choice,1065,f,0,0,230,285620,362733
31,18,female,Belgian,1,14,ITC,loss,5,left,7,ITC_wait,0,undefined,0,0,230,280611,367742
31,18,female,Belgian,1,14,ITC,loss,5,left,7,ITC_collect,2438,k,0,0,230,278168,370185
31,18,female,Belgian,1,14,ITC,loss,5,left,7,ITC_outcome,0,undefined,0,0,250,277155,371198
31,18,female,Belgian,1,15,guess,neutral,5,right,16,guess_start,807,space,0,0,250,276345,372008
31,18,female,Belgian,1,15,guess,neutral,5,right,16,guess_choice,704,j,0,0,250,275632,372721
31,18,female,Belgian,1,15,guess,neutral,5,right,16,guess_outcome,0,undefined,0,0,250,274072,374281
31,18,female,Belgian,1,15,ITC,neutral,5,right,16,ITC_start,536,space,0,0,250,273533,374820
31,18,female,Belgian,1,15,ITC,neutral,5,right,16,ITC_choice,1045,j,0,0,250,272485,375868
31,18,female,Belgian,1,15,ITC,neutral,5,right,16,ITC_wait,0,undefined,0,0,250,267477,380876
31,18,female,Belgian,1,15,ITC,neutral,5,right,16,ITC_collect,581,k,0,0,250,266892,381461
31,18,female,Belgian,1,15,ITC,neutral,5,right,16,ITC_outcome,0,undefined,0,0,270,265886,382467
31,18,female,Belgian,1,16,guess,neutral,5,left,14,guess_start,526,space,0,0,270,265356,382997
31,18,female,Belgian,1,16,guess,neutral,5,left,14,guess_choice,740,j,0,0,270,264608,383745
31,18,female,Belgian,1,16,guess,neutral,5,left,14,guess_outcome,0,undefined,0,0,270,263049,385304
31,18,female,Belgian,1,16,ITC,neutral,5,left,14,ITC_start,485,space,0,0,270,262561,385792
31,18,female,Belgian,1,16,ITC,neutral,5,left,14,ITC_choice,1145,f,0,0,270,261413,386940
31,18,female,Belgian,1,16,ITC,neutral,5,left,14,ITC_wait,0,undefined,0,0,270,256407,391946
31,18,female,Belgian,1,16,ITC,neutral,5,left,14,ITC_collect,870,k,0,0,270,255532,392821
31,18,female,Belgian,1,16,ITC,neutral,5,left,14,ITC_outcome,0,undefined,0,0,290,254522,393831
31,18,female,Belgian,1,17,guess,loss,5,right,16,guess_start,513,space,0,0,290,254005,394348
31,18,female,Belgian,1,17,guess,loss,5,right,16,guess_choice,864,j,0,0,290,253133,395220
31,18,female,Belgian,1,17,guess,loss,5,right,16,guess_outcome,0,undefined,0,0,275,251568,396785
31,18,female,Belgian,1,17,ITC,loss,5,right,16,ITC_start,492,space,0,0,275,251072,397281
31,18,female,Belgian,1,17,ITC,loss,5,right,16,ITC_choice,723,j,0,0,275,250345,398008
31,18,female,Belgian,1,17,ITC,loss,5,right,16,ITC_collect,602,k,0,0,275,244724,403629
31,18,female,Belgian,1,17,ITC,loss,5,right,16,ITC_wait,0,undefined,0,0,275,245334,403019
31,18,female,Belgian,1,18,guess,win,5,left,2,guess_start,1644,space,0,0,295,242065,406288
31,18,female,Belgian,1,18,guess,win,5,left,2,guess_choice,660,f,0,0,295,241397,406956
31,18,female,Belgian,1,17,ITC,loss,5,right,16,ITC_outcome,0,undefined,0,0,295,243714,404639
31,18,female,Belgian,1,18,guess,win,5,left,2,guess_outcome,0,undefined,0,0,315,239836,408517
31,18,female,Belgian,1,18,ITC,win,5,left,2,ITC_start,634,space,0,0,315,239193,409160
31,18,female,Belgian,1,18,ITC,win,5,left,2,ITC_choice,737,f,0,0,315,238452,409901
31,18,female,Belgian,1,18,ITC,win,5,left,2,ITC_wait,0,undefined,0,0,315,233443,414910
31,18,female,Belgian,1,18,ITC,win,5,left,2,ITC_collect,911,k,0,0,315,232529,415824
31,18,female,Belgian,1,18,ITC,win,5,left,2,ITC_outcome,0,undefined,0,0,335,231521,416832
31,18,female,Belgian,1,19,guess,win,5,right,7,guess_start,679,space,0,0,335,230837,417516
31,18,female,Belgian,1,19,guess,win,5,right,7,guess_choice,612,j,0,0,335,230217,418136
31,18,female,Belgian,1,19,guess,win,5,right,7,guess_outcome,0,undefined,0,0,355,228655,419698
31,18,female,Belgian,1,19,ITC,win,5,right,7,ITC_start,669,space,0,0,355,227981,420372
31,18,female,Belgian,1,19,ITC,win,5,right,7,ITC_choice,1052,j,0,0,355,226925,421428
31,18,female,Belgian,1,19,ITC,win,5,right,7,ITC_wait,0,undefined,0,0,355,221915,426438
31,18,female,Belgian,1,19,ITC,win,5,right,7,ITC_collect,907,k,0,0,355,221004,427349
31,18,female,Belgian,1,19,ITC,win,5,right,7,ITC_outcome,0,undefined,0,0,375,219994,428359
31,18,female,Belgian,1,20,guess,loss,10,left,7,guess_start,621,space,0,0,375,219369,428984
31,18,female,Belgian,1,20,guess,loss,10,left,7,guess_choice,756,f,0,0,375,218604,429749
31,18,female,Belgian,1,20,guess,loss,10,left,7,guess_outcome,0,undefined,0,0,360,217046,431307
31,18,female,Belgian,1,20,ITC,loss,10,left,7,ITC_start,730,space,0,0,360,216313,432040
31,18,female,Belgian,1,20,ITC,loss,10,left,7,ITC_choice,841,f,0,0,360,215469,432884
31,18,female,Belgian,1,20,ITC,loss,10,left,7,ITC_wait,0,undefined,0,0,360,205461,442892
31,18,female,Belgian,1,20,ITC,loss,10,left,7,ITC_collect,684,k,0,0,360,204773,443580
31,18,female,Belgian,1,20,ITC,loss,10,left,7,ITC_outcome,0,undefined,0,0,380,203763,444590
31,18,female,Belgian,1,21,guess,neutral,10,left,5,guess_start,686,space,0,0,380,203073,445280
31,18,female,Belgian,1,21,guess,neutral,10,left,5,guess_choice,864,j,0,0,380,202201,446152
31,18,female,Belgian,1,21,guess,neutral,10,left,5,guess_outcome,0,undefined,0,0,380,200642,447711
31,18,female,Belgian,1,21,ITC,neutral,10,left,5,ITC_start,691,space,0,0,380,199949,448404
31,18,female,Belgian,1,21,ITC,neutral,10,left,5,ITC_choice,772,f,0,0,380,199172,449181
31,18,female,Belgian,1,21,ITC,neutral,10,left,5,ITC_wait,0,undefined,0,0,380,189162,459191
31,18,female,Belgian,1,21,ITC,neutral,10,left,5,ITC_collect,606,k,0,0,380,188553,459800
31,18,female,Belgian,1,21,ITC,neutral,10,left,5,ITC_outcome,0,undefined,0,0,400,187542,460811
31,18,female,Belgian,1,22,guess,loss,10,right,8,guess_start,629,space,0,0,400,186909,461444
31,18,female,Belgian,1,22,guess,loss,10,right,8,guess_choice,797,f,0,0,400,186105,462248
31,18,female,Belgian,1,22,guess,loss,10,right,8,guess_outcome,0,undefined,0,0,385,184545,463808
31,18,female,Belgian,1,22,ITC,loss,10,right,8,ITC_start,598,space,0,0,385,183945,464408
31,18,female,Belgian,1,22,ITC,loss,10,right,8,ITC_choice,715,j,0,0,385,183225,465128
31,18,female,Belgian,1,22,ITC,loss,10,right,8,ITC_wait,0,undefined,0,0,385,173219,475134
31,18,female,Belgian,1,22,ITC,loss,10,right,8,ITC_collect,674,k,0,0,385,172541,475812
31,18,female,Belgian,1,22,ITC,loss,10,right,8,ITC_outcome,0,undefined,0,0,405,171534,476819
31,18,female,Belgian,1,23,guess,win,5,right,10,guess_start,610,space,0,0,405,170920,477433
31,18,female,Belgian,1,23,guess,win,5,right,10,guess_choice,972,f,0,0,405,169939,478414
31,18,female,Belgian,1,23,guess,win,5,right,10,guess_outcome,0,undefined,0,0,425,168376,479977
31,18,female,Belgian,1,23,ITC,win,5,right,10,ITC_start,425,space,0,0,425,167948,480405
31,18,female,Belgian,1,23,ITC,win,5,right,10,ITC_choice,572,j,0,0,425,167372,480981
31,18,female,Belgian,1,23,ITC,win,5,right,10,ITC_wait,0,undefined,0,0,425,162367,485986
31,18,female,Belgian,1,23,ITC,win,5,right,10,ITC_collect,908,k,0,0,425,161455,486898
31,18,female,Belgian,1,23,ITC,win,5,right,10,ITC_outcome,0,undefined,0,0,445,160444,487909
31,18,female,Belgian,1,24,guess,loss,5,right,13,guess_start,548,space,0,0,445,159892,488461
31,18,female,Belgian,1,24,guess,loss,5,right,13,guess_choice,699,f,0,0,445,159183,489170
31,18,female,Belgian,1,24,guess,loss,5,right,13,guess_outcome,0,undefined,0,0,430,157624,490729
31,18,female,Belgian,1,24,ITC,loss,5,right,13,ITC_start,980,space,0,0,430,156640,491713
31,18,female,Belgian,1,24,ITC,loss,5,right,13,ITC_choice,744,j,0,0,430,155892,492461
31,18,female,Belgian,1,24,ITC,loss,5,right,13,ITC_wait,0,undefined,0,0,430,150881,497472
31,18,female,Belgian,1,24,ITC,loss,5,right,13,ITC_collect,3006,k,0,0,430,147871,500482
31,18,female,Belgian,1,24,ITC,loss,5,right,13,ITC_outcome,0,undefined,0,0,450,146862,501491
31,18,female,Belgian,1,25,guess,win,5,left,1,guess_start,714,space,0,0,450,146144,502209
31,18,female,Belgian,1,25,guess,win,5,left,1,guess_choice,814,j,0,0,450,145320,503033
31,18,female,Belgian,1,25,guess,win,5,left,1,guess_outcome,0,undefined,0,0,470,143759,504594
31,18,female,Belgian,1,25,ITC,win,5,left,1,ITC_start,2772,space,0,0,470,140984,507369
31,18,female,Belgian,1,25,ITC,win,5,left,1,ITC_choice,877,f,0,0,470,140100,508253
31,18,female,Belgian,1,25,ITC,win,5,left,1,ITC_wait,0,undefined,0,0,470,135091,513262
31,18,female,Belgian,1,25,ITC,win,5,left,1,ITC_collect,596,k,0,0,470,134492,513861
31,18,female,Belgian,1,25,ITC,win,5,left,1,ITC_outcome,0,undefined,0,0,490,133478,514875
31,18,female,Belgian,1,26,guess,win,5,left,12,guess_start,386,space,0,0,490,133088,515265
31,18,female,Belgian,1,26,guess,win,5,left,12,guess_choice,688,f,0,0,490,132392,515961
31,18,female,Belgian,1,26,guess,win,5,left,12,guess_outcome,0,undefined,0,0,510,130828,517525
31,18,female,Belgian,1,26,ITC,win,5,left,12,ITC_start,741,space,0,0,510,130084,518269
31,18,female,Belgian,1,26,ITC,win,5,left,12,ITC_choice,708,f,0,0,510,129372,518981
31,18,female,Belgian,1,26,ITC,win,5,left,12,ITC_wait,0,undefined,0,0,510,124363,523990
31,18,female,Belgian,1,26,ITC,win,5,left,12,ITC_collect,1063,k,0,0,510,123296,525057
31,18,female,Belgian,1,26,ITC,win,5,left,12,ITC_outcome,0,undefined,0,0,530,122282,526071
31,18,female,Belgian,1,27,guess,loss,10,right,3,guess_start,672,space,0,0,530,121604,526749
31,18,female,Belgian,1,27,guess,loss,10,right,3,guess_choice,758,j,0,0,530,120836,527517
31,18,female,Belgian,1,27,guess,loss,10,right,3,guess_outcome,0,undefined,0,0,515,119275,529078
31,18,female,Belgian,1,27,ITC,loss,10,right,3,ITC_start,587,space,0,0,515,118684,529669
31,18,female,Belgian,1,27,ITC,loss,10,right,3,ITC_choice,640,j,0,0,515,118040,530313
31,18,female,Belgian,1,27,ITC,loss,10,right,3,ITC_wait,0,undefined,0,0,515,108029,540324
31,18,female,Belgian,1,27,ITC,loss,10,right,3,ITC_collect,677,k,0,0,515,107348,541005
31,18,female,Belgian,1,27,ITC,loss,10,right,3,ITC_outcome,0,undefined,0,0,535,106341,542012
31,18,female,Belgian,1,28,guess,loss,10,left,5,guess_start,572,space,0,0,535,105765,542588
31,18,female,Belgian,1,28,guess,loss,10,left,5,guess_choice,876,j,0,0,535,104881,543472
31,18,female,Belgian,1,28,guess,loss,10,left,5,guess_outcome,0,undefined,0,0,520,103321,545032
31,18,female,Belgian,1,28,ITC,loss,10,left,5,ITC_start,713,space,0,0,520,102604,545749
31,18,female,Belgian,1,28,ITC,loss,10,left,5,ITC_choice,725,f,0,0,520,101873,546480
31,18,female,Belgian,1,28,ITC,loss,10,left,5,ITC_wait,0,undefined,0,0,520,91869,556484
31,18,female,Belgian,1,28,ITC,loss,10,left,5,ITC_collect,661,k,0,0,520,91204,557149
31,18,female,Belgian,1,28,ITC,loss,10,left,5,ITC_outcome,0,undefined,0,0,540,90197,558156
31,18,female,Belgian,1,29,guess,loss,5,right,4,guess_start,757,space,0,0,540,89436,558917
31,18,female,Belgian,1,29,guess,loss,5,right,4,guess_choice,923,j,0,0,540,88504,559849
31,18,female,Belgian,1,29,guess,loss,5,right,4,guess_outcome,0,undefined,0,0,525,86940,561413
31,18,female,Belgian,1,29,ITC,loss,5,right,4,ITC_start,712,space,0,0,525,86225,562128
31,18,female,Belgian,1,29,ITC,loss,5,right,4,ITC_choice,960,j,0,0,525,85261,563092
31,18,female,Belgian,1,29,ITC,loss,5,right,4,ITC_wait,0,undefined,0,0,525,80249,568104
31,18,female,Belgian,1,29,ITC,loss,5,right,4,ITC_collect,737,k,0,0,525,79508,568845
31,18,female,Belgian,1,29,ITC,loss,5,right,4,ITC_outcome,0,undefined,0,0,545,78493,569860
31,18,female,Belgian,1,30,guess,neutral,5,right,13,guess_start,631,space,0,0,545,77857,570496
31,18,female,Belgian,1,30,guess,neutral,5,right,13,guess_choice,883,j,0,0,545,76965,571388
31,18,female,Belgian,1,30,guess,neutral,5,right,13,guess_outcome,0,undefined,0,0,545,75398,572955
31,18,female,Belgian,1,30,ITC,neutral,5,right,13,ITC_start,472,space,0,0,545,74923,573430
31,18,female,Belgian,1,30,ITC,neutral,5,right,13,ITC_choice,765,j,0,0,545,74153,574200
31,18,female,Belgian,1,30,ITC,neutral,5,right,13,ITC_wait,0,undefined,0,0,545,69145,579208
31,18,female,Belgian,1,30,ITC,neutral,5,right,13,ITC_collect,657,k,0,0,545,68484,579869
31,18,female,Belgian,1,30,ITC,neutral,5,right,13,ITC_outcome,0,undefined,0,0,565,67475,580878
31,18,female,Belgian,1,31,guess,loss,5,left,14,guess_start,566,space,0,0,565,66905,581448
31,18,female,Belgian,1,31,guess,loss,5,left,14,guess_choice,1617,j,0,0,565,65281,583072
31,18,female,Belgian,1,31,guess,loss,5,left,14,guess_outcome,0,undefined,0,0,550,63719,584634
31,18,female,Belgian,1,31,ITC,loss,5,left,14,ITC_start,1271,space,0,0,550,62444,585909
31,18,female,Belgian,1,31,ITC,loss,5,left,14,ITC_choice,816,f,0,0,550,61625,586728
31,18,female,Belgian,1,31,ITC,loss,5,left,14,ITC_wait,0,undefined,0,0,550,56614,591739
31,18,female,Belgian,1,31,ITC,loss,5,left,14,ITC_collect,801,k,0,0,550,55808,592545
31,18,female,Belgian,1,31,ITC,loss,5,left,14,ITC_outcome,0,undefined,0,0,570,54797,593556
31,18,female,Belgian,1,32,guess,win,5,right,4,guess_start,406,space,0,0,570,54385,593968
31,18,female,Belgian,1,32,guess,win,5,right,4,guess_choice,736,j,0,0,570,53640,594713
31,18,female,Belgian,1,32,guess,win,5,right,4,guess_outcome,0,undefined,0,0,590,52075,596278
31,18,female,Belgian,1,32,ITC,win,5,right,4,ITC_start,787,space,0,0,590,51285,597068
31,18,female,Belgian,1,32,ITC,win,5,right,4,ITC_choice,656,j,0,0,590,50625,597728
31,18,female,Belgian,1,32,ITC,win,5,right,4,ITC_wait,0,undefined,0,0,590,45614,602739
31,18,female,Belgian,1,32,ITC,win,5,right,4,ITC_collect,1088,k,0,0,590,44521,603832
31,18,female,Belgian,1,32,ITC,win,5,right,4,ITC_outcome,0,undefined,0,0,610,43512,604841
31,18,female,Belgian,1,33,guess,loss,5,left,1,guess_start,315,space,0,0,610,43193,605160
31,18,female,Belgian,1,33,guess,loss,5,left,1,guess_choice,1660,f,0,0,610,41525,606828
31,18,female,Belgian,1,33,guess,loss,5,left,1,guess_outcome,0,undefined,0,0,595,39963,608390
31,18,female,Belgian,1,33,ITC,loss,5,left,1,ITC_start,667,space,0,0,595,39293,609060
31,18,female,Belgian,1,33,ITC,loss,5,left,1,ITC_choice,848,f,0,0,595,38441,609912
31,18,female,Belgian,1,33,ITC,loss,5,left,1,ITC_wait,0,undefined,0,0,595,33435,614918
31,18,female,Belgian,1,33,ITC,loss,5,left,1,ITC_collect,679,k,0,0,595,32752,615601
31,18,female,Belgian,1,33,ITC,loss,5,left,1,ITC_outcome,0,undefined,0,0,615,31745,616608
31,18,female,Belgian,1,34,guess,loss,5,left,6,guess_start,868,space,0,0,615,30873,617480
31,18,female,Belgian,1,34,guess,loss,5,left,6,guess_choice,717,j,0,0,615,30145,618208
31,18,female,Belgian,1,34,guess,loss,5,left,6,guess_outcome,0,undefined,0,0,600,28585,619768
31,18,female,Belgian,1,34,ITC,loss,5,left,6,ITC_start,1137,space,0,0,600,27445,620908
31,18,female,Belgian,1,34,ITC,loss,5,left,6,ITC_choice,745,f,0,0,600,26697,621656
31,18,female,Belgian,1,34,ITC,loss,5,left,6,ITC_wait,0,undefined,0,0,600,21690,626663
31,18,female,Belgian,1,34,ITC,loss,5,left,6,ITC_collect,677,k,0,0,600,21008,627345
31,18,female,Belgian,1,34,ITC,loss,5,left,6,ITC_outcome,0,undefined,0,0,620,20000,628353
31,18,female,Belgian,1,35,guess,neutral,10,right,3,guess_start,751,space,0,0,620,19245,629108
31,18,female,Belgian,1,35,guess,neutral,10,right,3,guess_choice,863,f,0,0,620,18373,629980
31,18,female,Belgian,1,35,guess,neutral,10,right,3,guess_outcome,0,undefined,0,0,620,16811,631542
31,18,female,Belgian,1,35,ITC,neutral,10,right,3,ITC_start,419,space,0,0,620,16389,631964
31,18,female,Belgian,1,35,ITC,neutral,10,right,3,ITC_choice,792,j,0,0,620,15593,632760
31,18,female,Belgian,1,35,ITC,neutral,10,right,3,ITC_wait,0,undefined,0,0,620,5583,642770
31,18,female,Belgian,1,35,ITC,neutral,10,right,3,ITC_collect,1038,k,0,0,620,4541,643812
31,18,female,Belgian,1,35,ITC,neutral,10,right,3,ITC_outcome,0,undefined,0,0,640,3532,644821
31,18,female,Belgian,1,36,guess,win,5,right,5,guess_start,771,space,0,0,640,2757,645596
31,18,female,Belgian,1,36,guess,win,5,right,5,guess_choice,860,f,0,0,640,1889,646464
31,18,female,Belgian,1,36,guess,win,5,right,5,guess_outcome,0,undefined,0,0,660,326,648027
31,18,female,Belgian,1,36,ITC,win,5,right,5,ITC_start,0,undefined,0,0,660,-4,648357
31,18,female,Belgian,2,37,guess,win,10,right,5,guess_start,1500,space,0,0,0,478497,794305
31,18,female,Belgian,2,37,guess,win,10,right,5,guess_choice,1070,j,0,0,0,477417,795385
31,18,female,Belgian,2,37,guess,win,10,right,5,guess_outcome,0,undefined,0,0,20,475856,796946
31,18,female,Belgian,2,37,ITC,win,10,right,5,ITC_start,1195,space,0,0,20,474657,798145
31,18,female,Belgian,2,37,ITC,win,10,right,5,ITC_choice,1095,j,0,0,20,473557,799245
31,18,female,Belgian,2,37,ITC,win,10,right,5,ITC_wait,0,undefined,0,0,20,463547,809255
31,18,female,Belgian,2,37,ITC,win,10,right,5,ITC_collect,1463,k,0,0,20,462081,810721
31,18,female,Belgian,2,37,ITC,win,10,right,5,ITC_outcome,0,undefined,0,0,40,461069,811733
31,18,female,Belgian,2,38,guess,win,5,right,14,guess_start,671,space,0,0,40,460394,812408
31,18,female,Belgian,2,38,guess,win,5,right,14,guess_choice,624,j,0,0,40,459761,813041
31,18,female,Belgian,2,38,guess,win,5,right,14,guess_outcome,0,undefined,0,0,60,458200,814602
31,18,female,Belgian,2,38,ITC,win,5,right,14,ITC_start,1011,space,0,0,60,457185,815617
31,18,female,Belgian,2,38,ITC,win,5,right,14,ITC_choice,612,j,0,0,60,456569,816233
31,18,female,Belgian,2,38,ITC,win,5,right,14,ITC_wait,0,undefined,0,0,60,451561,821241
31,18,female,Belgian,2,38,ITC,win,5,right,14,ITC_collect,1052,k,0,0,60,450505,822297
31,18,female,Belgian,2,38,ITC,win,5,right,14,ITC_outcome,0,undefined,0,0,80,449494,823308
31,18,female,Belgian,2,39,guess,win,5,right,8,guess_start,521,space,0,0,80,448969,823833
31,18,female,Belgian,2,39,guess,win,5,right,8,guess_choice,806,f,0,0,80,448153,824649
31,18,female,Belgian,2,39,guess,win,5,right,8,guess_outcome,0,undefined,0,0,100,446590,826212
31,18,female,Belgian,2,39,ITC,win,5,right,8,ITC_start,399,space,0,0,100,446185,826617
31,18,female,Belgian,2,39,ITC,win,5,right,8,ITC_choice,492,j,0,0,100,445689,827113
31,18,female,Belgian,2,39,ITC,win,5,right,8,ITC_wait,0,undefined,0,0,100,440679,832123
31,18,female,Belgian,2,39,ITC,win,5,right,8,ITC_collect,634,k,0,0,100,440041,832761
31,18,female,Belgian,2,39,ITC,win,5,right,8,ITC_outcome,0,undefined,0,0,120,439033,833769
31,18,female,Belgian,2,40,guess,win,5,right,3,guess_start,444,space,0,0,120,438585,834217
31,18,female,Belgian,2,40,guess,win,5,right,3,guess_choice,406,f,0,0,120,438169,834633
31,18,female,Belgian,2,40,guess,win,5,right,3,guess_outcome,0,undefined,0,0,140,436607,836195
31,18,female,Belgian,2,40,ITC,win,5,right,3,ITC_start,559,space,0,0,140,436045,836757
31,18,female,Belgian,2,40,ITC,win,5,right,3,ITC_choice,853,j,0,0,140,435189,837613
31,18,female,Belgian,2,40,ITC,win,5,right,3,ITC_wait,0,undefined,0,0,140,430181,842621
31,18,female,Belgian,2,40,ITC,win,5,right,3,ITC_collect,424,k,0,0,140,429754,843048
31,18,female,Belgian,2,40,ITC,win,5,right,3,ITC_outcome,0,undefined,0,0,160,428742,844060
31,18,female,Belgian,2,41,guess,neutral,5,right,11,guess_start,556,space,0,0,160,428181,844621
31,18,female,Belgian,2,41,guess,neutral,5,right,11,guess_choice,1068,j,0,0,160,427105,845697
31,18,female,Belgian,2,41,guess,neutral,5,right,11,guess_outcome,0,undefined,0,0,160,425540,847262
31,18,female,Belgian,2,41,ITC,neutral,5,right,11,ITC_start,395,space,0,0,160,425141,847661
31,18,female,Belgian,2,41,ITC,neutral,5,right,11,ITC_choice,756,j,0,0,160,424381,848421
31,18,female,Belgian,2,41,ITC,neutral,5,right,11,ITC_wait,0,undefined,0,0,160,419369,853433
31,18,female,Belgian,2,41,ITC,neutral,5,right,11,ITC_collect,703,k,0,0,160,418662,854140
31,18,female,Belgian,2,41,ITC,neutral,5,right,11,ITC_outcome,0,undefined,0,0,180,417650,855152
31,18,female,Belgian,2,42,guess,win,5,right,15,guess_start,347,space,0,0,180,417298,855504
31,18,female,Belgian,2,42,guess,win,5,right,15,guess_choice,431,f,0,0,180,416858,855944
31,18,female,Belgian,2,42,guess,win,5,right,15,guess_outcome,0,undefined,0,0,200,415296,857506
31,18,female,Belgian,2,42,ITC,win,5,right,15,ITC_start,651,space,0,0,200,414642,858160
31,18,female,Belgian,2,42,ITC,win,5,right,15,ITC_choice,512,j,0,0,200,414126,858676
31,18,female,Belgian,2,42,ITC,win,5,right,15,ITC_wait,0,undefined,0,0,200,409121,863681
31,18,female,Belgian,2,42,ITC,win,5,right,15,ITC_collect,696,k,0,0,200,408422,864380
31,18,female,Belgian,2,42,ITC,win,5,right,15,ITC_outcome,0,undefined,0,0,220,407409,865393
31,18,female,Belgian,2,43,guess,win,5,left,13,guess_start,694,space,0,0,220,406710,866092
31,18,female,Belgian,2,43,guess,win,5,left,13,guess_choice,450,j,0,0,220,406250,866552
31,18,female,Belgian,2,43,guess,win,5,left,13,guess_outcome,0,undefined,0,0,240,404687,868115
31,18,female,Belgian,2,43,ITC,win,5,left,13,ITC_start,1870,space,0,0,240,402814,869988
31,18,female,Belgian,2,43,ITC,win,5,left,13,ITC_choice,732,f,0,0,240,402078,870724
31,18,female,Belgian,2,43,ITC,win,5,left,13,ITC_wait,0,undefined,0,0,240,397073,875729
31,18,female,Belgian,2,43,ITC,win,5,left,13,ITC_collect,1046,k,0,0,240,396022,876780
31,18,female,Belgian,2,43,ITC,win,5,left,13,ITC_outcome,0,undefined,0,0,260,395009,877793
31,18,female,Belgian,2,44,guess,neutral,5,left,10,guess_start,379,space,0,0,260,394626,878176
31,18,female,Belgian,2,44,guess,neutral,5,left,10,guess_choice,606,f,0,0,260,394010,878792
31,18,female,Belgian,2,44,guess,neutral,5,left,10,guess_outcome,0,undefined,0,0,260,392444,880358
31,18,female,Belgian,2,44,ITC,neutral,5,left,10,ITC_start,526,space,0,0,260,391914,880888
31,18,female,Belgian,2,44,ITC,neutral,5,left,10,ITC_choice,1369,f,0,0,260,390542,882260
31,18,female,Belgian,2,44,ITC,neutral,5,left,10,ITC_wait,0,undefined,0,0,260,385530,887272
31,18,female,Belgian,2,44,ITC,neutral,5,left,10,ITC_collect,2869,k,0,0,260,382658,890144
31,18,female,Belgian,2,44,ITC,neutral,5,left,10,ITC_outcome,0,undefined,0,0,280,381646,891156
31,18,female,Belgian,2,45,guess,neutral,5,right,9,guess_start,415,space,0,0,280,381226,891576
31,18,female,Belgian,2,45,guess,neutral,5,right,9,guess_choice,933,j,0,0,280,380282,892520
31,18,female,Belgian,2,45,guess,neutral,5,right,9,guess_outcome,0,undefined,0,0,280,378722,894080
31,18,female,Belgian,2,45,ITC,neutral,5,right,9,ITC_start,2540,space,0,0,280,376178,896624
31,18,female,Belgian,2,45,ITC,neutral,5,right,9,ITC_choice,965,j,0,0,280,375210,897592
31,18,female,Belgian,2,45,ITC,neutral,5,right,9,ITC_wait,0,undefined,0,0,280,370202,902600
31,18,female,Belgian,2,45,ITC,neutral,5,right,9,ITC_collect,1912,k,0,0,280,368286,904516
31,18,female,Belgian,2,45,ITC,neutral,5,right,9,ITC_outcome,0,undefined,0,0,300,367277,905525
31,18,female,Belgian,2,46,guess,loss,10,right,2,guess_start,4474,space,0,0,300,362798,910004
31,18,female,Belgian,2,46,guess,loss,10,right,2,guess_choice,1118,f,0,0,300,361670,911132
31,18,female,Belgian,2,46,guess,loss,10,right,2,guess_outcome,0,undefined,0,0,285,360110,912692
31,18,female,Belgian,2,46,ITC,loss,10,right,2,ITC_start,393,space,0,0,285,359714,913088
31,18,female,Belgian,2,46,ITC,loss,10,right,2,ITC_choice,512,j,0,0,285,359198,913604
31,18,female,Belgian,2,46,ITC,loss,10,right,2,ITC_wait,0,undefined,0,0,285,349189,923613
31,18,female,Belgian,2,46,ITC,loss,10,right,2,ITC_collect,968,k,0,0,285,348218,924584
31,18,female,Belgian,2,46,ITC,loss,10,right,2,ITC_outcome,0,undefined,0,0,305,347207,925595
31,18,female,Belgian,2,47,guess,loss,5,left,8,guess_start,629,space,0,0,305,346574,926228
31,18,female,Belgian,2,47,guess,loss,5,left,8,guess_choice,1179,j,0,0,305,345386,927416
31,18,female,Belgian,2,47,guess,loss,5,left,8,guess_outcome,0,undefined,0,0,290,343819,928983
31,18,female,Belgian,2,47,ITC,loss,5,left,8,ITC_start,650,space,0,0,290,343166,929636
31,18,female,Belgian,2,47,ITC,loss,5,left,8,ITC_choice,1348,f,0,0,290,341814,930988
31,18,female,Belgian,2,47,ITC,loss,5,left,8,ITC_wait,0,undefined,0,0,290,336806,935996
31,18,female,Belgian,2,47,ITC,loss,5,left,8,ITC_collect,1613,k,0,0,290,335190,937612
31,18,female,Belgian,2,47,ITC,loss,5,left,8,ITC_outcome,0,undefined,0,0,310,334179,938623
31,18,female,Belgian,2,48,guess,neutral,5,right,7,guess_start,549,space,0,0,310,333626,939176
31,18,female,Belgian,2,48,guess,neutral,5,right,7,guess_choice,706,j,0,0,310,332910,939892
31,18,female,Belgian,2,48,guess,neutral,5,right,7,guess_outcome,0,undefined,0,0,310,331350,941452
31,18,female,Belgian,2,48,ITC,neutral,5,right,7,ITC_start,805,space,0,0,310,330542,942260
31,18,female,Belgian,2,48,ITC,neutral,5,right,7,ITC_choice,832,j,0,0,310,329706,943096
31,18,female,Belgian,2,48,ITC,neutral,5,right,7,ITC_wait,0,undefined,0,0,310,324698,948104
31,18,female,Belgian,2,48,ITC,neutral,5,right,7,ITC_collect,960,k,0,0,310,323734,949068
31,18,female,Belgian,2,48,ITC,neutral,5,right,7,ITC_outcome,0,undefined,0,0,330,322726,950076
31,18,female,Belgian,2,49,guess,loss,10,right,6,guess_start,908,space,0,0,330,321814,950988
31,18,female,Belgian,2,49,guess,loss,10,right,6,guess_choice,1154,f,0,0,330,320650,952152
31,18,female,Belgian,2,49,guess,loss,10,right,6,guess_outcome,0,undefined,0,0,315,319086,953716
31,18,female,Belgian,2,49,ITC,loss,10,right,6,ITC_start,745,space,0,0,315,318338,954464
31,18,female,Belgian,2,49,ITC,loss,10,right,6,ITC_choice,648,j,0,0,315,317686,955116
31,18,female,Belgian,2,49,ITC,loss,10,right,6,ITC_wait,0,undefined,0,0,315,307679,965123
31,18,female,Belgian,2,49,ITC,loss,10,right,6,ITC_collect,1034,k,0,0,315,306641,966161
31,18,female,Belgian,2,49,ITC,loss,10,right,6,ITC_outcome,0,undefined,0,0,335,305628,967174
31,18,female,Belgian,2,50,guess,loss,5,right,9,guess_start,1285,space,0,0,335,304338,968464
31,18,female,Belgian,2,50,guess,loss,5,right,9,guess_choice,843,j,0,0,335,303486,969316
31,18,female,Belgian,2,50,guess,loss,5,right,9,guess_outcome,0,undefined,0,0,320,301926,970876
31,18,female,Belgian,2,50,ITC,loss,5,right,9,ITC_start,952,space,0,0,320,300970,971832
31,18,female,Belgian,2,50,ITC,loss,5,right,9,ITC_choice,1060,j,0,0,320,299906,972896
31,18,female,Belgian,2,50,ITC,loss,5,right,9,ITC_wait,0,undefined,0,0,320,294900,977902
31,18,female,Belgian,2,50,ITC,loss,5,right,9,ITC_collect,1342,k,0,0,320,293554,979248
31,18,female,Belgian,2,50,ITC,loss,5,right,9,ITC_outcome,0,undefined,0,0,340,292543,980259
31,18,female,Belgian,2,51,guess,neutral,5,left,5,guess_start,2232,space,0,0,340,290306,982496
31,18,female,Belgian,2,51,guess,neutral,5,left,5,guess_choice,1039,j,0,0,340,289258,983544
31,18,female,Belgian,2,51,guess,neutral,5,left,5,guess_outcome,0,undefined,0,0,340,287694,985108
31,18,female,Belgian,2,51,ITC,neutral,5,left,5,ITC_start,996,space,0,0,340,286694,986108
31,18,female,Belgian,2,51,ITC,neutral,5,left,5,ITC_choice,936,f,0,0,340,285754,987048
31,18,female,Belgian,2,51,ITC,neutral,5,left,5,ITC_wait,0,undefined,0,0,340,280748,992054
31,18,female,Belgian,2,51,ITC,neutral,5,left,5,ITC_collect,2823,k,0,0,340,277922,994880
31,18,female,Belgian,2,51,ITC,neutral,5,left,5,ITC_outcome,0,undefined,0,0,360,276909,995893
31,18,female,Belgian,2,52,guess,loss,5,right,3,guess_start,295,space,0,0,360,276610,996192
31,18,female,Belgian,2,52,guess,loss,5,right,3,guess_choice,831,f,0,0,360,275770,997032
31,18,female,Belgian,2,52,guess,loss,5,right,3,guess_outcome,0,undefined,0,0,345,274205,998597
31,18,female,Belgian,2,52,ITC,loss,5,right,3,ITC_start,3011,space,0,0,345,271191,1001611
31,18,female,Belgian,2,52,ITC,loss,5,right,3,ITC_choice,936,j,0,0,345,270250,1002552
31,18,female,Belgian,2,52,ITC,loss,5,right,3,ITC_wait,0,undefined,0,0,345,265245,1007557
31,18,female,Belgian,2,52,ITC,loss,5,right,3,ITC_collect,1683,k,0,0,345,263558,1009244
31,18,female,Belgian,2,52,ITC,loss,5,right,3,ITC_outcome,0,undefined,0,0,365,262543,1010259
31,18,female,Belgian,2,53,guess,neutral,10,right,7,guess_start,777,space,0,0,365,261762,1011040
31,18,female,Belgian,2,53,guess,neutral,10,right,7,guess_choice,882,j,0,0,365,260870,1011932
31,18,female,Belgian,2,53,guess,neutral,10,right,7,guess_outcome,0,undefined,0,0,365,259307,1013495
31,18,female,Belgian,2,53,ITC,neutral,10,right,7,ITC_start,1018,space,0,0,365,258287,1014515
31,18,female,Belgian,2,53,ITC,neutral,10,right,7,ITC_choice,892,j,0,0,365,257391,1015411
31,18,female,Belgian,2,53,ITC,neutral,10,right,7,ITC_wait,0,undefined,0,0,365,247383,1025419
31,18,female,Belgian,2,53,ITC,neutral,10,right,7,ITC_collect,745,k,0,0,365,246634,1026168
31,18,female,Belgian,2,53,ITC,neutral,10,right,7,ITC_outcome,0,undefined,0,0,385,245624,1027178
31,18,female,Belgian,2,54,guess,neutral,10,left,1,guess_start,637,space,0,0,385,244982,1027820
31,18,female,Belgian,2,54,guess,neutral,10,left,1,guess_choice,978,j,0,0,385,243994,1028808
31,18,female,Belgian,2,54,guess,neutral,10,left,1,guess_outcome,0,undefined,0,0,385,242431,1030371
31,18,female,Belgian,2,54,ITC,neutral,10,left,1,ITC_start,609,space,0,0,385,241818,1030984
31,18,female,Belgian,2,54,ITC,neutral,10,left,1,ITC_choice,660,f,0,0,385,241155,1031647
31,18,female,Belgian,2,54,ITC,neutral,10,left,1,ITC_wait,0,undefined,0,0,385,231150,1041652
31,18,female,Belgian,2,54,ITC,neutral,10,left,1,ITC_collect,876,k,0,0,385,230270,1042532
31,18,female,Belgian,2,54,ITC,neutral,10,left,1,ITC_outcome,0,undefined,0,0,405,229258,1043544
31,18,female,Belgian,2,55,guess,win,10,right,8,guess_start,784,space,0,0,405,228470,1044332
31,18,female,Belgian,2,55,guess,win,10,right,8,guess_choice,895,j,0,0,405,227562,1045240
31,18,female,Belgian,2,55,guess,win,10,right,8,guess_outcome,0,undefined,0,0,425,226001,1046801
31,18,female,Belgian,2,55,ITC,win,10,right,8,ITC_start,459,space,0,0,425,225538,1047264
31,18,female,Belgian,2,55,ITC,win,10,right,8,ITC_choice,644,j,0,0,425,224890,1047912
31,18,female,Belgian,2,55,ITC,win,10,right,8,ITC_wait,0,undefined,0,0,425,214885,1057917
31,18,female,Belgian,2,55,ITC,win,10,right,8,ITC_collect,650,k,0,0,425,214230,1058572
31,18,female,Belgian,2,55,ITC,win,10,right,8,ITC_outcome,0,undefined,0,0,445,213216,1059586
31,18,female,Belgian,2,56,guess,loss,5,left,12,guess_start,621,space,0,0,445,212591,1060211
31,18,female,Belgian,2,56,guess,loss,5,left,12,guess_choice,667,f,0,0,445,211914,1060888
31,18,female,Belgian,2,56,guess,loss,5,left,12,guess_outcome,0,undefined,0,0,430,210328,1062474
31,18,female,Belgian,2,56,ITC,loss,5,left,12,ITC_start,566,space,0,0,430,209759,1063043
31,18,female,Belgian,2,56,ITC,loss,5,left,12,ITC_choice,620,f,0,0,430,209135,1063667
31,18,female,Belgian,2,56,ITC,loss,5,left,12,ITC_wait,0,undefined,0,0,430,204128,1068674
31,18,female,Belgian,2,56,ITC,loss,5,left,12,ITC_collect,1082,k,0,0,430,203042,1069760
31,18,female,Belgian,2,56,ITC,loss,5,left,12,ITC_outcome,0,undefined,0,0,450,202034,1070768
31,18,female,Belgian,2,57,guess,neutral,5,right,3,guess_start,494,space,0,0,450,201535,1071267
31,18,female,Belgian,2,57,guess,neutral,5,right,3,guess_choice,769,j,0,0,450,200758,1072044
31,18,female,Belgian,2,57,guess,neutral,5,right,3,guess_outcome,0,undefined,0,0,450,199198,1073604
31,18,female,Belgian,2,57,ITC,neutral,5,right,3,ITC_start,785,space,0,0,450,198411,1074391
31,18,female,Belgian,2,57,ITC,neutral,5,right,3,ITC_choice,905,j,0,0,450,197502,1075300
31,18,female,Belgian,2,57,ITC,neutral,5,right,3,ITC_wait,0,undefined,0,0,450,192496,1080306
31,18,female,Belgian,2,57,ITC,neutral,5,right,3,ITC_collect,3685,k,0,0,450,188806,1083996
31,18,female,Belgian,2,57,ITC,neutral,5,right,3,ITC_outcome,0,undefined,0,0,470,187793,1085009
31,18,female,Belgian,2,58,guess,neutral,10,right,6,guess_start,694,space,0,0,470,187095,1085707
31,18,female,Belgian,2,58,guess,neutral,10,right,6,guess_choice,1044,f,0,0,470,186042,1086760
31,18,female,Belgian,2,58,guess,neutral,10,right,6,guess_outcome,0,undefined,0,0,470,184477,1088325
31,18,female,Belgian,2,58,ITC,neutral,10,right,6,ITC_start,3639,space,0,0,470,180835,1091967
31,18,female,Belgian,2,58,ITC,neutral,10,right,6,ITC_choice,1021,j,0,0,470,179810,1092992
31,18,female,Belgian,2,58,ITC,neutral,10,right,6,ITC_wait,0,undefined,0,0,470,169801,1103001
31,18,female,Belgian,2,58,ITC,neutral,10,right,6,ITC_collect,772,k,0,0,470,169026,1103776
31,18,female,Belgian,2,58,ITC,neutral,10,right,6,ITC_outcome,0,undefined,0,0,490,168020,1104782
31,18,female,Belgian,2,59,guess,neutral,5,left,4,guess_start,1504,space,0,0,490,166511,1106291
31,18,female,Belgian,2,59,guess,neutral,5,left,4,guess_choice,864,j,0,0,490,165638,1107164
31,18,female,Belgian,2,59,guess,neutral,5,left,4,guess_outcome,0,undefined,0,0,490,164077,1108725
31,18,female,Belgian,2,59,ITC,neutral,5,left,4,ITC_start,1535,space,0,0,490,162539,1110263
31,18,female,Belgian,2,59,ITC,neutral,5,left,4,ITC_choice,925,f,0,0,490,161611,1111191
31,18,female,Belgian,2,59,ITC,neutral,5,left,4,ITC_wait,0,undefined,0,0,490,156605,1116197
31,18,female,Belgian,2,59,ITC,neutral,5,left,4,ITC_collect,895,k,0,0,490,155706,1117096
31,18,female,Belgian,2,59,ITC,neutral,5,left,4,ITC_outcome,0,undefined,0,0,510,154700,1118102
31,18,female,Belgian,2,60,guess,win,10,right,4,guess_start,1973,space,0,0,510,152723,1120079
31,18,female,Belgian,2,60,guess,win,10,right,4,guess_choice,1219,f,0,0,510,151494,1121308
31,18,female,Belgian,2,60,guess,win,10,right,4,guess_outcome,0,undefined,0,0,530,149936,1122866
31,18,female,Belgian,2,60,ITC,win,10,right,4,ITC_start,779,space,0,0,530,149155,1123647
31,18,female,Belgian,2,60,ITC,win,10,right,4,ITC_choice,737,j,0,0,530,148415,1124387
31,18,female,Belgian,2,60,ITC,win,10,right,4,ITC_wait,0,undefined,0,0,530,138410,1134392
31,18,female,Belgian,2,60,ITC,win,10,right,4,ITC_collect,613,k,0,0,530,137794,1135008
31,18,female,Belgian,2,60,ITC,win,10,right,4,ITC_outcome,0,undefined,0,0,550,136782,1136020
31,18,female,Belgian,2,61,guess,win,10,right,1,guess_start,1056,space,0,0,550,135722,1137080
31,18,female,Belgian,2,61,guess,win,10,right,1,guess_choice,711,f,0,0,550,135002,1137800
31,18,female,Belgian,2,61,guess,win,10,right,1,guess_outcome,0,undefined,0,0,570,133440,1139362
31,18,female,Belgian,2,61,ITC,win,10,right,1,ITC_start,3288,space,0,0,570,130147,1142655
31,18,female,Belgian,2,61,ITC,win,10,right,1,ITC_choice,994,j,0,0,570,129146,1143656
31,18,female,Belgian,2,61,ITC,win,10,right,1,ITC_wait,0,undefined,0,0,570,119139,1153663
31,18,female,Belgian,2,61,ITC,win,10,right,1,ITC_collect,2804,k,0,0,570,116331,1156471
31,18,female,Belgian,2,61,ITC,win,10,right,1,ITC_outcome,0,undefined,0,0,590,115318,1157484
31,18,female,Belgian,2,62,guess,neutral,5,right,12,guess_start,1327,space,0,0,590,113987,1158815
31,18,female,Belgian,2,62,guess,neutral,5,right,12,guess_choice,1036,f,0,0,590,112942,1159860
31,18,female,Belgian,2,62,guess,neutral,5,right,12,guess_outcome,0,undefined,0,0,590,111383,1161419
31,18,female,Belgian,2,62,ITC,neutral,5,right,12,ITC_start,1766,space,0,0,590,109615,1163187
31,18,female,Belgian,2,62,ITC,neutral,5,right,12,ITC_choice,905,j,0,0,590,108707,1164095
31,18,female,Belgian,2,62,ITC,neutral,5,right,12,ITC_wait,0,undefined,0,0,590,103699,1169103
31,18,female,Belgian,2,62,ITC,neutral,5,right,12,ITC_collect,1841,k,0,0,590,101855,1170947
31,18,female,Belgian,2,62,ITC,neutral,5,right,12,ITC_outcome,0,undefined,0,0,610,100848,1171954
31,18,female,Belgian,2,63,guess,win,10,left,3,guess_start,1569,space,0,0,610,99275,1173527
31,18,female,Belgian,2,63,guess,win,10,left,3,guess_choice,1028,f,0,0,610,98239,1174563
31,18,female,Belgian,2,63,guess,win,10,left,3,guess_outcome,0,undefined,0,0,630,96678,1176124
31,18,female,Belgian,2,63,ITC,win,10,left,3,ITC_start,2219,space,0,0,630,94455,1178347
31,18,female,Belgian,2,63,ITC,win,10,left,3,ITC_choice,988,f,0,0,630,93463,1179339
31,18,female,Belgian,2,63,ITC,win,10,left,3,ITC_wait,0,undefined,0,0,630,83457,1189345
31,18,female,Belgian,2,63,ITC,win,10,left,3,ITC_collect,7130,k,0,0,630,76323,1196479
31,18,female,Belgian,2,63,ITC,win,10,left,3,ITC_outcome,0,undefined,0,0,650,75313,1197489
31,18,female,Belgian,2,64,guess,loss,10,right,4,guess_start,3683,space,0,0,650,71627,1201175
31,18,female,Belgian,2,64,guess,loss,10,right,4,guess_choice,1443,j,0,0,650,70175,1202627
31,18,female,Belgian,2,64,guess,loss,10,right,4,guess_outcome,0,undefined,0,0,635,68611,1204191
31,18,female,Belgian,2,64,ITC,loss,10,right,4,ITC_start,3569,space,0,0,635,65039,1207763
31,18,female,Belgian,2,64,ITC,loss,10,right,4,ITC_choice,992,j,0,0,635,64043,1208759
31,18,female,Belgian,2,64,ITC,loss,10,right,4,ITC_wait,0,undefined,0,0,635,54032,1218770
31,18,female,Belgian,2,64,ITC,loss,10,right,4,ITC_collect,1922,k,0,0,635,52107,1220695
31,18,female,Belgian,2,64,ITC,loss,10,right,4,ITC_outcome,0,undefined,0,0,655,51099,1221703
31,18,female,Belgian,2,65,guess,win,10,right,6,guess_start,355,space,0,0,655,50738,1222064
31,18,female,Belgian,2,65,guess,win,10,right,6,guess_choice,995,f,0,0,655,49735,1223067
31,18,female,Belgian,2,65,guess,win,10,right,6,guess_outcome,0,undefined,0,0,675,48172,1224630
31,18,female,Belgian,2,65,ITC,win,10,right,6,ITC_start,1673,space,0,0,675,46495,1226307
31,18,female,Belgian,2,65,ITC,win,10,right,6,ITC_choice,859,j,0,0,675,45631,1227171
31,18,female,Belgian,2,65,ITC,win,10,right,6,ITC_wait,0,undefined,0,0,675,35620,1237182
31,18,female,Belgian,2,65,ITC,win,10,right,6,ITC_collect,1346,k,0,0,675,34271,1238531
31,18,female,Belgian,2,65,ITC,win,10,right,6,ITC_outcome,0,undefined,0,0,695,33262,1239540
31,18,female,Belgian,2,66,guess,neutral,5,right,8,guess_start,959,space,0,0,695,32299,1240503
31,18,female,Belgian,2,66,guess,neutral,5,right,8,guess_choice,978,j,0,0,695,31310,1241492
31,18,female,Belgian,2,66,guess,neutral,5,right,8,guess_outcome,0,undefined,0,0,695,29745,1243057
31,18,female,Belgian,2,66,ITC,neutral,5,right,8,ITC_start,623,space,0,0,695,29119,1243683
31,18,female,Belgian,2,66,ITC,neutral,5,right,8,ITC_choice,1221,j,0,0,695,27895,1244907
31,18,female,Belgian,2,66,ITC,neutral,5,right,8,ITC_wait,0,undefined,0,0,695,22887,1249915
31,18,female,Belgian,2,66,ITC,neutral,5,right,8,ITC_collect,1401,k,0,0,695,21482,1251320
31,18,female,Belgian,2,66,ITC,neutral,5,right,8,ITC_outcome,0,undefined,0,0,715,20472,1252330
31,18,female,Belgian,2,67,guess,loss,5,right,2,guess_start,693,space,0,0,715,19775,1253027
31,18,female,Belgian,2,67,guess,loss,5,right,2,guess_choice,1156,j,0,0,715,18610,1254192
31,18,female,Belgian,2,67,guess,loss,5,right,2,guess_outcome,0,undefined,0,0,700,17045,1255757
31,18,female,Belgian,2,67,ITC,loss,5,right,2,ITC_start,1011,space,0,0,700,16031,1256771
31,18,female,Belgian,2,67,ITC,loss,5,right,2,ITC_choice,1157,j,0,0,700,14871,1257931
31,18,female,Belgian,2,67,ITC,loss,5,right,2,ITC_wait,0,undefined,0,0,700,9867,1262935
31,18,female,Belgian,2,67,ITC,loss,5,right,2,ITC_collect,3298,k,0,0,700,6566,1266236
31,18,female,Belgian,2,67,ITC,loss,5,right,2,ITC_outcome,0,undefined,0,0,720,5556,1267246
31,18,female,Belgian,2,68,guess,win,5,right,16,guess_start,2036,space,0,0,720,3515,1269287
31,18,female,Belgian,2,68,guess,win,5,right,16,guess_choice,772,j,0,0,720,2735,1270067
31,18,female,Belgian,2,68,guess,win,5,right,16,guess_outcome,0,undefined,0,0,740,1175,1271627
31,18,female,Belgian,2,68,ITC,win,5,right,16,ITC_start,755,space,0,0,740,415,1272387
31,18,female,Belgian,2,68,ITC,win,5,right,16,ITC_choice,0,undefined,0,0,740,-4,1272806
31,18,female,Belgian,3,69,guess,win,5,right,6,guess_start,430,space,0,0,0,479567,1281899
31,18,female,Belgian,3,69,guess,win,5,right,6,guess_choice,488,j,0,0,0,479071,1282395
31,18,female,Belgian,3,69,guess,win,5,right,6,guess_outcome,0,undefined,0,0,20,477511,1283955
31,18,female,Belgian,3,69,ITC,win,5,right,6,ITC_start,1261,space,0,0,20,476247,1285219
31,18,female,Belgian,3,69,ITC,win,5,right,6,ITC_choice,997,j,0,0,20,475247,1286219
31,18,female,Belgian,3,69,ITC,win,5,right,6,ITC_wait,0,undefined,0,0,20,470242,1291224
31,18,female,Belgian,3,69,ITC,win,5,right,6,ITC_collect,1339,k,0,0,20,468899,1292567
31,18,female,Belgian,3,69,ITC,win,5,right,6,ITC_outcome,0,undefined,0,0,40,467890,1293576
31,18,female,Belgian,3,70,guess,neutral,5,left,2,guess_start,616,space,0,0,40,467270,1294196
31,18,female,Belgian,3,70,guess,neutral,5,left,2,guess_choice,790,j,0,0,40,466470,1294996
31,18,female,Belgian,3,70,guess,neutral,5,left,2,guess_outcome,0,undefined,0,0,40,464908,1296558
31,18,female,Belgian,3,70,ITC,neutral,5,left,2,ITC_start,1010,space,0,0,40,463895,1297571
31,18,female,Belgian,3,70,ITC,neutral,5,left,2,ITC_choice,1513,f,0,0,40,462379,1299087
31,18,female,Belgian,3,70,ITC,neutral,5,left,2,ITC_wait,0,undefined,0,0,40,457369,1304097
31,18,female,Belgian,3,70,ITC,neutral,5,left,2,ITC_collect,843,k,0,0,40,456522,1304944
31,18,female,Belgian,3,70,ITC,neutral,5,left,2,ITC_outcome,0,undefined,0,0,60,455510,1305956
31,18,female,Belgian,3,71,guess,win,10,left,7,guess_start,796,space,0,0,60,454711,1306755
31,18,female,Belgian,3,71,guess,win,10,left,7,guess_choice,764,j,0,0,60,453939,1307527
31,18,female,Belgian,3,71,guess,win,10,left,7,guess_outcome,0,undefined,0,0,80,452376,1309090
31,18,female,Belgian,3,71,ITC,win,10,left,7,ITC_start,1014,space,0,0,80,451359,1310107
31,18,female,Belgian,3,71,ITC,win,10,left,7,ITC_choice,1152,f,0,0,80,450203,1311263
31,18,female,Belgian,3,71,ITC,win,10,left,7,ITC_wait,0,undefined,0,0,80,440194,1321272
31,18,female,Belgian,3,71,ITC,win,10,left,7,ITC_collect,651,k,0,0,80,439539,1321927
31,18,female,Belgian,3,71,ITC,win,10,left,7,ITC_outcome,0,undefined,0,0,100,438526,1322940
31,18,female,Belgian,3,72,guess,neutral,10,left,4,guess_start,2446,space,0,0,100,436075,1325391
31,18,female,Belgian,3,72,guess,neutral,10,left,4,guess_choice,1021,j,0,0,100,435043,1326423
31,18,female,Belgian,3,72,guess,neutral,10,left,4,guess_outcome,0,undefined,0,0,100,433480,1327986
31,18,female,Belgian,3,72,ITC,neutral,10,left,4,ITC_start,2822,space,0,0,100,430655,1330811
31,18,female,Belgian,3,72,ITC,neutral,10,left,4,ITC_choice,1041,f,0,0,100,429611,1331855
31,18,female,Belgian,3,72,ITC,neutral,10,left,4,ITC_wait,0,undefined,0,0,100,419603,1341863
31,18,female,Belgian,3,72,ITC,neutral,10,left,4,ITC_collect,947,k,0,0,100,418651,1342815
31,18,female,Belgian,3,72,ITC,neutral,10,left,4,ITC_outcome,0,undefined,0,0,120,417633,1343833
31,18,female,Belgian,3,73,guess,neutral,5,right,13,guess_start,775,space,0,0,120,416847,1344619
31,18,female,Belgian,3,73,guess,neutral,5,right,13,guess_choice,947,f,0,0,120,415890,1345576
31,18,female,Belgian,3,73,guess,neutral,5,right,13,guess_outcome,0,undefined,0,0,120,414320,1347146
31,18,female,Belgian,3,73,ITC,neutral,5,right,13,ITC_start,489,space,0,0,120,413823,1347643
31,18,female,Belgian,3,73,ITC,neutral,5,right,13,ITC_choice,1272,j,0,0,120,412547,1348919
31,18,female,Belgian,3,73,ITC,neutral,5,right,13,ITC_wait,0,undefined,0,0,120,407540,1353926
31,18,female,Belgian,3,73,ITC,neutral,5,right,13,ITC_collect,2620,k,0,0,120,404909,1356557
31,18,female,Belgian,3,73,ITC,neutral,5,right,13,ITC_outcome,0,undefined,0,0,140,403895,1357571
31,18,female,Belgian,3,74,guess,neutral,5,right,16,guess_start,1170,space,0,0,140,402719,1358747
31,18,female,Belgian,3,74,guess,neutral,5,right,16,guess_choice,873,f,0,0,140,401834,1359632
31,18,female,Belgian,3,74,guess,neutral,5,right,16,guess_outcome,0,undefined,0,0,140,400265,1361201
31,18,female,Belgian,3,74,ITC,neutral,5,right,16,ITC_start,402,space,0,0,140,399859,1361607
31,18,female,Belgian,3,74,ITC,neutral,5,right,16,ITC_choice,1223,j,0,0,140,398631,1362835
31,18,female,Belgian,3,74,ITC,neutral,5,right,16,ITC_wait,0,undefined,0,0,140,393623,1367843
31,18,female,Belgian,3,74,ITC,neutral,5,right,16,ITC_collect,1484,k,0,0,140,392135,1369331
31,18,female,Belgian,3,74,ITC,neutral,5,right,16,ITC_outcome,0,undefined,0,0,160,391126,1370340
31,18,female,Belgian,3,75,guess,win,5,right,16,guess_start,623,space,0,0,160,390499,1370967
31,18,female,Belgian,3,75,guess,win,5,right,16,guess_choice,873,j,0,0,160,389614,1371852
31,18,female,Belgian,3,75,guess,win,5,right,16,guess_outcome,0,undefined,0,0,180,388048,1373418
31,18,female,Belgian,3,75,ITC,win,5,right,16,ITC_start,565,space,0,0,180,387479,1373987
31,18,female,Belgian,3,75,ITC,win,5,right,16,ITC_choice,671,j,0,0,180,386803,1374663
31,18,female,Belgian,3,75,ITC,win,5,right,16,ITC_wait,0,undefined,0,0,180,381794,1379672
31,18,female,Belgian,3,75,ITC,win,5,right,16,ITC_collect,1784,k,0,0,180,380006,1381460
31,18,female,Belgian,3,75,ITC,win,5,right,16,ITC_outcome,0,undefined,0,0,200,378996,1382470
31,18,female,Belgian,3,76,guess,neutral,5,left,4,guess_start,549,space,0,0,200,378443,1383023
31,18,female,Belgian,3,76,guess,neutral,5,left,4,guess_choice,1375,j,0,0,200,377059,1384407
31,18,female,Belgian,3,76,guess,neutral,5,left,4,guess_outcome,0,undefined,0,0,200,375497,1385969
31,18,female,Belgian,3,76,ITC,neutral,5,left,4,ITC_start,566,space,0,0,200,374927,1386539
31,18,female,Belgian,3,76,ITC,neutral,5,left,4,ITC_choice,1000,f,0,0,200,373923,1387543
31,18,female,Belgian,3,76,ITC,neutral,5,left,4,ITC_wait,0,undefined,0,0,200,368913,1392553
31,18,female,Belgian,3,76,ITC,neutral,5,left,4,ITC_collect,1810,k,0,0,200,367099,1394367
31,18,female,Belgian,3,76,ITC,neutral,5,left,4,ITC_outcome,0,undefined,0,0,220,366090,1395376
31,18,female,Belgian,3,77,guess,win,10,right,8,guess_start,531,space,0,0,220,365555,1395911
31,18,female,Belgian,3,77,guess,win,10,right,8,guess_choice,511,j,0,0,220,365035,1396431
31,18,female,Belgian,3,77,guess,win,10,right,8,guess_outcome,0,undefined,0,0,240,363475,1397991
31,18,female,Belgian,3,77,ITC,win,10,right,8,ITC_start,609,space,0,0,240,362863,1398603
31,18,female,Belgian,3,77,ITC,win,10,right,8,ITC_choice,619,j,0,0,240,362239,1399227
31,18,female,Belgian,3,77,ITC,win,10,right,8,ITC_wait,0,undefined,0,0,240,352232,1409234
31,18,female,Belgian,3,77,ITC,win,10,right,8,ITC_collect,1261,k,0,0,240,350967,1410499
31,18,female,Belgian,3,77,ITC,win,10,right,8,ITC_outcome,0,undefined,0,0,260,349955,1411511
31,18,female,Belgian,3,78,guess,neutral,10,left,1,guess_start,507,space,0,0,260,349443,1412023
31,18,female,Belgian,3,78,guess,neutral,10,left,1,guess_choice,639,j,0,0,260,348795,1412671
31,18,female,Belgian,3,78,guess,neutral,10,left,1,guess_outcome,0,undefined,0,0,260,347229,1414237
31,18,female,Belgian,3,78,ITC,neutral,10,left,1,ITC_start,567,space,0,0,260,346659,1414807
31,18,female,Belgian,3,78,ITC,neutral,10,left,1,ITC_choice,1145,f,0,0,260,345511,1415955
31,18,female,Belgian,3,78,ITC,neutral,10,left,1,ITC_wait,0,undefined,0,0,260,335503,1425963
31,18,female,Belgian,3,78,ITC,neutral,10,left,1,ITC_collect,2228,k,0,0,260,333271,1428195
31,18,female,Belgian,3,78,ITC,neutral,10,left,1,ITC_outcome,0,undefined,0,0,280,332259,1429207
31,18,female,Belgian,3,79,guess,loss,5,right,4,guess_start,587,space,0,0,280,331667,1429799
31,18,female,Belgian,3,79,guess,loss,5,right,4,guess_choice,635,j,0,0,280,331018,1430448
31,18,female,Belgian,3,79,guess,loss,5,right,4,guess_outcome,0,undefined,0,0,265,329456,1432010
31,18,female,Belgian,3,79,ITC,loss,5,right,4,ITC_start,556,space,0,0,265,328894,1432572
31,18,female,Belgian,3,79,ITC,loss,5,right,4,ITC_choice,1686,j,0,0,265,327203,1434263
31,18,female,Belgian,3,79,ITC,loss,5,right,4,ITC_wait,0,undefined,0,0,265,322196,1439270
31,18,female,Belgian,3,79,ITC,loss,5,right,4,ITC_collect,748,k,0,0,265,321443,1440023
31,18,female,Belgian,3,79,ITC,loss,5,right,4,ITC_outcome,0,undefined,0,0,285,320431,1441035
31,18,female,Belgian,3,80,guess,win,5,left,6,guess_start,555,space,0,0,285,319863,1441603
31,18,female,Belgian,3,80,guess,win,5,left,6,guess_choice,639,j,0,0,285,319215,1442251
31,18,female,Belgian,3,80,guess,win,5,left,6,guess_outcome,0,undefined,0,0,305,317650,1443816
31,18,female,Belgian,3,80,ITC,win,5,left,6,ITC_start,938,space,0,0,305,316707,1444759
31,18,female,Belgian,3,80,ITC,win,5,left,6,ITC_choice,2312,f,0,0,305,314391,1447075
31,18,female,Belgian,3,80,ITC,win,5,left,6,ITC_wait,0,undefined,0,0,305,309383,1452083
31,18,female,Belgian,3,80,ITC,win,5,left,6,ITC_collect,572,k,0,0,305,308803,1452663
31,18,female,Belgian,3,80,ITC,win,5,left,6,ITC_outcome,0,undefined,0,0,325,307793,1453673
31,18,female,Belgian,3,81,guess,loss,10,left,6,guess_start,913,space,0,0,325,306875,1454591
31,18,female,Belgian,3,81,guess,loss,10,left,6,guess_choice,697,j,0,0,325,306167,1455299
31,18,female,Belgian,3,81,guess,loss,10,left,6,guess_outcome,0,undefined,0,0,310,304604,1456862
31,18,female,Belgian,3,81,ITC,loss,10,left,6,ITC_start,1611,space,0,0,310,302987,1458479
31,18,female,Belgian,3,81,ITC,loss,10,left,6,ITC_choice,636,f,0,0,310,302347,1459119
31,18,female,Belgian,3,81,ITC,loss,10,left,6,ITC_wait,0,undefined,0,0,310,292336,1469130
31,18,female,Belgian,3,81,ITC,loss,10,left,6,ITC_collect,539,k,0,0,310,291791,1469675
31,18,female,Belgian,3,81,ITC,loss,10,left,6,ITC_outcome,0,undefined,0,0,330,290777,1470689
31,18,female,Belgian,3,82,guess,win,10,right,4,guess_start,541,space,0,0,330,290232,1471234
31,18,female,Belgian,3,82,guess,win,10,right,4,guess_choice,563,j,0,0,330,289660,1471806
31,18,female,Belgian,3,82,guess,win,10,right,4,guess_outcome,0,undefined,0,0,350,288097,1473369
31,18,female,Belgian,3,82,ITC,win,10,right,4,ITC_start,682,space,0,0,350,287412,1474054
31,18,female,Belgian,3,82,ITC,win,10,right,4,ITC_choice,856,j,0,0,350,286552,1474914
31,18,female,Belgian,3,82,ITC,win,10,right,4,ITC_wait,0,undefined,0,0,350,276545,1484921
31,18,female,Belgian,3,82,ITC,win,10,right,4,ITC_collect,632,k,0,0,350,275907,1485559
31,18,female,Belgian,3,82,ITC,win,10,right,4,ITC_outcome,0,undefined,0,0,370,274897,1486569
31,18,female,Belgian,3,83,guess,loss,5,right,15,guess_start,877,space,0,0,370,274016,1487450
31,18,female,Belgian,3,83,guess,loss,5,right,15,guess_choice,601,j,0,0,370,273404,1488062
31,18,female,Belgian,3,83,guess,loss,5,right,15,guess_outcome,0,undefined,0,0,355,271841,1489625
31,18,female,Belgian,3,83,ITC,loss,5,right,15,ITC_start,685,space,0,0,355,271152,1490314
31,18,female,Belgian,3,83,ITC,loss,5,right,15,ITC_choice,1920,f,0,0,355,269228,1492238
31,18,female,Belgian,3,83,ITC,loss,5,right,15,ITC_wait,0,undefined,0,0,355,269221,1492245
31,18,female,Belgian,3,83,ITC,loss,5,right,15,ITC_collect,2339,k,0,0,355,266876,1494590
31,18,female,Belgian,3,83,ITC,loss,5,right,15,ITC_outcome,0,undefined,0,0,370,265864,1495602
31,18,female,Belgian,3,84,guess,loss,5,left,8,guess_start,631,space,0,0,370,265227,1496239
31,18,female,Belgian,3,84,guess,loss,5,left,8,guess_choice,1235,j,0,0,370,263974,1497492
31,18,female,Belgian,3,84,guess,loss,5,left,8,guess_outcome,0,undefined,0,0,355,262411,1499055
31,18,female,Belgian,3,84,ITC,loss,5,left,8,ITC_start,552,space,0,0,355,261856,1499610
31,18,female,Belgian,3,84,ITC,loss,5,left,8,ITC_choice,1080,f,0,0,355,260771,1500695
31,18,female,Belgian,3,84,ITC,loss,5,left,8,ITC_wait,0,undefined,0,0,355,255760,1505706
31,18,female,Belgian,3,84,ITC,loss,5,left,8,ITC_collect,1293,k,0,0,355,254463,1507003
31,18,female,Belgian,3,84,ITC,loss,5,left,8,ITC_outcome,0,undefined,0,0,375,253454,1508012
31,18,female,Belgian,3,85,guess,loss,5,right,3,guess_start,2290,space,0,0,375,251158,1510308
31,18,female,Belgian,3,85,guess,loss,5,right,3,guess_choice,3604,j,0,0,375,247540,1513926
31,18,female,Belgian,3,85,guess,loss,5,right,3,guess_outcome,0,undefined,0,0,360,245975,1515491
31,18,female,Belgian,3,85,ITC,loss,5,right,3,ITC_start,619,space,0,0,360,245339,1516127
31,18,female,Belgian,3,85,ITC,loss,5,right,3,ITC_choice,1011,j,0,0,360,244324,1517142
31,18,female,Belgian,3,85,ITC,loss,5,right,3,ITC_wait,0,undefined,0,0,360,239318,1522148
31,18,female,Belgian,3,85,ITC,loss,5,right,3,ITC_collect,1164,k,0,0,360,238148,1523318
31,18,female,Belgian,3,85,ITC,loss,5,right,3,ITC_outcome,0,undefined,0,0,380,237133,1524333
31,18,female,Belgian,3,86,guess,win,5,left,15,guess_start,469,space,0,0,380,236660,1524806
31,18,female,Belgian,3,86,guess,win,5,left,15,guess_choice,792,f,0,0,380,235860,1525606
31,18,female,Belgian,3,86,guess,win,5,left,15,guess_outcome,0,undefined,0,0,400,234299,1527167
31,18,female,Belgian,3,86,ITC,win,5,left,15,ITC_start,820,space,0,0,400,233476,1527990
31,18,female,Belgian,3,86,ITC,win,5,left,15,ITC_choice,1808,f,0,0,400,231664,1529802
31,18,female,Belgian,3,86,ITC,win,5,left,15,ITC_wait,0,undefined,0,0,400,226651,1534815
31,18,female,Belgian,3,86,ITC,win,5,left,15,ITC_collect,2028,k,0,0,400,224619,1536847
31,18,female,Belgian,3,86,ITC,win,5,left,15,ITC_outcome,0,undefined,0,0,420,223611,1537855
31,18,female,Belgian,3,87,guess,neutral,5,right,6,guess_start,5268,space,0,0,420,218339,1543127
31,18,female,Belgian,3,87,guess,neutral,5,right,6,guess_choice,1004,f,0,0,420,217327,1544139
31,18,female,Belgian,3,87,guess,neutral,5,right,6,guess_outcome,0,undefined,0,0,420,215767,1545699
31,18,female,Belgian,3,87,ITC,neutral,5,right,6,ITC_start,425,space,0,0,420,215339,1546127
31,18,female,Belgian,3,87,ITC,neutral,5,right,6,ITC_choice,1576,j,0,0,420,213759,1547707
31,18,female,Belgian,3,87,ITC,neutral,5,right,6,ITC_wait,0,undefined,0,0,420,208750,1552716
31,18,female,Belgian,3,87,ITC,neutral,5,right,6,ITC_collect,3886,k,0,0,420,204859,1556607
31,18,female,Belgian,3,87,ITC,neutral,5,right,6,ITC_outcome,0,undefined,0,0,440,203846,1557620
31,18,female,Belgian,3,88,guess,neutral,5,right,15,guess_start,301,space,0,0,440,203540,1557926
31,18,female,Belgian,3,88,guess,neutral,5,right,15,guess_choice,968,j,0,0,440,202563,1558903
31,18,female,Belgian,3,88,guess,neutral,5,right,15,guess_outcome,0,undefined,0,0,440,201002,1560464
31,18,female,Belgian,3,88,ITC,neutral,5,right,15,ITC_start,360,space,0,0,440,200639,1560827
31,18,female,Belgian,3,88,ITC,neutral,5,right,15,ITC_choice,1248,j,0,0,440,199387,1562079
31,18,female,Belgian,3,88,ITC,neutral,5,right,15,ITC_wait,0,undefined,0,0,440,194382,1567084
31,18,female,Belgian,3,88,ITC,neutral,5,right,15,ITC_collect,1048,k,0,0,440,193331,1568135
31,18,female,Belgian,3,88,ITC,neutral,5,right,15,ITC_outcome,0,undefined,0,0,460,192319,1569147
31,18,female,Belgian,3,89,guess,neutral,10,left,8,guess_start,1559,space,0,0,460,190755,1570711
31,18,female,Belgian,3,89,guess,neutral,10,left,8,guess_choice,1016,f,0,0,460,189731,1571735
31,18,female,Belgian,3,89,guess,neutral,10,left,8,guess_outcome,0,undefined,0,0,460,188165,1573301
31,18,female,Belgian,3,89,ITC,neutral,10,left,8,ITC_start,1214,space,0,0,460,186948,1574518
31,18,female,Belgian,3,89,ITC,neutral,10,left,8,ITC_choice,1228,f,0,0,460,185716,1575750
31,18,female,Belgian,3,89,ITC,neutral,10,left,8,ITC_wait,0,undefined,0,0,460,175710,1585756
31,18,female,Belgian,3,89,ITC,neutral,10,left,8,ITC_collect,1462,k,0,0,460,174243,1587223
31,18,female,Belgian,3,89,ITC,neutral,10,left,8,ITC_outcome,0,undefined,0,0,480,173233,1588233
31,18,female,Belgian,3,90,guess,win,5,left,4,guess_start,4331,space,0,0,480,168895,1592571
31,18,female,Belgian,3,90,guess,win,5,left,4,guess_choice,1268,j,0,0,480,167619,1593847
31,18,female,Belgian,3,90,guess,win,5,left,4,guess_outcome,0,undefined,0,0,500,166056,1595410
31,18,female,Belgian,3,90,ITC,win,5,left,4,ITC_start,6146,space,0,0,500,159907,1601559
31,18,female,Belgian,3,90,ITC,win,5,left,4,ITC_choice,939,f,0,0,500,158963,1602503
31,18,female,Belgian,3,90,ITC,win,5,left,4,ITC_wait,0,undefined,0,0,500,153958,1607508
31,18,female,Belgian,3,90,ITC,win,5,left,4,ITC_collect,1414,k,0,0,500,152539,1608927
31,18,female,Belgian,3,90,ITC,win,5,left,4,ITC_outcome,0,undefined,0,0,520,151527,1609939
31,18,female,Belgian,3,91,guess,win,5,right,13,guess_start,2742,space,0,0,520,148779,1612687
31,18,female,Belgian,3,91,guess,win,5,right,13,guess_choice,862,j,0,0,520,147906,1613560
31,18,female,Belgian,3,91,guess,win,5,right,13,guess_outcome,0,undefined,0,0,540,146342,1615124
31,18,female,Belgian,3,91,ITC,win,5,right,13,ITC_start,5143,space,0,0,540,141195,1620271
31,18,female,Belgian,3,91,ITC,win,5,right,13,ITC_choice,1147,j,0,0,540,140043,1621423
31,18,female,Belgian,3,91,ITC,win,5,right,13,ITC_wait,0,undefined,0,0,540,135039,1626427
31,18,female,Belgian,3,92,guess,win,10,left,3,guess_start,4828,space,0,0,560,127555,1633911
31,18,female,Belgian,3,91,ITC,win,5,right,13,ITC_collect,1631,k,0,0,540,133403,1628063
31,18,female,Belgian,3,92,guess,win,10,left,3,guess_choice,764,j,0,0,560,126783,1634683
31,18,female,Belgian,3,91,ITC,win,5,right,13,ITC_outcome,0,undefined,0,0,560,132390,1629076
31,18,female,Belgian,3,92,guess,win,10,left,3,guess_outcome,0,undefined,0,0,580,125217,1636249
31,18,female,Belgian,3,92,ITC,win,10,left,3,ITC_start,551,space,0,0,580,124663,1636803
31,18,female,Belgian,3,92,ITC,win,10,left,3,ITC_choice,1393,f,0,0,580,123267,1638199
31,18,female,Belgian,3,92,ITC,win,10,left,3,ITC_wait,0,undefined,0,0,580,113257,1648209
31,18,female,Belgian,3,92,ITC,win,10,left,3,ITC_collect,1318,k,0,0,580,111935,1649531
31,18,female,Belgian,3,92,ITC,win,10,left,3,ITC_outcome,0,undefined,0,0,600,110928,1650538
31,18,female,Belgian,3,93,guess,neutral,5,right,8,guess_start,532,space,0,0,600,110391,1651075
31,18,female,Belgian,3,93,guess,neutral,5,right,8,guess_choice,760,j,0,0,600,109623,1651843
31,18,female,Belgian,3,93,guess,neutral,5,right,8,guess_outcome,0,undefined,0,0,600,108059,1653407
31,18,female,Belgian,3,93,ITC,neutral,5,right,8,ITC_start,368,space,0,0,600,107688,1653778
31,18,female,Belgian,3,93,ITC,neutral,5,right,8,ITC_choice,760,j,0,0,600,106923,1654543
31,18,female,Belgian,3,93,ITC,neutral,5,right,8,ITC_wait,0,undefined,0,0,600,101915,1659551
31,18,female,Belgian,3,93,ITC,neutral,5,right,8,ITC_collect,577,k,0,0,600,101335,1660131
31,18,female,Belgian,3,93,ITC,neutral,5,right,8,ITC_outcome,0,undefined,0,0,620,100324,1661142
31,18,female,Belgian,3,94,guess,neutral,10,left,2,guess_start,1784,space,0,0,620,98535,1662931
31,18,female,Belgian,3,94,guess,neutral,10,left,2,guess_choice,739,j,0,0,620,97787,1663679
31,18,female,Belgian,3,94,guess,neutral,10,left,2,guess_outcome,0,undefined,0,0,620,96226,1665240
31,18,female,Belgian,3,94,ITC,neutral,10,left,2,ITC_start,1522,space,0,0,620,94700,1666766
31,18,female,Belgian,3,94,ITC,neutral,10,left,2,ITC_choice,1097,f,0,0,620,93599,1667867
31,18,female,Belgian,3,94,ITC,neutral,10,left,2,ITC_wait,0,undefined,0,0,620,83572,1677894
31,18,female,Belgian,3,94,ITC,neutral,10,left,2,ITC_collect,1095,k,0,0,620,82471,1678995
31,18,female,Belgian,3,94,ITC,neutral,10,left,2,ITC_outcome,0,undefined,0,0,640,81457,1680009
31,18,female,Belgian,3,95,guess,neutral,10,right,4,guess_start,460,space,0,0,640,80992,1680474
31,18,female,Belgian,3,95,guess,neutral,10,right,4,guess_choice,587,j,0,0,640,80395,1681071
31,18,female,Belgian,3,95,guess,neutral,10,right,4,guess_outcome,0,undefined,0,0,640,78829,1682637
31,18,female,Belgian,3,95,ITC,neutral,10,right,4,ITC_start,706,space,0,0,640,78120,1683346
31,18,female,Belgian,3,95,ITC,neutral,10,right,4,ITC_choice,617,j,0,0,640,77499,1683967
31,18,female,Belgian,3,95,ITC,neutral,10,right,4,ITC_wait,0,undefined,0,0,640,67493,1693973
31,18,female,Belgian,3,95,ITC,neutral,10,right,4,ITC_collect,627,k,0,0,640,66862,1694604
31,18,female,Belgian,3,95,ITC,neutral,10,right,4,ITC_outcome,0,undefined,0,0,660,65849,1695617
31,18,female,Belgian,3,96,guess,neutral,10,left,6,guess_start,936,space,0,0,660,64908,1696558
31,18,female,Belgian,3,96,guess,neutral,10,left,6,guess_choice,616,f,0,0,660,64283,1697183
31,18,female,Belgian,3,96,guess,neutral,10,left,6,guess_outcome,0,undefined,0,0,660,62719,1698747
31,18,female,Belgian,3,96,ITC,neutral,10,left,6,ITC_start,637,space,0,0,660,62080,1699386
31,18,female,Belgian,3,96,ITC,neutral,10,left,6,ITC_choice,1336,f,0,0,660,60740,1700726
31,18,female,Belgian,3,96,ITC,neutral,10,left,6,ITC_wait,0,undefined,0,0,660,50731,1710735
31,18,female,Belgian,3,96,ITC,neutral,10,left,6,ITC_collect,2044,k,0,0,660,48683,1712783
31,18,female,Belgian,3,96,ITC,neutral,10,left,6,ITC_outcome,0,undefined,0,0,680,47668,1713798
31,18,female,Belgian,3,97,guess,win,10,left,5,guess_start,940,space,0,0,680,46723,1714743
31,18,female,Belgian,3,97,guess,win,10,left,5,guess_choice,727,j,0,0,680,45987,1715479
31,18,female,Belgian,3,97,guess,win,10,left,5,guess_outcome,0,undefined,0,0,700,44420,1717046
31,18,female,Belgian,3,97,ITC,win,10,left,5,ITC_start,618,space,0,0,700,43799,1717667
31,18,female,Belgian,3,97,ITC,win,10,left,5,ITC_choice,617,f,0,0,700,43179,1718287
31,18,female,Belgian,3,97,ITC,win,10,left,5,ITC_wait,0,undefined,0,0,700,33168,1728298
31,18,female,Belgian,3,97,ITC,win,10,left,5,ITC_collect,901,k,0,0,700,32263,1729203
31,18,female,Belgian,3,97,ITC,win,10,left,5,ITC_outcome,0,undefined,0,0,720,31250,1730216
31,18,female,Belgian,3,98,guess,loss,10,right,5,guess_start,734,space,0,0,720,30511,1730955
31,18,female,Belgian,3,98,guess,loss,10,right,5,guess_choice,652,f,0,0,720,29851,1731615
31,18,female,Belgian,3,98,guess,loss,10,right,5,guess_outcome,0,undefined,0,0,705,28286,1733180
31,18,female,Belgian,3,98,ITC,loss,10,right,5,ITC_start,775,space,0,0,705,27507,1733959
31,18,female,Belgian,3,98,ITC,loss,10,right,5,ITC_choice,1156,j,0,0,705,26347,1735119
31,18,female,Belgian,3,98,ITC,loss,10,right,5,ITC_wait,0,undefined,0,0,705,16340,1745126
31,18,female,Belgian,3,98,ITC,loss,10,right,5,ITC_collect,1657,k,0,0,705,14679,1746787
31,18,female,Belgian,3,98,ITC,loss,10,right,5,ITC_outcome,0,undefined,0,0,725,13669,1747797
31,18,female,Belgian,3,99,guess,neutral,5,left,1,guess_start,1210,space,0,0,725,12455,1749011
31,18,female,Belgian,3,99,guess,neutral,5,left,1,guess_choice,908,j,0,0,725,11539,1749927
31,18,female,Belgian,3,99,guess,neutral,5,left,1,guess_outcome,0,undefined,0,0,725,9981,1751485
31,18,female,Belgian,3,99,ITC,neutral,5,left,1,ITC_start,1850,space,0,0,725,8127,1753339
31,18,female,Belgian,3,99,ITC,neutral,5,left,1,ITC_choice,835,f,0,0,725,7287,1754179
31,18,female,Belgian,3,99,ITC,neutral,5,left,1,ITC_wait,0,undefined,0,0,725,2277,1759189
31,18,female,Belgian,3,99,ITC,neutral,5,left,1,ITC_collect,675,k,0,0,725,1599,1759867
31,18,female,Belgian,3,99,ITC,neutral,5,left,1,ITC_outcome,0,undefined,0,0,745,588,1760878
31,18,female,Belgian,3,100,guess,loss,10,left,2,guess_start,0,undefined,0,0,745,-13,1761479
31,18,female,Belgian,4,101,guess,loss,5,left,7,guess_start,540,space,0,0,0,479458,1777825
31,18,female,Belgian,4,101,guess,loss,5,left,7,guess_choice,875,j,0,0,0,478574,1778709
31,18,female,Belgian,4,101,guess,loss,5,left,7,guess_outcome,0,undefined,0,0,-15,477013,1780270
31,18,female,Belgian,4,101,ITC,loss,5,left,7,ITC_start,1623,space,0,0,-15,475386,1781897
31,18,female,Belgian,4,101,ITC,loss,5,left,7,ITC_choice,814,f,0,0,-15,474566,1782717
31,18,female,Belgian,4,101,ITC,loss,5,left,7,ITC_wait,0,undefined,0,0,-15,469559,1787724
31,18,female,Belgian,4,101,ITC,loss,5,left,7,ITC_collect,509,k,0,0,-15,469046,1788237
31,18,female,Belgian,4,101,ITC,loss,5,left,7,ITC_outcome,0,undefined,0,0,5,468036,1789247
31,18,female,Belgian,4,102,guess,loss,10,left,3,guess_start,332,space,0,0,5,467698,1789585
31,18,female,Belgian,4,102,guess,loss,10,left,3,guess_choice,1145,j,0,0,5,466542,1790741
31,18,female,Belgian,4,102,guess,loss,10,left,3,guess_outcome,0,undefined,0,0,-10,464975,1792308
31,18,female,Belgian,4,102,ITC,loss,10,left,3,ITC_start,1026,space,0,0,-10,463946,1793337
31,18,female,Belgian,4,102,ITC,loss,10,left,3,ITC_choice,1224,f,0,0,-10,462718,1794565
31,18,female,Belgian,4,102,ITC,loss,10,left,3,ITC_wait,0,undefined,0,0,-10,452709,1804574
31,18,female,Belgian,4,102,ITC,loss,10,left,3,ITC_collect,6102,k,0,0,-10,446602,1810681
31,18,female,Belgian,4,102,ITC,loss,10,left,3,ITC_outcome,0,undefined,0,0,10,445591,1811692
31,18,female,Belgian,4,103,guess,loss,5,right,9,guess_start,1020,space,0,0,10,444562,1812721
31,18,female,Belgian,4,103,guess,loss,5,right,9,guess_choice,967,f,0,0,10,443586,1813697
31,18,female,Belgian,4,103,guess,loss,5,right,9,guess_outcome,0,undefined,0,0,-5,442025,1815258
31,18,female,Belgian,4,103,ITC,loss,5,right,9,ITC_start,687,space,0,0,-5,441335,1815948
31,18,female,Belgian,4,103,ITC,loss,5,right,9,ITC_choice,923,j,0,0,-5,440406,1816877
31,18,female,Belgian,4,103,ITC,loss,5,right,9,ITC_wait,0,undefined,0,0,-5,435397,1821886
31,18,female,Belgian,4,103,ITC,loss,5,right,9,ITC_collect,1444,k,0,0,-5,433950,1823333
31,18,female,Belgian,4,103,ITC,loss,5,right,9,ITC_outcome,0,undefined,0,0,15,432940,1824343
31,18,female,Belgian,4,104,guess,loss,10,left,4,guess_start,1018,space,0,0,15,431919,1825364
31,18,female,Belgian,4,104,guess,loss,10,left,4,guess_choice,1102,j,0,0,15,430806,1826477
31,18,female,Belgian,4,104,guess,loss,10,left,4,guess_outcome,0,undefined,0,0,0,429241,1828042
31,18,female,Belgian,4,104,ITC,loss,10,left,4,ITC_start,996,space,0,0,0,428243,1829040
31,18,female,Belgian,4,104,ITC,loss,10,left,4,ITC_choice,887,f,0,0,0,427351,1829932
31,18,female,Belgian,4,104,ITC,loss,10,left,4,ITC_wait,0,undefined,0,0,0,417339,1839944
31,18,female,Belgian,4,104,ITC,loss,10,left,4,ITC_collect,743,k,0,0,0,416592,1840691
31,18,female,Belgian,4,104,ITC,loss,10,left,4,ITC_outcome,0,undefined,0,0,20,415585,1841698
31,18,female,Belgian,4,105,guess,loss,5,left,13,guess_start,831,space,0,0,20,414748,1842535
31,18,female,Belgian,4,105,guess,loss,5,left,13,guess_choice,571,j,0,0,20,414168,1843115
31,18,female,Belgian,4,105,guess,loss,5,left,13,guess_outcome,0,undefined,0,0,5,412607,1844676
31,18,female,Belgian,4,105,ITC,loss,5,left,13,ITC_start,443,space,0,0,5,412160,1845123
31,18,female,Belgian,4,105,ITC,loss,5,left,13,ITC_choice,872,f,0,0,5,411285,1845998
31,18,female,Belgian,4,105,ITC,loss,5,left,13,ITC_wait,0,undefined,0,0,5,406273,1851010
31,18,female,Belgian,4,105,ITC,loss,5,left,13,ITC_collect,641,k,0,0,5,405628,1851655
31,18,female,Belgian,4,105,ITC,loss,5,left,13,ITC_outcome,0,undefined,0,0,25,404618,1852665
31,18,female,Belgian,4,106,guess,win,5,left,10,guess_start,437,space,0,0,25,404177,1853106
31,18,female,Belgian,4,106,guess,win,5,left,10,guess_choice,571,j,0,0,25,403596,1853687
31,18,female,Belgian,4,106,guess,win,5,left,10,guess_outcome,0,undefined,0,0,45,402038,1855245
31,18,female,Belgian,4,106,ITC,win,5,left,10,ITC_start,729,space,0,0,45,401305,1855978
31,18,female,Belgian,4,106,ITC,win,5,left,10,ITC_choice,668,f,0,0,45,400632,1856651
31,18,female,Belgian,4,106,ITC,win,5,left,10,ITC_wait,0,undefined,0,0,45,395617,1861666
31,18,female,Belgian,4,107,guess,win,5,left,12,guess_outcome,0,undefined,0,0,85,389749,1867534
31,18,female,Belgian,4,106,ITC,win,5,left,10,ITC_collect,2513,k,0,0,45,393100,1864183
31,18,female,Belgian,4,107,guess,win,5,left,12,guess_start,413,space,0,0,65,391669,1865614
31,18,female,Belgian,4,106,ITC,win,5,left,10,ITC_outcome,0,undefined,0,0,65,392086,1865197
31,18,female,Belgian,4,107,guess,win,5,left,12,guess_choice,347,j,0,0,65,391312,1865971
31,18,female,Belgian,4,107,ITC,win,5,left,12,ITC_start,853,space,0,0,85,388892,1868391
31,18,female,Belgian,4,107,ITC,win,5,left,12,ITC_choice,575,f,0,0,85,388313,1868970
31,18,female,Belgian,4,107,ITC,win,5,left,12,ITC_wait,0,undefined,0,0,85,383301,1873982
31,18,female,Belgian,4,107,ITC,win,5,left,12,ITC_collect,586,k,0,0,85,382712,1874571
31,18,female,Belgian,4,107,ITC,win,5,left,12,ITC_outcome,0,undefined,0,0,105,381700,1875583
31,18,female,Belgian,4,108,guess,neutral,10,left,3,guess_start,351,space,0,0,105,381345,1875938
31,18,female,Belgian,4,108,guess,neutral,10,left,3,guess_choice,606,j,0,0,105,380728,1876555
31,18,female,Belgian,4,108,guess,neutral,10,left,3,guess_outcome,0,undefined,0,0,105,379168,1878115
31,18,female,Belgian,4,108,ITC,neutral,10,left,3,ITC_start,628,space,0,0,105,378537,1878746
31,18,female,Belgian,4,108,ITC,neutral,10,left,3,ITC_choice,832,f,0,0,105,377701,1879582
31,18,female,Belgian,4,108,ITC,neutral,10,left,3,ITC_wait,0,undefined,0,0,105,367692,1889591
31,18,female,Belgian,4,108,ITC,neutral,10,left,3,ITC_collect,1136,k,0,0,105,366552,1890731
31,18,female,Belgian,4,108,ITC,neutral,10,left,3,ITC_outcome,0,undefined,0,0,125,365544,1891739
31,18,female,Belgian,4,109,guess,neutral,5,right,2,guess_start,351,space,0,0,125,365189,1892094
31,18,female,Belgian,4,109,guess,neutral,5,right,2,guess_choice,364,j,0,0,125,364816,1892467
31,18,female,Belgian,4,109,guess,neutral,5,right,2,guess_outcome,0,undefined,0,0,125,363253,1894030
31,18,female,Belgian,4,109,ITC,neutral,5,right,2,ITC_start,686,space,0,0,125,362565,1894718
31,18,female,Belgian,4,109,ITC,neutral,5,right,2,ITC_choice,872,j,0,0,125,361689,1895594
31,18,female,Belgian,4,109,ITC,neutral,5,right,2,ITC_wait,0,undefined,0,0,125,356678,1900605
31,18,female,Belgian,4,109,ITC,neutral,5,right,2,ITC_collect,2537,k,0,0,125,354136,1903147
31,18,female,Belgian,4,109,ITC,neutral,5,right,2,ITC_outcome,0,undefined,0,0,145,353124,1904159
31,18,female,Belgian,4,110,guess,loss,10,right,7,guess_start,821,space,0,0,145,352297,1904986
31,18,female,Belgian,4,110,guess,loss,10,right,7,guess_choice,1122,j,0,0,145,351164,1906119
31,18,female,Belgian,4,110,guess,loss,10,right,7,guess_outcome,0,undefined,0,0,130,349598,1907685
31,18,female,Belgian,4,110,ITC,loss,10,right,7,ITC_start,1271,space,0,0,130,348325,1908958
31,18,female,Belgian,4,110,ITC,loss,10,right,7,ITC_choice,1064,j,0,0,130,347257,1910026
31,18,female,Belgian,4,110,ITC,loss,10,right,7,ITC_wait,0,undefined,0,0,130,337247,1920036
31,18,female,Belgian,4,110,ITC,loss,10,right,7,ITC_collect,638,k,0,0,130,336604,1920679
31,18,female,Belgian,4,110,ITC,loss,10,right,7,ITC_outcome,0,undefined,0,0,150,335592,1921691
31,18,female,Belgian,4,111,guess,neutral,10,left,5,guess_start,791,space,0,0,150,334797,1922486
31,18,female,Belgian,4,111,guess,neutral,10,left,5,guess_choice,1007,f,0,0,150,333780,1923503
31,18,female,Belgian,4,111,guess,neutral,10,left,5,guess_outcome,0,undefined,0,0,150,332217,1925066
31,18,female,Belgian,4,111,ITC,neutral,10,left,5,ITC_start,445,space,0,0,150,331769,1925514
31,18,female,Belgian,4,111,ITC,neutral,10,left,5,ITC_choice,645,f,0,0,150,331121,1926162
31,18,female,Belgian,4,111,ITC,neutral,10,left,5,ITC_wait,0,undefined,0,0,150,321114,1936169
31,18,female,Belgian,4,111,ITC,neutral,10,left,5,ITC_collect,886,k,0,0,150,320224,1937059
31,18,female,Belgian,4,111,ITC,neutral,10,left,5,ITC_outcome,0,undefined,0,0,170,319209,1938074
31,18,female,Belgian,4,112,guess,win,10,left,1,guess_start,924,space,0,0,170,318281,1939002
31,18,female,Belgian,4,112,guess,win,10,left,1,guess_choice,683,f,0,0,170,317588,1939695
31,18,female,Belgian,4,112,guess,win,10,left,1,guess_outcome,0,undefined,0,0,190,316028,1941255
31,18,female,Belgian,4,112,ITC,win,10,left,1,ITC_start,471,space,0,0,190,315553,1941730
31,18,female,Belgian,4,112,ITC,win,10,left,1,ITC_choice,589,f,0,0,190,314960,1942323
31,18,female,Belgian,4,112,ITC,win,10,left,1,ITC_wait,0,undefined,0,0,190,304949,1952334
31,18,female,Belgian,4,112,ITC,win,10,left,1,ITC_collect,912,k,0,0,190,304032,1953251
31,18,female,Belgian,4,112,ITC,win,10,left,1,ITC_outcome,0,undefined,0,0,210,303024,1954259
31,18,female,Belgian,4,113,guess,win,5,left,5,guess_start,487,space,0,0,210,302533,1954750
31,18,female,Belgian,4,113,guess,win,5,left,5,guess_choice,571,j,0,0,210,301953,1955330
31,18,female,Belgian,4,113,guess,win,5,left,5,guess_outcome,0,undefined,0,0,230,300387,1956896
31,18,female,Belgian,4,113,ITC,win,5,left,5,ITC_start,738,space,0,0,230,299645,1957638
31,18,female,Belgian,4,113,ITC,win,5,left,5,ITC_choice,573,f,0,0,230,299069,1958214
31,18,female,Belgian,4,113,ITC,win,5,left,5,ITC_wait,0,undefined,0,0,230,294058,1963225
31,18,female,Belgian,4,113,ITC,win,5,left,5,ITC_collect,366,k,0,0,230,293688,1963595
31,18,female,Belgian,4,113,ITC,win,5,left,5,ITC_outcome,0,undefined,0,0,250,292678,1964605
31,18,female,Belgian,4,114,guess,neutral,5,left,14,guess_start,309,space,0,0,250,292364,1964919
31,18,female,Belgian,4,114,guess,neutral,5,left,14,guess_choice,365,f,0,0,250,291988,1965295
31,18,female,Belgian,4,114,guess,neutral,5,left,14,guess_outcome,0,undefined,0,0,250,290424,1966859
31,18,female,Belgian,4,114,ITC,neutral,5,left,14,ITC_start,377,space,0,0,250,290044,1967239
31,18,female,Belgian,4,114,ITC,neutral,5,left,14,ITC_choice,504,f,0,0,250,289533,1967750
31,18,female,Belgian,4,114,ITC,neutral,5,left,14,ITC_wait,0,undefined,0,0,250,284526,1972757
31,18,female,Belgian,4,114,ITC,neutral,5,left,14,ITC_collect,797,k,0,0,250,283725,1973558
31,18,female,Belgian,4,114,ITC,neutral,5,left,14,ITC_outcome,0,undefined,0,0,270,282689,1974594
31,18,female,Belgian,4,115,guess,loss,10,left,8,guess_start,405,space,0,0,270,282248,1975035
31,18,female,Belgian,4,115,guess,loss,10,left,8,guess_choice,390,f,0,0,270,281848,1975435
31,18,female,Belgian,4,115,guess,loss,10,left,8,guess_outcome,0,undefined,0,0,255,280283,1977000
31,18,female,Belgian,4,115,ITC,loss,10,left,8,ITC_start,407,space,0,0,255,279873,1977410
31,18,female,Belgian,4,115,ITC,loss,10,left,8,ITC_choice,664,f,0,0,255,279205,1978078
31,18,female,Belgian,4,115,ITC,loss,10,left,8,ITC_wait,0,undefined,0,0,255,269191,1988092
31,18,female,Belgian,4,115,ITC,loss,10,left,8,ITC_collect,1019,k,0,0,255,268168,1989115
31,18,female,Belgian,4,115,ITC,loss,10,left,8,ITC_outcome,0,undefined,0,0,275,267159,1990124
31,18,female,Belgian,4,116,guess,neutral,5,left,5,guess_start,614,space,0,0,275,266541,1990742
31,18,female,Belgian,4,116,guess,neutral,5,left,5,guess_choice,650,f,0,0,275,265880,1991403
31,18,female,Belgian,4,116,guess,neutral,5,left,5,guess_outcome,0,undefined,0,0,275,264314,1992969
31,18,female,Belgian,4,116,ITC,neutral,5,left,5,ITC_start,942,space,0,0,275,263369,1993914
31,18,female,Belgian,4,116,ITC,neutral,5,left,5,ITC_choice,729,f,0,0,275,262636,1994647
31,18,female,Belgian,4,116,ITC,neutral,5,left,5,ITC_wait,0,undefined,0,0,275,257628,1999655
31,18,female,Belgian,4,116,ITC,neutral,5,left,5,ITC_collect,2003,k,0,0,275,255620,2001663
31,18,female,Belgian,4,116,ITC,neutral,5,left,5,ITC_outcome,0,undefined,0,0,295,254606,2002677
31,18,female,Belgian,4,117,guess,win,5,right,11,guess_start,661,space,0,0,295,253939,2003344
31,18,female,Belgian,4,117,guess,win,5,right,11,guess_choice,557,j,0,0,295,253372,2003911
31,18,female,Belgian,4,117,guess,win,5,right,11,guess_outcome,0,undefined,0,0,315,251810,2005473
31,18,female,Belgian,4,117,ITC,win,5,right,11,ITC_start,2674,space,0,0,315,249133,2008150
31,18,female,Belgian,4,117,ITC,win,5,right,11,ITC_choice,1304,j,0,0,315,247824,2009459
31,18,female,Belgian,4,117,ITC,win,5,right,11,ITC_outcome,0,undefined,0,0,335,240999,2016284
31,18,female,Belgian,4,118,guess,neutral,10,right,7,guess_start,812,space,0,0,335,240181,2017102
31,18,female,Belgian,4,117,ITC,win,5,right,11,ITC_collect,804,k,0,0,315,242008,2015275
31,18,female,Belgian,4,117,ITC,win,5,right,11,ITC_wait,0,undefined,0,0,315,242818,2014465
31,18,female,Belgian,4,118,guess,neutral,10,right,7,guess_choice,628,f,0,0,335,239540,2017743
31,18,female,Belgian,4,118,guess,neutral,10,right,7,guess_outcome,0,undefined,0,0,335,237977,2019306
31,18,female,Belgian,4,118,ITC,neutral,10,right,7,ITC_start,1649,space,0,0,335,236325,2020958
31,18,female,Belgian,4,118,ITC,neutral,10,right,7,ITC_choice,1047,j,0,0,335,235273,2022010
31,18,female,Belgian,4,118,ITC,neutral,10,right,7,ITC_wait,0,undefined,0,0,335,225268,2032015
31,18,female,Belgian,4,118,ITC,neutral,10,right,7,ITC_collect,783,k,0,0,335,224480,2032803
31,18,female,Belgian,4,118,ITC,neutral,10,right,7,ITC_outcome,0,undefined,0,0,355,223470,2033813
31,18,female,Belgian,4,119,guess,win,10,right,6,guess_start,849,space,0,0,355,222617,2034666
31,18,female,Belgian,4,119,guess,win,10,right,6,guess_choice,654,j,0,0,355,221953,2035330
31,18,female,Belgian,4,119,guess,win,10,right,6,guess_outcome,0,undefined,0,0,375,220386,2036897
31,18,female,Belgian,4,119,ITC,win,10,right,6,ITC_start,384,space,0,0,375,219997,2037286
31,18,female,Belgian,4,119,ITC,win,10,right,6,ITC_choice,535,j,0,0,375,219457,2037826
31,18,female,Belgian,4,119,ITC,win,10,right,6,ITC_wait,0,undefined,0,0,375,209443,2047840
31,18,female,Belgian,4,119,ITC,win,10,right,6,ITC_collect,808,k,0,0,375,208628,2048655
31,18,female,Belgian,4,119,ITC,win,10,right,6,ITC_outcome,0,undefined,0,0,395,207613,2049670
31,18,female,Belgian,4,120,guess,win,5,left,2,guess_start,447,space,0,0,395,207160,2050123
31,18,female,Belgian,4,120,guess,win,5,left,2,guess_choice,500,j,0,0,395,206648,2050635
31,18,female,Belgian,4,120,guess,win,5,left,2,guess_outcome,0,undefined,0,0,415,205081,2052202
31,18,female,Belgian,4,120,ITC,win,5,left,2,ITC_start,704,space,0,0,415,204372,2052911
31,18,female,Belgian,4,120,ITC,win,5,left,2,ITC_choice,570,f,0,0,415,203796,2053487
31,18,female,Belgian,4,120,ITC,win,5,left,2,ITC_wait,0,undefined,0,0,415,198769,2058514
31,18,female,Belgian,4,120,ITC,win,5,left,2,ITC_collect,1791,k,0,0,415,196972,2060311
31,18,female,Belgian,4,120,ITC,win,5,left,2,ITC_outcome,0,undefined,0,0,435,195960,2061323
31,18,female,Belgian,4,121,guess,loss,5,right,5,guess_start,380,space,0,0,435,195561,2061722
31,18,female,Belgian,4,121,guess,loss,5,right,5,guess_choice,642,f,0,0,435,194905,2062378
31,18,female,Belgian,4,121,guess,loss,5,right,5,guess_outcome,0,undefined,0,0,420,193333,2063950
31,18,female,Belgian,4,121,ITC,loss,5,right,5,ITC_start,681,space,0,0,420,192649,2064634
31,18,female,Belgian,4,121,ITC,loss,5,right,5,ITC_choice,1007,j,0,0,420,191637,2065646
31,18,female,Belgian,4,121,ITC,loss,5,right,5,ITC_wait,0,undefined,0,0,420,186630,2070653
31,18,female,Belgian,4,121,ITC,loss,5,right,5,ITC_collect,1566,k,0,0,420,185051,2072232
31,18,female,Belgian,4,121,ITC,loss,5,right,5,ITC_outcome,0,undefined,1,0,440,184035,2073248
31,18,female,Belgian,4,122,guess,loss,5,left,10,guess_start,7615,space,0,1,440,176408,2080875
31,18,female,Belgian,4,122,guess,loss,5,left,10,guess_choice,535,j,0,0,440,175860,2081423
31,18,female,Belgian,4,122,guess,loss,5,left,10,guess_outcome,0,undefined,0,0,425,174293,2082990
31,18,female,Belgian,4,122,ITC,loss,5,left,10,ITC_start,809,space,0,0,425,173472,2083811
31,18,female,Belgian,4,122,ITC,loss,5,left,10,ITC_choice,754,f,0,0,425,172711,2084572
31,18,female,Belgian,4,122,ITC,loss,5,left,10,ITC_wait,0,undefined,0,0,425,167699,2089584
31,18,female,Belgian,4,122,ITC,loss,5,left,10,ITC_collect,996,k,0,0,425,166696,2090587
31,18,female,Belgian,4,122,ITC,loss,5,left,10,ITC_outcome,0,undefined,0,0,445,165678,2091605
31,18,female,Belgian,4,123,guess,loss,5,left,6,guess_start,715,space,0,0,445,164953,2092330
31,18,female,Belgian,4,123,guess,loss,5,left,6,guess_choice,588,j,0,0,445,164352,2092931
31,18,female,Belgian,4,123,guess,loss,5,left,6,guess_outcome,0,undefined,1,0,430,162787,2094496
31,18,female,Belgian,4,123,ITC,loss,5,left,6,ITC_start,11119,space,0,1,430,151664,2105619
31,18,female,Belgian,4,123,ITC,loss,5,left,6,ITC_choice,766,f,0,0,430,150893,2106390
31,18,female,Belgian,4,123,ITC,loss,5,left,6,ITC_wait,0,undefined,0,0,430,145887,2111396
31,18,female,Belgian,4,123,ITC,loss,5,left,6,ITC_collect,2746,k,0,0,430,143137,2114146
31,18,female,Belgian,4,123,ITC,loss,5,left,6,ITC_outcome,0,undefined,0,0,450,142127,2115156
31,18,female,Belgian,4,124,guess,neutral,5,left,11,guess_start,3026,space,0,0,450,139096,2118187
31,18,female,Belgian,4,124,guess,neutral,5,left,11,guess_choice,835,f,0,0,450,138248,2119035
31,18,female,Belgian,4,124,guess,neutral,5,left,11,guess_outcome,0,undefined,0,0,450,136687,2120596
31,18,female,Belgian,4,124,ITC,neutral,5,left,11,ITC_start,620,space,0,0,450,136064,2121219
31,18,female,Belgian,4,124,ITC,neutral,5,left,11,ITC_choice,595,f,0,0,450,135465,2121818
31,18,female,Belgian,4,124,ITC,neutral,5,left,11,ITC_wait,0,undefined,0,0,450,130458,2126825
31,18,female,Belgian,4,124,ITC,neutral,5,left,11,ITC_collect,637,k,0,0,450,129817,2127466
31,18,female,Belgian,4,124,ITC,neutral,5,left,11,ITC_outcome,0,undefined,0,0,470,128805,2128478
31,18,female,Belgian,4,125,guess,loss,5,right,14,guess_start,548,space,0,0,470,128252,2129031
31,18,female,Belgian,4,125,guess,loss,5,right,14,guess_choice,760,j,0,0,470,127480,2129803
31,18,female,Belgian,4,125,guess,loss,5,right,14,guess_outcome,0,undefined,0,0,455,125911,2131372
31,18,female,Belgian,4,125,ITC,loss,5,right,14,ITC_start,409,space,0,0,455,125497,2131786
31,18,female,Belgian,4,125,ITC,loss,5,right,14,ITC_choice,743,j,0,0,455,124749,2132534
31,18,female,Belgian,4,125,ITC,loss,5,right,14,ITC_wait,0,undefined,0,0,455,119742,2137541
31,18,female,Belgian,4,125,ITC,loss,5,right,14,ITC_collect,585,k,0,0,455,119153,2138130
31,18,female,Belgian,4,125,ITC,loss,5,right,14,ITC_outcome,0,undefined,0,0,475,118141,2139142
31,18,female,Belgian,4,126,guess,win,10,right,2,guess_start,417,space,0,0,475,117716,2139567
31,18,female,Belgian,4,126,guess,win,10,right,2,guess_choice,689,f,0,0,475,117017,2140266
31,18,female,Belgian,4,126,guess,win,10,right,2,guess_outcome,0,undefined,0,0,495,115456,2141827
31,18,female,Belgian,4,126,ITC,win,10,right,2,ITC_start,568,space,0,0,495,114885,2142398
31,18,female,Belgian,4,126,ITC,win,10,right,2,ITC_choice,732,j,0,0,495,114149,2143134
31,18,female,Belgian,4,126,ITC,win,10,right,2,ITC_wait,0,undefined,0,0,495,104138,2153145
31,18,female,Belgian,4,126,ITC,win,10,right,2,ITC_collect,574,k,0,0,495,103561,2153722
31,18,female,Belgian,4,126,ITC,win,10,right,2,ITC_outcome,0,undefined,0,0,515,102550,2154733
31,18,female,Belgian,4,127,guess,win,10,left,7,guess_start,674,space,0,0,515,101869,2155414
31,18,female,Belgian,4,127,guess,win,10,left,7,guess_choice,557,f,0,0,515,101301,2155982
31,18,female,Belgian,4,127,guess,win,10,left,7,guess_outcome,0,undefined,0,0,535,99737,2157546
31,18,female,Belgian,4,127,ITC,win,10,left,7,ITC_start,569,space,0,0,535,99165,2158118
31,18,female,Belgian,4,127,ITC,win,10,left,7,ITC_choice,642,f,0,0,535,98517,2158766
31,18,female,Belgian,4,127,ITC,win,10,left,7,ITC_wait,0,undefined,0,0,535,88509,2168774
31,18,female,Belgian,4,127,ITC,win,10,left,7,ITC_collect,712,k,0,0,535,87793,2169490
31,18,female,Belgian,4,127,ITC,win,10,left,7,ITC_outcome,0,undefined,0,0,555,86777,2170506
31,18,female,Belgian,4,128,guess,win,5,right,9,guess_start,1231,space,0,0,555,85541,2171742
31,18,female,Belgian,4,128,guess,win,5,right,9,guess_choice,681,f,0,0,555,84848,2172435
31,18,female,Belgian,4,128,guess,win,5,right,9,guess_outcome,0,undefined,0,0,575,83287,2173996
31,18,female,Belgian,4,128,ITC,win,5,right,9,ITC_start,1118,space,0,0,575,82165,2175118
31,18,female,Belgian,4,128,ITC,win,5,right,9,ITC_choice,632,j,0,0,575,81529,2175754
31,18,female,Belgian,4,128,ITC,win,5,right,9,ITC_wait,0,undefined,0,0,575,76522,2180761
31,18,female,Belgian,4,128,ITC,win,5,right,9,ITC_collect,573,k,0,0,575,75944,2181339
31,18,female,Belgian,4,128,ITC,win,5,right,9,ITC_outcome,0,undefined,0,0,595,74932,2182351
31,18,female,Belgian,4,129,guess,loss,5,right,16,guess_start,1082,space,0,0,595,73845,2183438
31,18,female,Belgian,4,129,guess,loss,5,right,16,guess_choice,509,f,0,0,595,73325,2183958
31,18,female,Belgian,4,129,guess,loss,5,right,16,guess_outcome,0,undefined,0,0,580,71757,2185526
31,18,female,Belgian,4,129,ITC,loss,5,right,16,ITC_start,420,space,0,0,580,71333,2185950
31,18,female,Belgian,4,129,ITC,loss,5,right,16,ITC_choice,732,j,0,0,580,70597,2186686
31,18,female,Belgian,4,129,ITC,loss,5,right,16,ITC_wait,0,undefined,0,0,580,65592,2191691
31,18,female,Belgian,4,129,ITC,loss,5,right,16,ITC_collect,490,k,0,0,580,65096,2192187
31,18,female,Belgian,4,129,ITC,loss,5,right,16,ITC_outcome,0,undefined,0,0,600,64083,2193200
31,18,female,Belgian,4,130,guess,loss,5,right,2,guess_start,541,space,0,0,600,63537,2193746
31,18,female,Belgian,4,130,guess,loss,5,right,2,guess_choice,474,f,0,0,600,63052,2194231
31,18,female,Belgian,4,130,guess,loss,5,right,2,guess_outcome,0,undefined,0,0,585,61491,2195792
31,18,female,Belgian,4,130,ITC,loss,5,right,2,ITC_start,295,space,0,0,585,61193,2196090
31,18,female,Belgian,4,130,ITC,loss,5,right,2,ITC_choice,500,j,0,0,585,60689,2196594
31,18,female,Belgian,4,130,ITC,loss,5,right,2,ITC_wait,0,undefined,0,0,585,55678,2201605
31,18,female,Belgian,4,130,ITC,loss,5,right,2,ITC_collect,649,k,0,0,585,55024,2202259
31,18,female,Belgian,4,130,ITC,loss,5,right,2,ITC_outcome,0,undefined,0,0,605,54013,2203270
31,18,female,Belgian,4,131,guess,loss,5,right,12,guess_start,491,space,0,0,605,53517,2203766
31,18,female,Belgian,4,131,guess,loss,5,right,12,guess_choice,513,f,0,0,605,52992,2204291
31,18,female,Belgian,4,131,guess,loss,5,right,12,guess_outcome,0,undefined,0,0,590,51432,2205851
31,18,female,Belgian,4,131,ITC,loss,5,right,12,ITC_start,307,space,0,0,590,51121,2206162
31,18,female,Belgian,4,131,ITC,loss,5,right,12,ITC_choice,724,j,0,0,590,50393,2206890
31,18,female,Belgian,4,131,ITC,loss,5,right,12,ITC_wait,0,undefined,0,0,590,45379,2211904
31,18,female,Belgian,4,131,ITC,loss,5,right,12,ITC_collect,542,k,0,0,590,44832,2212451
31,18,female,Belgian,4,131,ITC,loss,5,right,12,ITC_outcome,0,undefined,0,0,610,43817,2213466
31,18,female,Belgian,4,132,guess,win,5,left,7,guess_start,366,space,0,0,610,43444,2213839
31,18,female,Belgian,4,132,guess,win,5,left,7,guess_choice,569,f,0,0,610,42865,2214418
31,18,female,Belgian,4,132,guess,win,5,left,7,guess_outcome,0,undefined,0,0,630,41298,2215985
31,18,female,Belgian,4,132,ITC,win,5,left,7,ITC_start,457,space,0,0,630,40837,2216446
31,18,female,Belgian,4,132,ITC,win,5,left,7,ITC_choice,711,f,0,0,630,40121,2217162
31,18,female,Belgian,4,132,ITC,win,5,left,7,ITC_wait,0,undefined,0,0,630,35116,2222167
31,18,female,Belgian,4,132,ITC,win,5,left,7,ITC_collect,574,k,0,0,630,34536,2222747
31,18,female,Belgian,4,132,ITC,win,5,left,7,ITC_outcome,0,undefined,0,0,650,33525,2223758
31,18,female,Belgian,4,133,guess,loss,10,left,1,guess_start,602,space,0,0,650,32885,2224398
31,18,female,Belgian,4,133,guess,loss,10,left,1,guess_choice,529,f,0,0,650,32345,2224938
31,18,female,Belgian,4,133,guess,loss,10,left,1,guess_outcome,0,undefined,0,0,635,30783,2226500
31,18,female,Belgian,4,133,ITC,loss,10,left,1,ITC_start,249,space,0,0,635,30529,2226754
31,18,female,Belgian,4,133,ITC,loss,10,left,1,ITC_choice,548,f,0,0,635,29977,2227306
31,18,female,Belgian,4,133,ITC,loss,10,left,1,ITC_collect,863,k,0,0,635,19105,2238178
31,18,female,Belgian,4,134,guess,win,5,left,1,guess_choice,525,f,0,0,655,17289,2239994
31,18,female,Belgian,4,133,ITC,loss,10,left,1,ITC_outcome,0,undefined,0,0,655,18092,2239191
31,18,female,Belgian,4,133,ITC,loss,10,left,1,ITC_wait,0,undefined,0,0,635,19971,2237312
31,18,female,Belgian,4,134,guess,win,5,left,1,guess_start,262,space,0,0,655,17825,2239458
31,18,female,Belgian,4,134,guess,win,5,left,1,guess_outcome,0,undefined,0,0,675,15727,2241556
31,18,female,Belgian,4,134,ITC,win,5,left,1,ITC_start,505,space,0,0,675,15217,2242066
31,18,female,Belgian,4,134,ITC,win,5,left,1,ITC_choice,580,f,0,0,675,14633,2242650
31,18,female,Belgian,4,134,ITC,win,5,left,1,ITC_wait,0,undefined,0,0,675,9627,2247656
31,18,female,Belgian,4,134,ITC,win,5,left,1,ITC_collect,1370,k,0,0,675,8253,2249030
31,18,female,Belgian,4,134,ITC,win,5,left,1,ITC_outcome,0,undefined,0,0,695,7237,2250046
31,18,female,Belgian,4,135,guess,neutral,5,left,9,guess_start,631,space,0,0,695,6601,2250682
31,18,female,Belgian,4,135,guess,neutral,5,left,9,guess_choice,774,f,0,0,695,5817,2251466
31,18,female,Belgian,4,135,guess,neutral,5,left,9,guess_outcome,0,undefined,0,0,695,4254,2253029
31,18,female,Belgian,4,135,ITC,neutral,5,left,9,ITC_start,625,space,0,0,695,3625,2253658
31,18,female,Belgian,4,135,ITC,neutral,5,left,9,ITC_choice,624,f,0,0,695,2997,2254286
31,18,female,Belgian,4,135,ITC,neutral,5,left,9,ITC_wait,0,undefined,0,0,695,-9,2257292
31,18,female,Belgian,5,136,guess,loss,5,right,11,guess_start,865,space,0,0,0,479131,2322404
31,18,female,Belgian,5,136,guess,loss,5,right,11,guess_choice,805,j,0,0,0,478315,2323220
31,18,female,Belgian,5,136,guess,loss,5,right,11,guess_outcome,0,undefined,0,0,-15,476751,2324784
31,18,female,Belgian,5,136,ITC,loss,5,right,11,ITC_start,440,space,0,0,-15,476307,2325228
31,18,female,Belgian,5,136,ITC,loss,5,right,11,ITC_choice,692,j,0,0,-15,475611,2325924
31,18,female,Belgian,5,136,ITC,loss,5,right,11,ITC_wait,0,undefined,0,0,-15,470605,2330930
31,18,female,Belgian,5,136,ITC,loss,5,right,11,ITC_collect,566,k,0,0,-15,470035,2331500
31,18,female,Belgian,5,136,ITC,loss,5,right,11,ITC_outcome,0,undefined,0,0,5,469024,2332511
31,18,female,Belgian,5,137,guess,win,5,right,3,guess_start,535,space,0,0,5,468483,2333052
31,18,female,Belgian,5,137,guess,win,5,right,3,guess_choice,537,j,0,0,5,467934,2333601
31,18,female,Belgian,5,137,guess,win,5,right,3,guess_outcome,0,undefined,0,0,25,466368,2335167
31,18,female,Belgian,5,137,ITC,win,5,right,3,ITC_start,413,space,0,0,25,465951,2335584
31,18,female,Belgian,5,137,ITC,win,5,right,3,ITC_choice,604,j,0,0,25,465343,2336192
31,18,female,Belgian,5,137,ITC,win,5,right,3,ITC_wait,0,undefined,0,0,25,460333,2341202
31,18,female,Belgian,5,137,ITC,win,5,right,3,ITC_collect,1874,k,0,0,25,458455,2343080
31,18,female,Belgian,5,137,ITC,win,5,right,3,ITC_outcome,0,undefined,0,0,45,457437,2344098
31,18,female,Belgian,5,138,guess,loss,5,right,1,guess_start,309,space,0,0,45,457123,2344412
31,18,female,Belgian,5,138,guess,loss,5,right,1,guess_choice,619,j,0,0,45,456491,2345044
31,18,female,Belgian,5,138,guess,loss,5,right,1,guess_outcome,0,undefined,0,0,30,454927,2346608
31,18,female,Belgian,5,138,ITC,loss,5,right,1,ITC_start,488,space,0,0,30,454435,2347100
31,18,female,Belgian,5,138,ITC,loss,5,right,1,ITC_choice,600,j,0,0,30,453831,2347704
31,18,female,Belgian,5,138,ITC,loss,5,right,1,ITC_wait,0,undefined,0,0,30,448821,2352714
31,18,female,Belgian,5,138,ITC,loss,5,right,1,ITC_collect,626,k,0,0,30,448191,2353344
31,18,female,Belgian,5,138,ITC,loss,5,right,1,ITC_outcome,0,undefined,0,0,50,447179,2354356
31,18,female,Belgian,5,139,guess,neutral,5,right,7,guess_start,315,space,0,0,50,446859,2354676
31,18,female,Belgian,5,139,guess,neutral,5,right,7,guess_choice,409,j,0,0,50,446439,2355096
31,18,female,Belgian,5,139,guess,neutral,5,right,7,guess_outcome,0,undefined,0,0,50,444876,2356659
31,18,female,Belgian,5,139,ITC,neutral,5,right,7,ITC_start,349,space,0,0,50,444523,2357012
31,18,female,Belgian,5,139,ITC,neutral,5,right,7,ITC_choice,580,j,0,0,50,443939,2357596
31,18,female,Belgian,5,139,ITC,neutral,5,right,7,ITC_wait,0,undefined,0,0,50,438935,2362600
31,18,female,Belgian,5,139,ITC,neutral,5,right,7,ITC_collect,713,k,0,0,50,438215,2363320
31,18,female,Belgian,5,139,ITC,neutral,5,right,7,ITC_outcome,0,undefined,0,0,70,437202,2364333
31,18,female,Belgian,5,140,guess,win,5,left,14,guess_start,1269,space,0,0,70,435927,2365608
31,18,female,Belgian,5,140,guess,win,5,left,14,guess_choice,515,j,0,0,70,435399,2366136
31,18,female,Belgian,5,140,guess,win,5,left,14,guess_outcome,0,undefined,0,0,90,433837,2367698
31,18,female,Belgian,5,140,ITC,win,5,left,14,ITC_start,314,space,0,0,90,433519,2368016
31,18,female,Belgian,5,140,ITC,win,5,left,14,ITC_choice,940,f,0,0,90,432575,2368960
31,18,female,Belgian,5,140,ITC,win,5,left,14,ITC_wait,0,undefined,0,0,90,427564,2373971
31,18,female,Belgian,5,140,ITC,win,5,left,14,ITC_collect,965,k,0,0,90,426595,2374940
31,18,female,Belgian,5,140,ITC,win,5,left,14,ITC_outcome,0,undefined,0,0,110,425583,2375952
31,18,female,Belgian,5,141,guess,neutral,5,right,10,guess_start,395,space,0,0,110,425183,2376352
31,18,female,Belgian,5,141,guess,neutral,5,right,10,guess_choice,589,f,0,0,110,424582,2376953
31,18,female,Belgian,5,141,guess,neutral,5,right,10,guess_outcome,0,undefined,0,0,110,423018,2378517
