subjectID,age,gender,nationality,block_number,trial_number,trial_type,guess_outcome,delay_time,delay_pos,immediate_amount,stage,respRT,respKey,blur_count,focus_count,total_points,remaining_duration,time_elapsed
11,18,female,België,1,1,guess,win,5,left,15,guess_start,5381,space,0,0,0,474617,397475
11,18,female,België,1,1,guess,win,5,left,15,guess_choice,1861,j,0,0,0,472753,399339
11,18,female,België,1,1,guess,win,5,left,15,guess_outcome,0,undefined,0,0,20,471199,400893
11,18,female,België,1,1,ITC,win,5,left,15,ITC_start,2287,space,0,0,20,468911,403181
11,18,female,België,1,1,ITC,win,5,left,15,ITC_choice,1430,f,0,0,20,467479,404613
11,18,female,België,1,1,ITC,win,5,left,15,ITC_wait,0,undefined,0,0,20,462476,409616
11,18,female,België,1,1,ITC,win,5,left,15,ITC_collect,2218,k,0,0,20,460257,411835
11,18,female,België,1,1,ITC,win,5,left,15,ITC_outcome,0,undefined,0,0,40,459254,412838
11,18,female,België,1,2,guess,neutral,5,left,5,guess_start,1680,space,0,0,40,457571,414521
11,18,female,België,1,2,guess,neutral,5,left,5,guess_choice,2967,j,0,0,40,454601,417491
11,18,female,België,1,2,guess,neutral,5,left,5,guess_outcome,0,undefined,0,0,40,453047,419045
11,18,female,België,1,2,ITC,neutral,5,left,5,ITC_start,1365,space,0,0,40,451680,420412
11,18,female,België,1,2,ITC,neutral,5,left,5,ITC_choice,824,f,0,0,40,450855,421237
11,18,female,België,1,2,ITC,neutral,5,left,5,ITC_wait,0,undefined,0,0,40,445853,426239
11,18,female,België,1,2,ITC,neutral,5,left,5,ITC_collect,2499,k,0,0,40,443353,428739
11,18,female,België,1,2,ITC,neutral,5,left,5,ITC_outcome,0,undefined,0,0,60,442350,429742
11,18,female,België,1,3,guess,win,5,right,1,guess_start,728,space,0,0,60,441621,430471
11,18,female,België,1,3,guess,win,5,right,1,guess_choice,1390,f,0,0,60,440229,431863
11,18,female,België,1,3,guess,win,5,right,1,guess_outcome,0,undefined,0,0,80,438676,433416
11,18,female,België,1,3,ITC,win,5,right,1,ITC_start,792,space,0,0,80,437882,434210
11,18,female,België,1,3,ITC,win,5,right,1,ITC_choice,691,j,0,0,80,437190,434902
11,18,female,België,1,3,ITC,win,5,right,1,ITC_wait,0,undefined,0,0,80,432187,439905
11,18,female,België,1,3,ITC,win,5,right,1,ITC_collect,1365,k,0,0,80,430820,441272
11,18,female,België,1,3,ITC,win,5,right,1,ITC_outcome,0,undefined,0,0,100,429817,442275
11,18,female,België,1,4,guess,neutral,5,left,12,guess_start,2594,space,0,0,100,427221,444871
11,18,female,België,1,4,guess,neutral,5,left,12,guess_choice,1162,j,0,0,100,426056,446036
11,18,female,België,1,4,guess,neutral,5,left,12,guess_outcome,0,undefined,0,0,100,424502,447590
11,18,female,België,1,4,ITC,neutral,5,left,12,ITC_start,295,space,0,0,100,424205,447887
11,18,female,België,1,4,ITC,neutral,5,left,12,ITC_choice,1162,f,0,0,100,423042,449050
11,18,female,België,1,4,ITC,neutral,5,left,12,ITC_wait,0,undefined,0,0,100,418040,454052
11,18,female,België,1,4,ITC,neutral,5,left,12,ITC_collect,1709,k,0,0,100,416329,455763
11,18,female,België,1,4,ITC,neutral,5,left,12,ITC_outcome,0,undefined,0,0,120,415325,456767
11,18,female,België,1,5,guess,loss,5,right,10,guess_start,753,space,0,0,120,414571,457521
11,18,female,België,1,5,guess,loss,5,right,10,guess_choice,921,j,0,0,120,413647,458445
11,18,female,België,1,5,guess,loss,5,right,10,guess_outcome,0,undefined,0,0,105,412094,459998
11,18,female,België,1,5,ITC,loss,5,right,10,ITC_start,668,space,0,0,105,411424,460668
11,18,female,België,1,5,ITC,loss,5,right,10,ITC_choice,873,j,0,0,105,410550,461542
11,18,female,België,1,5,ITC,loss,5,right,10,ITC_wait,0,undefined,0,0,105,405547,466545
11,18,female,België,1,5,ITC,loss,5,right,10,ITC_collect,347,k,0,0,105,405199,466893
11,18,female,België,1,5,ITC,loss,5,right,10,ITC_outcome,0,undefined,0,0,125,404195,467897
11,18,female,België,1,6,guess,neutral,10,left,4,guess_start,354,space,0,0,125,403840,468252
11,18,female,België,1,6,guess,neutral,10,left,4,guess_choice,1081,j,0,0,125,402756,469336
11,18,female,België,1,6,guess,neutral,10,left,4,guess_outcome,0,undefined,0,0,125,401202,470890
11,18,female,België,1,6,ITC,neutral,10,left,4,ITC_start,294,space,0,0,125,400907,471185
11,18,female,België,1,6,ITC,neutral,10,left,4,ITC_choice,683,f,0,0,125,400223,471869
11,18,female,België,1,6,ITC,neutral,10,left,4,ITC_wait,0,undefined,0,0,125,390221,481871
11,18,female,België,1,6,ITC,neutral,10,left,4,ITC_collect,411,k,0,0,125,389808,482284
11,18,female,België,1,6,ITC,neutral,10,left,4,ITC_outcome,0,undefined,0,0,145,388805,483287
11,18,female,België,1,7,guess,win,10,right,2,guess_start,253,space,0,0,145,388550,483542
11,18,female,België,1,7,guess,win,10,right,2,guess_choice,863,j,0,0,145,387684,484408
11,18,female,België,1,7,guess,win,10,right,2,guess_outcome,0,undefined,0,0,165,386130,485962
11,18,female,België,1,7,ITC,win,10,right,2,ITC_start,285,space,0,0,165,385843,486249
11,18,female,België,1,7,ITC,win,10,right,2,ITC_choice,1134,f,0,0,165,384708,487384
11,18,female,België,1,7,ITC,win,10,right,2,ITC_wait,0,undefined,0,0,165,384705,487387
11,18,female,België,1,7,ITC,win,10,right,2,ITC_collect,1809,k,0,0,165,382895,489197
11,18,female,België,1,7,ITC,win,10,right,2,ITC_outcome,0,undefined,0,0,167,381891,490201
11,18,female,België,1,8,guess,neutral,5,left,3,guess_start,620,space,0,0,167,381269,490823
11,18,female,België,1,8,guess,neutral,5,left,3,guess_choice,946,f,0,0,167,380321,491771
11,18,female,België,1,8,guess,neutral,5,left,3,guess_outcome,0,undefined,0,0,167,378768,493324
11,18,female,België,1,8,ITC,neutral,5,left,3,ITC_start,355,space,0,0,167,378412,493680
11,18,female,België,1,8,ITC,neutral,5,left,3,ITC_choice,898,f,0,0,167,377513,494579
11,18,female,België,1,8,ITC,neutral,5,left,3,ITC_wait,0,undefined,0,0,167,372511,499581
11,18,female,België,1,8,ITC,neutral,5,left,3,ITC_collect,2202,k,0,0,167,370308,501784
11,18,female,België,1,8,ITC,neutral,5,left,3,ITC_outcome,0,undefined,0,0,187,369305,502787
11,18,female,België,1,9,guess,loss,10,right,2,guess_start,1638,space,0,0,187,367665,504427
11,18,female,België,1,9,guess,loss,10,right,2,guess_choice,620,j,0,0,187,367042,505050
11,18,female,België,1,9,guess,loss,10,right,2,guess_outcome,0,undefined,0,0,172,365489,506603
11,18,female,België,1,9,ITC,loss,10,right,2,ITC_start,579,space,0,0,172,364909,507183
11,18,female,België,1,9,ITC,loss,10,right,2,ITC_choice,614,j,0,0,172,364293,507799
11,18,female,België,1,9,ITC,loss,10,right,2,ITC_wait,0,undefined,0,0,172,354289,517803
11,18,female,België,1,9,ITC,loss,10,right,2,ITC_collect,359,k,0,0,172,353929,518163
11,18,female,België,1,9,ITC,loss,10,right,2,ITC_outcome,0,undefined,0,0,192,352925,519167
11,18,female,België,1,10,guess,win,5,right,8,guess_start,513,space,0,0,192,352410,519682
11,18,female,België,1,10,guess,win,5,right,8,guess_choice,793,f,0,0,192,351615,520477
11,18,female,België,1,10,guess,win,5,right,8,guess_outcome,0,undefined,0,0,212,350061,522031
11,18,female,België,1,10,ITC,win,5,right,8,ITC_start,1138,space,0,0,212,348921,523171
11,18,female,België,1,10,ITC,win,5,right,8,ITC_choice,1177,f,0,0,212,347743,524349
11,18,female,België,1,10,ITC,win,5,right,8,ITC_wait,0,undefined,0,0,212,347740,524352
11,18,female,België,1,10,ITC,win,5,right,8,ITC_collect,1276,k,0,0,212,346463,525629
11,18,female,België,1,10,ITC,win,5,right,8,ITC_outcome,0,undefined,0,0,220,345460,526632
11,18,female,België,1,11,guess,neutral,5,left,16,guess_start,8,space,0,0,220,345451,526641
11,18,female,België,1,11,guess,neutral,5,left,16,guess_choice,939,f,0,0,220,344509,527583
11,18,female,België,1,11,guess,neutral,5,left,16,guess_outcome,0,undefined,0,0,220,342956,529136
11,18,female,België,1,11,ITC,neutral,5,left,16,ITC_start,283,space,0,0,220,342671,529421
11,18,female,België,1,11,ITC,neutral,5,left,16,ITC_choice,610,f,0,0,220,342060,530032
11,18,female,België,1,11,ITC,neutral,5,left,16,ITC_wait,0,undefined,0,0,220,337058,535034
11,18,female,België,1,11,ITC,neutral,5,left,16,ITC_collect,1026,k,0,0,220,336031,536061
11,18,female,België,1,11,ITC,neutral,5,left,16,ITC_outcome,0,undefined,0,0,240,335028,537064
11,18,female,België,1,12,guess,neutral,5,right,7,guess_start,354,space,0,0,240,334673,537419
11,18,female,België,1,12,guess,neutral,5,right,7,guess_choice,527,j,0,0,240,334144,537948
11,18,female,België,1,12,guess,neutral,5,right,7,guess_outcome,0,undefined,0,0,240,332592,539500
11,18,female,België,1,12,ITC,neutral,5,right,7,ITC_start,365,space,0,0,240,332226,539866
11,18,female,België,1,12,ITC,neutral,5,right,7,ITC_choice,810,j,0,0,240,331415,540677
11,18,female,België,1,12,ITC,neutral,5,right,7,ITC_wait,0,undefined,0,0,240,326413,545679
11,18,female,België,1,12,ITC,neutral,5,right,7,ITC_collect,1467,k,0,0,240,324945,547147
11,18,female,België,1,12,ITC,neutral,5,right,7,ITC_outcome,0,undefined,0,0,260,323942,548150
11,18,female,België,1,13,guess,loss,5,left,7,guess_start,467,space,0,0,260,323474,548618
11,18,female,België,1,13,guess,loss,5,left,7,guess_choice,566,j,0,0,260,322906,549186
11,18,female,België,1,13,guess,loss,5,left,7,guess_outcome,0,undefined,0,0,245,321352,550740
11,18,female,België,1,13,ITC,loss,5,left,7,ITC_start,587,space,0,0,245,320764,551328
11,18,female,België,1,13,ITC,loss,5,left,7,ITC_choice,632,f,0,0,245,320131,551961
11,18,female,België,1,13,ITC,loss,5,left,7,ITC_wait,0,undefined,0,0,245,315129,556963
11,18,female,België,1,13,ITC,loss,5,left,7,ITC_collect,4210,k,0,0,245,310917,561175
11,18,female,België,1,13,ITC,loss,5,left,7,ITC_outcome,0,undefined,0,0,265,309914,562178
11,18,female,België,1,14,guess,win,10,right,5,guess_start,648,space,0,0,265,309265,562827
11,18,female,België,1,14,guess,win,10,right,5,guess_choice,815,j,0,0,265,308447,563645
11,18,female,België,1,14,guess,win,10,right,5,guess_outcome,0,undefined,0,0,285,306894,565198
11,18,female,België,1,14,ITC,win,10,right,5,ITC_start,515,space,0,0,285,306378,565714
11,18,female,België,1,14,ITC,win,10,right,5,ITC_choice,1024,j,0,0,285,305353,566739
11,18,female,België,1,14,ITC,win,10,right,5,ITC_wait,0,undefined,0,0,285,295351,576741
11,18,female,België,1,14,ITC,win,10,right,5,ITC_collect,365,k,0,0,285,294984,577108
11,18,female,België,1,14,ITC,win,10,right,5,ITC_outcome,0,undefined,0,0,305,293982,578110
11,18,female,België,1,15,guess,win,5,left,12,guess_start,519,space,0,0,305,293462,578630
11,18,female,België,1,15,guess,win,5,left,12,guess_choice,531,j,0,0,305,292929,579163
11,18,female,België,1,15,guess,win,5,left,12,guess_outcome,0,undefined,0,0,325,291376,580716
11,18,female,België,1,15,ITC,win,5,left,12,ITC_start,583,space,0,0,325,290792,581300
11,18,female,België,1,15,ITC,win,5,left,12,ITC_choice,702,f,0,0,325,290089,582003
11,18,female,België,1,15,ITC,win,5,left,12,ITC_wait,0,undefined,0,0,325,285087,587005
11,18,female,België,1,15,ITC,win,5,left,12,ITC_collect,397,k,0,0,325,284689,587403
11,18,female,België,1,15,ITC,win,5,left,12,ITC_outcome,0,undefined,0,0,345,283687,588405
11,18,female,België,1,16,guess,win,5,right,14,guess_start,612,space,0,0,345,283074,589018
11,18,female,België,1,16,guess,win,5,right,14,guess_choice,524,j,0,0,345,282548,589544
11,18,female,België,1,16,guess,win,5,right,14,guess_outcome,0,undefined,0,0,365,280995,591097
11,18,female,België,1,16,ITC,win,5,right,14,ITC_start,564,space,0,0,365,280430,591662
11,18,female,België,1,16,ITC,win,5,right,14,ITC_choice,933,f,0,0,365,279496,592596
11,18,female,België,1,16,ITC,win,5,right,14,ITC_wait,0,undefined,0,0,365,279494,592598
11,18,female,België,1,16,ITC,win,5,right,14,ITC_collect,2892,k,0,0,365,276601,595491
11,18,female,België,1,16,ITC,win,5,right,14,ITC_outcome,0,undefined,0,0,379,275598,596494
11,18,female,België,1,17,guess,loss,5,left,9,guess_start,507,space,0,0,379,275090,597002
11,18,female,België,1,17,guess,loss,5,left,9,guess_choice,516,j,0,0,379,274572,597520
11,18,female,België,1,17,guess,loss,5,left,9,guess_outcome,0,undefined,0,0,364,273018,599074
11,18,female,België,1,17,ITC,loss,5,left,9,ITC_start,1127,space,0,0,364,271891,600201
11,18,female,België,1,17,ITC,loss,5,left,9,ITC_choice,649,f,0,0,364,271241,600851
11,18,female,België,1,17,ITC,loss,5,left,9,ITC_wait,0,undefined,0,0,364,266237,605855
11,18,female,België,1,17,ITC,loss,5,left,9,ITC_collect,3423,k,0,0,364,262813,609279
11,18,female,België,1,17,ITC,loss,5,left,9,ITC_outcome,0,undefined,0,0,384,261810,610282
11,18,female,België,1,18,guess,loss,5,left,2,guess_start,510,space,0,0,384,261299,610793
11,18,female,België,1,18,guess,loss,5,left,2,guess_choice,494,j,0,0,384,260803,611289
11,18,female,België,1,18,guess,loss,5,left,2,guess_outcome,0,undefined,0,0,369,259250,612842
11,18,female,België,1,18,ITC,loss,5,left,2,ITC_start,548,space,0,0,369,258701,613391
11,18,female,België,1,18,ITC,loss,5,left,2,ITC_choice,714,f,0,0,369,257986,614106
11,18,female,België,1,18,ITC,loss,5,left,2,ITC_wait,0,undefined,0,0,369,252984,619108
11,18,female,België,1,18,ITC,loss,5,left,2,ITC_collect,864,k,0,0,369,252119,619973
11,18,female,België,1,18,ITC,loss,5,left,2,ITC_outcome,0,undefined,0,0,389,251115,620977
11,18,female,België,1,19,guess,neutral,10,left,2,guess_start,384,space,0,0,389,250729,621363
11,18,female,België,1,19,guess,neutral,10,left,2,guess_choice,1021,f,0,0,389,249706,622386
11,18,female,België,1,19,guess,neutral,10,left,2,guess_outcome,0,undefined,0,0,389,248152,623940
11,18,female,België,1,19,ITC,neutral,10,left,2,ITC_start,510,space,0,0,389,247641,624451
11,18,female,België,1,19,ITC,neutral,10,left,2,ITC_wait,0,undefined,0,0,389,246953,625139
11,18,female,België,1,19,ITC,neutral,10,left,2,ITC_choice,685,j,0,0,389,246955,625137
11,18,female,België,1,19,ITC,neutral,10,left,2,ITC_collect,4489,k,0,0,389,242463,629629
11,18,female,België,1,19,ITC,neutral,10,left,2,ITC_outcome,0,undefined,0,0,391,241460,630632
11,18,female,België,1,20,guess,loss,10,right,1,guess_start,458,space,0,0,391,241000,631092
11,18,female,België,1,20,guess,loss,10,right,1,guess_choice,686,j,0,0,391,240312,631780
11,18,female,België,1,20,guess,loss,10,right,1,guess_outcome,0,undefined,0,0,376,238758,633334
11,18,female,België,1,20,ITC,loss,10,right,1,ITC_start,315,space,0,0,376,238441,633651
11,18,female,België,1,20,ITC,loss,10,right,1,ITC_choice,1180,j,0,0,376,237260,634832
11,18,female,België,1,20,ITC,loss,10,right,1,ITC_wait,0,undefined,0,0,376,227257,644835
11,18,female,België,1,20,ITC,loss,10,right,1,ITC_collect,425,k,0,0,376,226831,645261
11,18,female,België,1,20,ITC,loss,10,right,1,ITC_outcome,0,undefined,0,0,396,225827,646265
11,18,female,België,1,21,guess,neutral,10,right,7,guess_start,390,space,0,0,396,225436,646656
11,18,female,België,1,21,guess,neutral,10,right,7,guess_choice,629,f,0,0,396,224805,647287
11,18,female,België,1,21,guess,neutral,10,right,7,guess_outcome,0,undefined,0,0,396,223252,648840
11,18,female,België,1,21,ITC,neutral,10,right,7,ITC_start,730,space,0,0,396,222521,649571
11,18,female,België,1,21,ITC,neutral,10,right,7,ITC_choice,874,f,0,0,396,221646,650446
11,18,female,België,1,21,ITC,neutral,10,right,7,ITC_wait,0,undefined,0,0,396,221644,650448
11,18,female,België,1,21,ITC,neutral,10,right,7,ITC_collect,3351,k,0,0,396,218292,653800
11,18,female,België,1,21,ITC,neutral,10,right,7,ITC_outcome,0,undefined,0,0,403,217289,654803
11,18,female,België,1,22,guess,loss,10,right,6,guess_start,351,space,0,0,403,216937,655155
11,18,female,België,1,22,guess,loss,10,right,6,guess_choice,526,j,0,0,403,216409,655683
11,18,female,België,1,22,guess,loss,10,right,6,guess_outcome,0,undefined,0,0,388,214856,657236
11,18,female,België,1,22,ITC,loss,10,right,6,ITC_start,481,space,0,0,388,214375,657717
11,18,female,België,1,22,ITC,loss,10,right,6,ITC_choice,1195,j,0,0,388,213178,658914
11,18,female,België,1,22,ITC,loss,10,right,6,ITC_wait,0,undefined,0,0,388,203175,668917
11,18,female,België,1,22,ITC,loss,10,right,6,ITC_collect,368,k,0,0,388,202807,669285
11,18,female,België,1,22,ITC,loss,10,right,6,ITC_outcome,0,undefined,0,0,408,201804,670288
11,18,female,België,1,23,guess,neutral,5,right,14,guess_start,267,space,0,0,408,201536,670556
11,18,female,België,1,23,guess,neutral,5,right,14,guess_choice,1082,j,0,0,408,200452,671640
11,18,female,België,1,23,guess,neutral,5,right,14,guess_outcome,0,undefined,0,0,408,198898,673194
11,18,female,België,1,23,ITC,neutral,5,right,14,ITC_start,541,space,0,0,408,198356,673736
11,18,female,België,1,23,ITC,neutral,5,right,14,ITC_choice,769,f,0,0,408,197586,674506
11,18,female,België,1,23,ITC,neutral,5,right,14,ITC_wait,0,undefined,0,0,408,197583,674509
11,18,female,België,1,23,ITC,neutral,5,right,14,ITC_collect,2280,k,0,0,408,195303,676789
11,18,female,België,1,23,ITC,neutral,5,right,14,ITC_outcome,0,undefined,0,0,422,194300,677792
11,18,female,België,1,24,guess,neutral,10,right,5,guess_start,491,space,0,0,422,193808,678284
11,18,female,België,1,24,guess,neutral,10,right,5,guess_choice,583,j,0,0,422,193221,678871
11,18,female,België,1,24,guess,neutral,10,right,5,guess_outcome,0,undefined,0,0,422,191668,680424
11,18,female,België,1,24,ITC,neutral,10,right,5,ITC_start,313,space,0,0,422,191354,680738
11,18,female,België,1,24,ITC,neutral,10,right,5,ITC_wait,0,undefined,0,0,422,190348,681744
11,18,female,België,1,24,ITC,neutral,10,right,5,ITC_choice,1002,f,0,0,422,190351,681741
11,18,female,België,1,24,ITC,neutral,10,right,5,ITC_collect,994,k,0,0,422,189353,682739
11,18,female,België,1,24,ITC,neutral,10,right,5,ITC_outcome,0,undefined,0,0,427,188351,683741
11,18,female,België,1,25,guess,neutral,5,right,4,guess_start,916,space,0,0,427,187433,684659
11,18,female,België,1,25,guess,neutral,5,right,4,guess_choice,573,j,0,0,427,186858,685234
11,18,female,België,1,25,guess,neutral,5,right,4,guess_outcome,0,undefined,0,0,427,185305,686787
11,18,female,België,1,25,ITC,neutral,5,right,4,ITC_start,275,space,0,0,427,185029,687063
11,18,female,België,1,25,ITC,neutral,5,right,4,ITC_choice,1121,j,0,0,427,183907,688185
11,18,female,België,1,25,ITC,neutral,5,right,4,ITC_wait,0,undefined,0,0,427,178905,693187
11,18,female,België,1,25,ITC,neutral,5,right,4,ITC_collect,287,k,0,0,427,178617,693475
11,18,female,België,1,25,ITC,neutral,5,right,4,ITC_outcome,0,undefined,0,0,447,177614,694478
11,18,female,België,1,26,guess,neutral,5,left,13,guess_start,732,space,0,0,447,176881,695211
11,18,female,België,1,26,guess,neutral,5,left,13,guess_choice,722,f,0,0,447,176156,695936
11,18,female,België,1,26,guess,neutral,5,left,13,guess_outcome,0,undefined,0,0,447,174602,697490
11,18,female,België,1,26,ITC,neutral,5,left,13,ITC_start,391,space,0,0,447,174210,697882
11,18,female,België,1,26,ITC,neutral,5,left,13,ITC_choice,1112,j,0,0,447,173097,698995
11,18,female,België,1,26,ITC,neutral,5,left,13,ITC_wait,0,undefined,0,0,447,173095,698997
11,18,female,België,1,26,ITC,neutral,5,left,13,ITC_collect,2294,k,0,0,447,170801,701291
11,18,female,België,1,26,ITC,neutral,5,left,13,ITC_outcome,0,undefined,0,0,460,169798,702294
11,18,female,België,1,27,guess,win,5,left,13,guess_start,566,space,0,0,460,169231,702861
11,18,female,België,1,27,guess,win,5,left,13,guess_choice,549,j,0,0,460,168679,703413
11,18,female,België,1,27,guess,win,5,left,13,guess_outcome,0,undefined,0,0,480,167124,704968
11,18,female,België,1,27,ITC,win,5,left,13,ITC_start,597,space,0,0,480,166526,705566
11,18,female,België,1,27,ITC,win,5,left,13,ITC_choice,813,f,0,0,480,165711,706381
11,18,female,België,1,27,ITC,win,5,left,13,ITC_wait,0,undefined,0,0,480,160710,711382
11,18,female,België,1,27,ITC,win,5,left,13,ITC_collect,1364,k,0,0,480,159345,712747
11,18,female,België,1,27,ITC,win,5,left,13,ITC_outcome,0,undefined,0,0,500,158342,713750
11,18,female,België,1,28,guess,loss,10,left,7,guess_start,364,space,0,0,500,157977,714115
11,18,female,België,1,28,guess,loss,10,left,7,guess_choice,526,j,0,0,500,157448,714644
11,18,female,België,1,28,guess,loss,10,left,7,guess_outcome,0,undefined,0,0,485,155895,716197
11,18,female,België,1,28,ITC,loss,10,left,7,ITC_start,586,space,0,0,485,155307,716785
11,18,female,België,1,28,ITC,loss,10,left,7,ITC_choice,696,f,0,0,485,154611,717481
11,18,female,België,1,28,ITC,loss,10,left,7,ITC_wait,0,undefined,0,0,485,144608,727484
11,18,female,België,1,28,ITC,loss,10,left,7,ITC_collect,320,k,0,0,485,144287,727805
11,18,female,België,1,28,ITC,loss,10,left,7,ITC_outcome,0,undefined,0,0,505,143283,728809
11,18,female,België,1,29,guess,loss,5,right,1,guess_start,523,space,0,0,505,142760,729332
11,18,female,België,1,29,guess,loss,5,right,1,guess_choice,544,j,0,0,505,142213,729879
11,18,female,België,1,29,guess,loss,5,right,1,guess_outcome,0,undefined,0,0,490,140659,731433
11,18,female,België,1,29,ITC,loss,5,right,1,ITC_start,318,space,0,0,490,140340,731752
11,18,female,België,1,29,ITC,loss,5,right,1,ITC_choice,698,f,0,0,490,139641,732451
11,18,female,België,1,29,ITC,loss,5,right,1,ITC_wait,0,undefined,0,0,490,139638,732454
11,18,female,België,1,29,ITC,loss,5,right,1,ITC_collect,960,k,0,0,490,138678,733414
11,18,female,België,1,29,ITC,loss,5,right,1,ITC_outcome,0,undefined,0,0,491,137675,734417
11,18,female,België,1,30,guess,win,10,right,1,guess_start,548,space,0,0,491,137125,734967
11,18,female,België,1,30,guess,win,10,right,1,guess_choice,493,j,0,0,491,136630,735462
11,18,female,België,1,30,guess,win,10,right,1,guess_outcome,0,undefined,0,0,511,135078,737014
11,18,female,België,1,30,ITC,win,10,right,1,ITC_start,389,space,0,0,511,134687,737405
11,18,female,België,1,30,ITC,win,10,right,1,ITC_wait,0,undefined,0,0,511,133581,738511
11,18,female,België,1,30,ITC,win,10,right,1,ITC_choice,1103,f,0,0,511,133583,738509
11,18,female,België,1,30,ITC,win,10,right,1,ITC_collect,964,k,0,0,511,132616,739476
11,18,female,België,1,30,ITC,win,10,right,1,ITC_outcome,0,undefined,0,0,512,131613,740479
11,18,female,België,1,31,guess,win,5,right,5,guess_start,65,space,0,0,512,131546,740546
11,18,female,België,1,31,guess,win,5,right,5,guess_choice,555,j,0,0,512,130989,741103
11,18,female,België,1,31,guess,win,5,right,5,guess_outcome,0,undefined,0,0,532,129436,742656
11,18,female,België,1,31,ITC,win,5,right,5,ITC_start,415,space,0,0,532,129019,743073
11,18,female,België,1,31,ITC,win,5,right,5,ITC_choice,737,f,0,0,532,128281,743811
11,18,female,België,1,31,ITC,win,5,right,5,ITC_wait,0,undefined,0,0,532,128279,743813
11,18,female,België,1,31,ITC,win,5,right,5,ITC_collect,678,k,0,0,532,127600,744492
11,18,female,België,1,31,ITC,win,5,right,5,ITC_outcome,0,undefined,0,0,537,126598,745494
11,18,female,België,1,32,guess,neutral,5,left,2,guess_start,268,space,0,0,537,126328,745764
11,18,female,België,1,32,guess,neutral,5,left,2,guess_choice,530,j,0,0,537,125796,746296
11,18,female,België,1,32,guess,neutral,5,left,2,guess_outcome,0,undefined,0,0,537,124243,747849
11,18,female,België,1,32,ITC,neutral,5,left,2,ITC_start,577,space,0,0,537,123665,748427
11,18,female,België,1,32,ITC,neutral,5,left,2,ITC_choice,710,f,0,0,537,122954,749138
11,18,female,België,1,32,ITC,neutral,5,left,2,ITC_wait,0,undefined,0,0,537,117952,754140
11,18,female,België,1,32,ITC,neutral,5,left,2,ITC_collect,336,k,0,0,537,117615,754477
11,18,female,België,1,32,ITC,neutral,5,left,2,ITC_outcome,0,undefined,0,0,557,116613,755479
11,18,female,België,1,33,guess,neutral,5,right,15,guess_start,44,space,0,0,557,116568,755524
11,18,female,België,1,33,guess,neutral,5,right,15,guess_choice,699,f,0,0,557,115867,756225
11,18,female,België,1,33,guess,neutral,5,right,15,guess_outcome,0,undefined,0,0,557,114313,757779
11,18,female,België,1,33,ITC,neutral,5,right,15,ITC_start,475,space,0,0,557,113837,758255
11,18,female,België,1,33,ITC,neutral,5,right,15,ITC_choice,1243,j,0,0,557,112592,759500
11,18,female,België,1,33,ITC,neutral,5,right,15,ITC_wait,0,undefined,0,0,557,107589,764503
11,18,female,België,1,33,ITC,neutral,5,right,15,ITC_collect,991,k,0,0,557,106597,765495
11,18,female,België,1,33,ITC,neutral,5,right,15,ITC_outcome,0,undefined,0,0,577,105594,766498
11,18,female,België,1,34,guess,loss,5,right,6,guess_start,247,space,0,0,577,105345,766747
11,18,female,België,1,34,guess,loss,5,right,6,guess_choice,494,j,0,0,577,104850,767242
11,18,female,België,1,34,guess,loss,5,right,6,guess_outcome,0,undefined,0,0,562,103297,768795
11,18,female,België,1,34,ITC,loss,5,right,6,ITC_start,695,space,0,0,562,102601,769491
11,18,female,België,1,34,ITC,loss,5,right,6,ITC_choice,672,j,0,0,562,101928,770164
11,18,female,België,1,34,ITC,loss,5,right,6,ITC_wait,0,undefined,0,0,562,96927,775165
11,18,female,België,1,34,ITC,loss,5,right,6,ITC_collect,1053,k,0,0,562,95873,776219
11,18,female,België,1,34,ITC,loss,5,right,6,ITC_outcome,0,undefined,0,0,582,94870,777222
11,18,female,België,1,35,guess,neutral,5,right,10,guess_start,406,space,0,0,582,94462,777630
11,18,female,België,1,35,guess,neutral,5,right,10,guess_choice,306,f,0,0,582,94155,777937
11,18,female,België,1,35,guess,neutral,5,right,10,guess_outcome,0,undefined,0,0,582,92602,779490
11,18,female,België,1,35,ITC,neutral,5,right,10,ITC_start,1360,space,0,0,582,91241,780851
11,18,female,België,1,35,ITC,neutral,5,right,10,ITC_wait,0,undefined,0,0,582,90367,781725
11,18,female,België,1,35,ITC,neutral,5,right,10,ITC_choice,871,f,0,0,582,90369,781723
11,18,female,België,1,35,ITC,neutral,5,right,10,ITC_collect,840,k,0,0,582,89526,782566
11,18,female,België,1,35,ITC,neutral,5,right,10,ITC_outcome,0,undefined,0,0,592,88523,783569
11,18,female,België,1,36,guess,loss,5,left,8,guess_start,516,space,0,0,592,88006,784086
11,18,female,België,1,36,guess,loss,5,left,8,guess_choice,587,j,0,0,592,87417,784675
11,18,female,België,1,36,guess,loss,5,left,8,guess_outcome,0,undefined,0,0,577,85863,786229
11,18,female,België,1,36,ITC,loss,5,left,8,ITC_start,1228,space,0,0,577,84634,787458
11,18,female,België,1,36,ITC,loss,5,left,8,ITC_choice,1517,j,0,0,577,83116,788976
11,18,female,België,1,36,ITC,loss,5,left,8,ITC_wait,0,undefined,0,0,577,83114,788978
11,18,female,België,1,36,ITC,loss,5,left,8,ITC_collect,1370,k,0,0,577,81743,790349
11,18,female,België,1,36,ITC,loss,5,left,8,ITC_outcome,0,undefined,0,0,585,80740,791352
11,18,female,België,1,37,guess,loss,10,left,4,guess_start,342,space,0,0,585,80397,791695
11,18,female,België,1,37,guess,loss,10,left,4,guess_choice,515,j,0,0,585,79879,792213
11,18,female,België,1,37,guess,loss,10,left,4,guess_outcome,0,undefined,0,0,570,78326,793766
11,18,female,België,1,37,ITC,loss,10,left,4,ITC_start,695,space,0,0,570,77630,794462
11,18,female,België,1,37,ITC,loss,10,left,4,ITC_choice,920,f,0,0,570,76709,795383
11,18,female,België,1,37,ITC,loss,10,left,4,ITC_wait,0,undefined,0,0,570,66707,805385
11,18,female,België,1,37,ITC,loss,10,left,4,ITC_collect,343,k,0,0,570,66362,805730
11,18,female,België,1,37,ITC,loss,10,left,4,ITC_outcome,0,undefined,0,0,590,65360,806732
11,18,female,België,1,38,guess,neutral,5,right,6,guess_start,301,space,0,0,590,65057,807035
11,18,female,België,1,38,guess,neutral,5,right,6,guess_choice,399,j,0,0,590,64656,807436
11,18,female,België,1,38,guess,neutral,5,right,6,guess_outcome,0,undefined,0,0,590,63103,808989
11,18,female,België,1,38,ITC,neutral,5,right,6,ITC_start,473,space,0,0,590,62629,809463
11,18,female,België,1,38,ITC,neutral,5,right,6,ITC_wait,0,undefined,0,0,590,61969,810123
11,18,female,België,1,38,ITC,neutral,5,right,6,ITC_choice,656,f,0,0,590,61972,810120
11,18,female,België,1,38,ITC,neutral,5,right,6,ITC_collect,678,k,0,0,590,61291,810801
11,18,female,België,1,38,ITC,neutral,5,right,6,ITC_outcome,0,undefined,0,0,596,60287,811805
11,18,female,België,1,39,guess,loss,5,left,14,guess_start,116,space,0,0,596,60170,811922
11,18,female,België,1,39,guess,loss,5,left,14,guess_choice,519,j,0,0,596,59649,812443
11,18,female,België,1,39,guess,loss,5,left,14,guess_outcome,0,undefined,0,0,581,58095,813997
11,18,female,België,1,39,ITC,loss,5,left,14,ITC_start,372,space,0,0,581,57722,814370
11,18,female,België,1,39,ITC,loss,5,left,14,ITC_choice,641,f,0,0,581,57079,815013
11,18,female,België,1,39,ITC,loss,5,left,14,ITC_wait,0,undefined,0,0,581,52077,820015
11,18,female,België,1,39,ITC,loss,5,left,14,ITC_collect,1199,k,0,0,581,50877,821215
11,18,female,België,1,39,ITC,loss,5,left,14,ITC_outcome,0,undefined,0,0,601,49874,822218
11,18,female,België,1,40,guess,loss,5,left,11,guess_start,723,space,0,0,601,49150,822942
11,18,female,België,1,40,guess,loss,5,left,11,guess_choice,2465,j,0,0,601,46682,825410
11,18,female,België,1,40,guess,loss,5,left,11,guess_outcome,0,undefined,0,0,586,45129,826963
11,18,female,België,1,40,ITC,loss,5,left,11,ITC_start,559,space,0,0,586,44569,827523
11,18,female,België,1,40,ITC,loss,5,left,11,ITC_choice,514,j,0,0,586,44054,828038
11,18,female,België,1,40,ITC,loss,5,left,11,ITC_wait,0,undefined,0,0,586,44052,828040
11,18,female,België,1,40,ITC,loss,5,left,11,ITC_collect,1045,k,0,0,586,43006,829086
11,18,female,België,1,40,ITC,loss,5,left,11,ITC_outcome,0,undefined,0,0,597,42003,830089
11,18,female,België,1,41,guess,loss,5,left,16,guess_start,446,space,0,0,597,41556,830536
11,18,female,België,1,41,guess,loss,5,left,16,guess_choice,456,j,0,0,597,41098,830994
11,18,female,België,1,41,guess,loss,5,left,16,guess_outcome,0,undefined,0,0,582,39545,832547
11,18,female,België,1,41,ITC,loss,5,left,16,ITC_start,540,space,0,0,582,39004,833088
11,18,female,België,1,41,ITC,loss,5,left,16,ITC_choice,637,f,0,0,582,38366,833726
11,18,female,België,1,41,ITC,loss,5,left,16,ITC_wait,0,undefined,0,0,582,33362,838730
11,18,female,België,1,41,ITC,loss,5,left,16,ITC_collect,965,k,0,0,582,32396,839696
11,18,female,België,1,41,ITC,loss,5,left,16,ITC_outcome,0,undefined,0,0,602,31394,840698
11,18,female,België,1,42,guess,win,10,right,6,guess_start,50,space,0,0,602,31343,840749
11,18,female,België,1,42,guess,win,10,right,6,guess_choice,505,j,0,0,602,30836,841256
11,18,female,België,1,42,guess,win,10,right,6,guess_outcome,0,undefined,0,0,622,29284,842808
11,18,female,België,1,42,ITC,win,10,right,6,ITC_start,478,space,0,0,622,28805,843287
11,18,female,België,1,42,ITC,win,10,right,6,ITC_choice,680,j,0,0,622,28124,843968
11,18,female,België,1,42,ITC,win,10,right,6,ITC_wait,0,undefined,0,0,622,18121,853971
11,18,female,België,1,42,ITC,win,10,right,6,ITC_collect,444,k,0,0,622,17676,854416
11,18,female,België,1,42,ITC,win,10,right,6,ITC_outcome,0,undefined,0,0,642,16673,855419
11,18,female,België,1,43,guess,loss,10,right,3,guess_start,253,space,0,0,642,16419,855673
11,18,female,België,1,43,guess,loss,10,right,3,guess_choice,538,j,0,0,642,15878,856214
11,18,female,België,1,43,guess,loss,10,right,3,guess_outcome,0,undefined,0,0,627,14324,857768
11,18,female,België,1,43,ITC,loss,10,right,3,ITC_start,512,space,0,0,627,13811,858281
11,18,female,België,1,43,ITC,loss,10,right,3,ITC_choice,1054,j,0,0,627,12756,859336
11,18,female,België,1,43,ITC,loss,10,right,3,ITC_wait,0,undefined,0,0,627,2754,869338
11,18,female,België,1,43,ITC,loss,10,right,3,ITC_collect,682,k,0,0,627,2071,870021
11,18,female,België,1,43,ITC,loss,10,right,3,ITC_outcome,0,undefined,0,0,647,1069,871023
11,18,female,België,1,44,guess,win,5,left,10,guess_start,477,space,0,0,647,590,871502
11,18,female,België,1,44,guess,win,5,left,10,guess_choice,288,j,0,0,647,301,871791
11,18,female,België,1,44,guess,win,5,left,10,guess_outcome,0,undefined,0,0,647,-4,872096
11,18,female,België,2,45,guess,neutral,5,left,9,guess_start,876,space,0,0,0,479124,940747
11,18,female,België,2,45,guess,neutral,5,left,9,guess_choice,1350,f,0,0,0,477771,942100
11,18,female,België,2,45,guess,neutral,5,left,9,guess_outcome,0,undefined,0,0,0,476218,943653
11,18,female,België,2,45,ITC,neutral,5,left,9,ITC_start,1173,space,0,0,0,475044,944827
11,18,female,België,2,45,ITC,neutral,5,left,9,ITC_choice,654,f,0,0,0,474389,945482
11,18,female,België,2,45,ITC,neutral,5,left,9,ITC_wait,0,undefined,0,0,0,469385,950486
11,18,female,België,2,45,ITC,neutral,5,left,9,ITC_collect,315,k,0,0,0,469069,950802
11,18,female,België,2,45,ITC,neutral,5,left,9,ITC_outcome,0,undefined,0,0,20,468067,951804
11,18,female,België,2,46,guess,loss,10,right,5,guess_start,352,space,0,0,20,467713,952158
11,18,female,België,2,46,guess,loss,10,right,5,guess_choice,368,j,0,0,20,467343,952528
11,18,female,België,2,46,guess,loss,10,right,5,guess_outcome,0,undefined,0,0,5,465789,954082
11,18,female,België,2,46,ITC,loss,10,right,5,ITC_start,101,space,0,0,5,465687,954184
11,18,female,België,2,46,ITC,loss,10,right,5,ITC_choice,647,j,0,0,5,465039,954832
11,18,female,België,2,46,ITC,loss,10,right,5,ITC_wait,0,undefined,0,0,5,455038,964833
11,18,female,België,2,46,ITC,loss,10,right,5,ITC_collect,326,k,0,0,5,454711,965160
11,18,female,België,2,46,ITC,loss,10,right,5,ITC_outcome,0,undefined,0,0,25,453707,966164
11,18,female,België,2,47,guess,neutral,10,right,1,guess_start,848,space,0,0,25,452857,967014
11,18,female,België,2,47,guess,neutral,10,right,1,guess_choice,1321,f,0,0,25,451534,968337
11,18,female,België,2,47,guess,neutral,10,right,1,guess_outcome,0,undefined,0,0,25,449981,969890
11,18,female,België,2,47,ITC,neutral,10,right,1,ITC_start,1307,space,0,0,25,448672,971199
11,18,female,België,2,47,ITC,neutral,10,right,1,ITC_choice,560,j,0,0,25,448112,971759
11,18,female,België,2,47,ITC,neutral,10,right,1,ITC_wait,0,undefined,0,0,25,438109,981762
11,18,female,België,2,47,ITC,neutral,10,right,1,ITC_collect,345,k,0,0,25,437762,982109
11,18,female,België,2,47,ITC,neutral,10,right,1,ITC_outcome,0,undefined,0,0,45,436760,983111
11,18,female,België,2,48,guess,loss,10,left,8,guess_start,288,space,0,0,45,436471,983400
11,18,female,België,2,48,guess,loss,10,left,8,guess_choice,438,j,0,0,45,436030,983841
11,18,female,België,2,48,guess,loss,10,left,8,guess_outcome,0,undefined,0,0,30,434477,985394
11,18,female,België,2,48,ITC,loss,10,left,8,ITC_start,3206,space,0,0,30,431270,988601
11,18,female,België,2,48,ITC,loss,10,left,8,ITC_choice,739,f,0,0,30,430529,989342
11,18,female,België,2,48,ITC,loss,10,left,8,ITC_wait,0,undefined,0,0,30,420526,999345
11,18,female,België,2,48,ITC,loss,10,left,8,ITC_collect,392,k,0,0,30,420133,999738
11,18,female,België,2,48,ITC,loss,10,left,8,ITC_outcome,0,undefined,0,0,50,419129,1000742
11,18,female,België,2,49,guess,win,10,left,3,guess_start,315,space,0,0,50,418813,1001058
11,18,female,België,2,49,guess,win,10,left,3,guess_choice,652,j,0,0,50,418159,1001712
11,18,female,België,2,49,guess,win,10,left,3,guess_outcome,0,undefined,0,0,70,416606,1003265
11,18,female,België,2,49,ITC,win,10,left,3,ITC_start,581,space,0,0,70,416024,1003847
11,18,female,België,2,49,ITC,win,10,left,3,ITC_choice,1012,f,0,0,70,415011,1004860
11,18,female,België,2,49,ITC,win,10,left,3,ITC_wait,0,undefined,0,0,70,405008,1014863
11,18,female,België,2,49,ITC,win,10,left,3,ITC_collect,402,k,0,0,70,404605,1015266
11,18,female,België,2,49,ITC,win,10,left,3,ITC_outcome,0,undefined,0,0,90,403603,1016268
11,18,female,België,2,50,guess,neutral,5,left,11,guess_start,573,space,0,0,90,403029,1016842
11,18,female,België,2,50,guess,neutral,5,left,11,guess_choice,524,j,0,0,90,402503,1017368
11,18,female,België,2,50,guess,neutral,5,left,11,guess_outcome,0,undefined,0,0,90,400951,1018920
11,18,female,België,2,50,ITC,neutral,5,left,11,ITC_start,540,space,0,0,90,400410,1019461
11,18,female,België,2,50,ITC,neutral,5,left,11,ITC_choice,1128,f,0,0,90,399281,1020590
11,18,female,België,2,50,ITC,neutral,5,left,11,ITC_wait,0,undefined,0,0,90,394279,1025592
11,18,female,België,2,50,ITC,neutral,5,left,11,ITC_collect,1685,k,0,0,90,392593,1027278
11,18,female,België,2,50,ITC,neutral,5,left,11,ITC_outcome,0,undefined,0,0,110,391589,1028282
11,18,female,België,2,51,guess,win,5,right,3,guess_start,331,space,0,0,110,391257,1028614
11,18,female,België,2,51,guess,win,5,right,3,guess_choice,934,j,0,0,110,390320,1029551
11,18,female,België,2,51,guess,win,5,right,3,guess_outcome,0,undefined,0,0,130,388767,1031104
11,18,female,België,2,51,ITC,win,5,right,3,ITC_start,1434,space,0,0,130,387331,1032540
11,18,female,België,2,51,ITC,win,5,right,3,ITC_choice,1134,j,0,0,130,386196,1033675
11,18,female,België,2,51,ITC,win,5,right,3,ITC_wait,0,undefined,0,0,130,381194,1038677
11,18,female,België,2,51,ITC,win,5,right,3,ITC_collect,309,k,0,0,130,380884,1038987
11,18,female,België,2,51,ITC,win,5,right,3,ITC_outcome,0,undefined,0,0,150,379882,1039989
11,18,female,België,2,52,guess,loss,5,right,13,guess_start,305,space,0,0,150,379576,1040295
11,18,female,België,2,52,guess,loss,5,right,13,guess_choice,1471,f,0,0,150,378102,1041769
11,18,female,België,2,52,guess,loss,5,right,13,guess_outcome,0,undefined,0,0,135,376550,1043321
11,18,female,België,2,52,ITC,loss,5,right,13,ITC_start,580,space,0,0,135,375969,1043902
11,18,female,België,2,52,ITC,loss,5,right,13,ITC_choice,974,j,0,0,135,374994,1044877
11,18,female,België,2,52,ITC,loss,5,right,13,ITC_wait,0,undefined,0,0,135,369992,1049879
11,18,female,België,2,52,ITC,loss,5,right,13,ITC_collect,3930,k,0,0,135,366061,1053810
11,18,female,België,2,52,ITC,loss,5,right,13,ITC_outcome,0,undefined,0,0,155,365058,1054813
11,18,female,België,2,53,guess,neutral,5,right,8,guess_start,336,space,0,0,155,364721,1055150
11,18,female,België,2,53,guess,neutral,5,right,8,guess_choice,390,j,0,0,155,364329,1055542
11,18,female,België,2,53,guess,neutral,5,right,8,guess_outcome,0,undefined,0,0,155,362776,1057095
11,18,female,België,2,53,ITC,neutral,5,right,8,ITC_start,1501,space,0,0,155,361274,1058597
11,18,female,België,2,53,ITC,neutral,5,right,8,ITC_choice,620,j,0,0,155,360653,1059218
11,18,female,België,2,53,ITC,neutral,5,right,8,ITC_wait,0,undefined,0,0,155,355650,1064221
11,18,female,België,2,53,ITC,neutral,5,right,8,ITC_collect,406,k,0,0,155,355243,1064628
11,18,female,België,2,53,ITC,neutral,5,right,8,ITC_outcome,0,undefined,0,0,175,354240,1065631
11,18,female,België,2,54,guess,loss,5,right,15,guess_start,414,space,0,0,175,353825,1066046
11,18,female,België,2,54,guess,loss,5,right,15,guess_choice,552,j,0,0,175,353271,1066600
11,18,female,België,2,54,guess,loss,5,right,15,guess_outcome,0,undefined,0,0,160,351718,1068153
11,18,female,België,2,54,ITC,loss,5,right,15,ITC_start,1245,space,0,0,160,350472,1069399
11,18,female,België,2,54,ITC,loss,5,right,15,ITC_choice,645,j,0,0,160,349826,1070045
11,18,female,België,2,54,ITC,loss,5,right,15,ITC_wait,0,undefined,0,0,160,344824,1075047
11,18,female,België,2,54,ITC,loss,5,right,15,ITC_collect,387,k,0,0,160,344435,1075436
11,18,female,België,2,54,ITC,loss,5,right,15,ITC_outcome,0,undefined,0,0,180,343431,1076440
11,18,female,België,2,55,guess,win,5,left,6,guess_start,731,space,0,0,180,342699,1077172
11,18,female,België,2,55,guess,win,5,left,6,guess_choice,557,j,0,0,180,342140,1077731
11,18,female,België,2,55,guess,win,5,left,6,guess_outcome,0,undefined,0,0,200,340586,1079285
11,18,female,België,2,55,ITC,win,5,left,6,ITC_start,671,space,0,0,200,339914,1079957
11,18,female,België,2,55,ITC,win,5,left,6,ITC_wait,0,undefined,0,0,200,339295,1080576
11,18,female,België,2,55,ITC,win,5,left,6,ITC_choice,616,j,0,0,200,339297,1080574
11,18,female,België,2,55,ITC,win,5,left,6,ITC_collect,963,k,0,0,200,338331,1081540
11,18,female,België,2,55,ITC,win,5,left,6,ITC_outcome,0,undefined,0,0,206,337329,1082542
11,18,female,België,2,56,guess,win,5,left,16,guess_start,293,space,0,0,206,337035,1082836
11,18,female,België,2,56,guess,win,5,left,16,guess_choice,454,j,0,0,206,336579,1083292
11,18,female,België,2,56,guess,win,5,left,16,guess_outcome,0,undefined,0,0,226,335026,1084845
11,18,female,België,2,56,ITC,win,5,left,16,ITC_start,608,space,0,0,226,334416,1085455
11,18,female,België,2,56,ITC,win,5,left,16,ITC_choice,492,j,0,0,226,333923,1085948
11,18,female,België,2,56,ITC,win,5,left,16,ITC_wait,0,undefined,0,0,226,333921,1085950
11,18,female,België,2,56,ITC,win,5,left,16,ITC_collect,949,k,0,0,226,332971,1086900
11,18,female,België,2,56,ITC,win,5,left,16,ITC_outcome,0,undefined,0,0,242,331968,1087903
11,18,female,België,2,57,guess,win,10,left,7,guess_start,263,space,0,0,242,331704,1088167
11,18,female,België,2,57,guess,win,10,left,7,guess_choice,535,j,0,0,242,331166,1088705
11,18,female,België,2,57,guess,win,10,left,7,guess_outcome,0,undefined,0,0,262,329613,1090258
11,18,female,België,2,57,ITC,win,10,left,7,ITC_start,705,space,0,0,262,328906,1090965
11,18,female,België,2,57,ITC,win,10,left,7,ITC_choice,1258,j,0,0,262,327647,1092224
11,18,female,België,2,57,ITC,win,10,left,7,ITC_wait,0,undefined,0,0,262,327645,1092226
11,18,female,België,2,57,ITC,win,10,left,7,ITC_collect,465,k,0,0,262,327179,1092692
11,18,female,België,2,57,ITC,win,10,left,7,ITC_outcome,0,undefined,0,0,269,326177,1093694
11,18,female,België,2,58,guess,win,5,right,9,guess_start,311,space,0,0,269,325865,1094006
11,18,female,België,2,58,guess,win,5,right,9,guess_choice,503,j,0,0,269,325360,1094511
11,18,female,België,2,58,guess,win,5,right,9,guess_outcome,0,undefined,0,0,289,323807,1096064
11,18,female,België,2,58,ITC,win,5,right,9,ITC_start,389,space,0,0,289,323417,1096454
11,18,female,België,2,58,ITC,win,5,right,9,ITC_choice,576,j,0,0,289,322839,1097032
11,18,female,België,2,58,ITC,win,5,right,9,ITC_wait,0,undefined,0,0,289,317837,1102034
11,18,female,België,2,58,ITC,win,5,right,9,ITC_collect,1213,k,0,0,289,316623,1103248
11,18,female,België,2,58,ITC,win,5,right,9,ITC_outcome,0,undefined,0,0,309,315621,1104250
11,18,female,België,2,59,guess,neutral,10,left,8,guess_start,309,space,0,0,309,315310,1104561
11,18,female,België,2,59,guess,neutral,10,left,8,guess_choice,459,j,0,0,309,314849,1105022
11,18,female,België,2,59,guess,neutral,10,left,8,guess_outcome,0,undefined,0,0,309,313295,1106576
11,18,female,België,2,59,ITC,neutral,10,left,8,ITC_start,424,space,0,0,309,312870,1107001
11,18,female,België,2,59,ITC,neutral,10,left,8,ITC_choice,497,f,0,0,309,312372,1107499
11,18,female,België,2,59,ITC,neutral,10,left,8,ITC_wait,0,undefined,0,0,309,302370,1117501
11,18,female,België,2,59,ITC,neutral,10,left,8,ITC_collect,2081,k,0,0,309,300287,1119584
11,18,female,België,2,59,ITC,neutral,10,left,8,ITC_outcome,0,undefined,0,0,329,299285,1120586
11,18,female,België,2,60,guess,win,5,left,4,guess_start,1308,space,0,0,329,297976,1121895
11,18,female,België,2,60,guess,win,5,left,4,guess_choice,605,j,0,0,329,297369,1122502
11,18,female,België,2,60,guess,win,5,left,4,guess_outcome,0,undefined,0,0,349,295815,1124056
11,18,female,België,2,60,ITC,win,5,left,4,ITC_start,823,space,0,0,349,294991,1124880
11,18,female,België,2,60,ITC,win,5,left,4,ITC_choice,626,f,0,0,349,294364,1125507
11,18,female,België,2,60,ITC,win,5,left,4,ITC_wait,0,undefined,0,0,349,289362,1130509
11,18,female,België,2,60,ITC,win,5,left,4,ITC_collect,1938,k,0,0,349,287423,1132448
11,18,female,België,2,60,ITC,win,5,left,4,ITC_outcome,0,undefined,0,0,369,286421,1133450
11,18,female,België,2,61,guess,loss,5,left,3,guess_start,828,space,0,0,369,285592,1134279
11,18,female,België,2,61,guess,loss,5,left,3,guess_choice,542,j,0,0,369,285047,1134824
11,18,female,België,2,61,guess,loss,5,left,3,guess_outcome,0,undefined,0,0,354,283493,1136378
11,18,female,België,2,61,ITC,loss,5,left,3,ITC_start,144,space,0,0,354,283347,1136524
11,18,female,België,2,61,ITC,loss,5,left,3,ITC_choice,1245,f,0,0,354,282101,1137770
11,18,female,België,2,61,ITC,loss,5,left,3,ITC_wait,0,undefined,0,0,354,277099,1142772
11,18,female,België,2,61,ITC,loss,5,left,3,ITC_collect,2779,k,0,0,354,274319,1145552
11,18,female,België,2,61,ITC,loss,5,left,3,ITC_outcome,0,undefined,0,0,374,273316,1146555
11,18,female,België,2,62,guess,loss,5,right,4,guess_start,434,space,0,0,374,272880,1146991
11,18,female,België,2,62,guess,loss,5,right,4,guess_choice,618,j,0,0,374,272260,1147611
11,18,female,België,2,62,guess,loss,5,right,4,guess_outcome,0,undefined,0,0,359,270707,1149164
11,18,female,België,2,62,ITC,loss,5,right,4,ITC_start,82,space,0,0,359,270624,1149247
11,18,female,België,2,62,ITC,loss,5,right,4,ITC_choice,833,f,0,0,359,269789,1150082
11,18,female,België,2,62,ITC,loss,5,right,4,ITC_wait,0,undefined,0,0,359,269787,1150084
11,18,female,België,2,62,ITC,loss,5,right,4,ITC_collect,958,k,0,0,359,268828,1151043
11,18,female,België,2,62,ITC,loss,5,right,4,ITC_outcome,0,undefined,0,0,363,267826,1152045
11,18,female,België,2,63,guess,win,5,right,11,guess_start,291,space,0,0,363,267533,1152338
11,18,female,België,2,63,guess,win,5,right,11,guess_choice,1162,j,0,0,363,266369,1153502
11,18,female,België,2,63,guess,win,5,right,11,guess_outcome,0,undefined,0,0,383,264817,1155054
11,18,female,België,2,63,ITC,win,5,right,11,ITC_start,1623,space,0,0,383,263192,1156679
11,18,female,België,2,63,ITC,win,5,right,11,ITC_choice,771,j,0,0,383,262419,1157452
11,18,female,België,2,63,ITC,win,5,right,11,ITC_wait,0,undefined,0,0,383,257417,1162454
11,18,female,België,2,63,ITC,win,5,right,11,ITC_collect,374,k,0,0,383,257042,1162829
11,18,female,België,2,63,ITC,win,5,right,11,ITC_outcome,0,undefined,0,0,403,256039,1163832
11,18,female,België,2,64,guess,loss,5,left,5,guess_start,316,space,0,0,403,255722,1164149
11,18,female,België,2,64,guess,loss,5,left,5,guess_choice,442,j,0,0,403,255277,1164594
11,18,female,België,2,64,guess,loss,5,left,5,guess_outcome,0,undefined,0,0,388,253724,1166147
11,18,female,België,2,64,ITC,loss,5,left,5,ITC_start,1405,space,0,0,388,252317,1167554
11,18,female,België,2,64,ITC,loss,5,left,5,ITC_choice,800,f,0,0,388,251516,1168355
11,18,female,België,2,64,ITC,loss,5,left,5,ITC_wait,0,undefined,0,0,388,246513,1173358
11,18,female,België,2,64,ITC,loss,5,left,5,ITC_collect,1123,k,0,0,388,245388,1174483
11,18,female,België,2,64,ITC,loss,5,left,5,ITC_outcome,0,undefined,0,0,408,244385,1175486
11,18,female,België,2,65,guess,neutral,5,right,1,guess_start,1254,space,0,0,408,243130,1176741
11,18,female,België,2,65,guess,neutral,5,right,1,guess_choice,435,j,0,0,408,242693,1177178
11,18,female,België,2,65,guess,neutral,5,right,1,guess_outcome,0,undefined,0,0,408,241140,1178731
11,18,female,België,2,65,ITC,neutral,5,right,1,ITC_start,1168,space,0,0,408,239970,1179901
11,18,female,België,2,65,ITC,neutral,5,right,1,ITC_choice,570,j,0,0,408,239399,1180472
11,18,female,België,2,65,ITC,neutral,5,right,1,ITC_wait,0,undefined,0,0,408,234397,1185474
11,18,female,België,2,65,ITC,neutral,5,right,1,ITC_collect,2117,k,0,0,408,232278,1187593
11,18,female,België,2,65,ITC,neutral,5,right,1,ITC_outcome,0,undefined,0,0,428,231275,1188596
11,18,female,België,2,66,guess,win,10,left,4,guess_start,415,space,0,0,428,230859,1189012
11,18,female,België,2,66,guess,win,10,left,4,guess_choice,707,f,0,0,428,230149,1189722
11,18,female,België,2,66,guess,win,10,left,4,guess_outcome,0,undefined,0,0,448,228595,1191276
11,18,female,België,2,66,ITC,win,10,left,4,ITC_start,532,space,0,0,448,228062,1191809
11,18,female,België,2,66,ITC,win,10,left,4,ITC_choice,636,j,0,0,448,227425,1192446
11,18,female,België,2,66,ITC,win,10,left,4,ITC_wait,0,undefined,0,0,448,227422,1192449
11,18,female,België,2,66,ITC,win,10,left,4,ITC_collect,806,k,0,0,448,226615,1193256
11,18,female,België,2,66,ITC,win,10,left,4,ITC_outcome,0,undefined,0,0,452,225611,1194260
11,18,female,België,2,67,guess,loss,5,left,12,guess_start,269,space,0,0,452,225340,1194531
11,18,female,België,2,67,guess,loss,5,left,12,guess_choice,428,j,0,0,452,224910,1194961
11,18,female,België,2,67,guess,loss,5,left,12,guess_outcome,0,undefined,0,0,437,223354,1196517
11,18,female,België,2,67,ITC,loss,5,left,12,ITC_start,724,space,0,0,437,222629,1197242
11,18,female,België,2,67,ITC,loss,5,left,12,ITC_choice,586,f,0,0,437,222041,1197830
11,18,female,België,2,67,ITC,loss,5,left,12,ITC_wait,0,undefined,0,0,437,217038,1202833
11,18,female,België,2,67,ITC,loss,5,left,12,ITC_collect,1227,k,0,0,437,215810,1204061
11,18,female,België,2,67,ITC,loss,5,left,12,ITC_outcome,0,undefined,0,0,457,214807,1205064
11,18,female,België,2,68,guess,win,5,right,7,guess_start,1508,space,0,0,457,213297,1206574
11,18,female,België,2,68,guess,win,5,right,7,guess_choice,492,j,0,0,457,212803,1207068
11,18,female,België,2,68,guess,win,5,right,7,guess_outcome,0,undefined,0,0,477,211251,1208620
11,18,female,België,2,68,ITC,win,5,right,7,ITC_start,2121,space,0,0,477,209128,1210743
11,18,female,België,2,68,ITC,win,5,right,7,ITC_choice,957,f,0,0,477,208170,1211701
11,18,female,België,2,68,ITC,win,5,right,7,ITC_wait,0,undefined,0,0,477,208167,1211704
11,18,female,België,2,68,ITC,win,5,right,7,ITC_collect,838,k,0,0,477,207329,1212542
11,18,female,België,2,68,ITC,win,5,right,7,ITC_outcome,0,undefined,0,0,484,206326,1213545
11,18,female,België,2,69,guess,neutral,10,right,3,guess_start,758,space,0,0,484,205567,1214304
11,18,female,België,2,69,guess,neutral,10,right,3,guess_choice,1004,f,0,0,484,204561,1215310
11,18,female,België,2,69,guess,neutral,10,right,3,guess_outcome,0,undefined,0,0,484,203008,1216863
11,18,female,België,2,69,ITC,neutral,10,right,3,ITC_start,531,space,0,0,484,202476,1217395
11,18,female,België,2,69,ITC,neutral,10,right,3,ITC_choice,614,j,0,0,484,201861,1218010
11,18,female,België,2,69,ITC,neutral,10,right,3,ITC_wait,0,undefined,0,0,484,191859,1228012
11,18,female,België,2,69,ITC,neutral,10,right,3,ITC_collect,634,k,0,0,484,191224,1228647
11,18,female,België,2,69,ITC,neutral,10,right,3,ITC_outcome,0,undefined,0,0,504,190222,1229649
11,18,female,België,2,70,guess,win,5,left,2,guess_start,684,space,0,0,504,189536,1230335
11,18,female,België,2,70,guess,win,5,left,2,guess_choice,523,j,0,0,504,189011,1230860
11,18,female,België,2,70,guess,win,5,left,2,guess_outcome,0,undefined,0,0,524,187457,1232414
11,18,female,België,2,70,ITC,win,5,left,2,ITC_start,423,space,0,0,524,187034,1232837
11,18,female,België,2,70,ITC,win,5,left,2,ITC_choice,508,j,0,0,524,186525,1233346
11,18,female,België,2,70,ITC,win,5,left,2,ITC_wait,0,undefined,0,0,524,186522,1233349
11,18,female,België,2,70,ITC,win,5,left,2,ITC_collect,917,k,0,0,524,185605,1234266
11,18,female,België,2,70,ITC,win,5,left,2,ITC_outcome,0,undefined,0,0,526,184602,1235269
11,18,female,België,2,71,guess,neutral,10,right,6,guess_start,275,space,0,0,526,184326,1235545
11,18,female,België,2,71,guess,neutral,10,right,6,guess_choice,461,j,0,0,526,183863,1236008
11,18,female,België,2,71,guess,neutral,10,right,6,guess_outcome,0,undefined,0,0,526,182309,1237562
11,18,female,België,2,71,ITC,neutral,10,right,6,ITC_start,720,space,0,0,526,181588,1238283
11,18,female,België,2,71,ITC,neutral,10,right,6,ITC_choice,839,f,0,0,526,180748,1239123
11,18,female,België,2,71,ITC,neutral,10,right,6,ITC_wait,0,undefined,0,0,526,180746,1239125
11,18,female,België,2,71,ITC,neutral,10,right,6,ITC_collect,572,k,0,0,526,180174,1239697
11,18,female,België,2,71,ITC,neutral,10,right,6,ITC_outcome,0,undefined,0,0,532,179171,1240700
11,18,female,België,2,72,guess,win,10,left,8,guess_start,279,space,0,0,532,178891,1240980
11,18,female,België,2,72,guess,win,10,left,8,guess_choice,452,j,0,0,532,178437,1241434
11,18,female,België,2,72,guess,win,10,left,8,guess_outcome,0,undefined,0,0,552,176884,1242987
11,18,female,België,2,72,ITC,win,10,left,8,ITC_start,457,space,0,0,552,176426,1243445
11,18,female,België,2,72,ITC,win,10,left,8,ITC_choice,626,f,0,0,552,175798,1244073
11,18,female,België,2,72,ITC,win,10,left,8,ITC_wait,0,undefined,0,0,552,165796,1254075
11,18,female,België,2,72,ITC,win,10,left,8,ITC_collect,435,k,0,0,552,165360,1254511
11,18,female,België,2,72,ITC,win,10,left,8,ITC_outcome,0,undefined,0,0,572,164354,1255517
11,18,female,België,2,73,guess,loss,5,right,1,guess_start,309,space,0,0,572,164044,1255827
11,18,female,België,2,73,guess,loss,5,right,1,guess_choice,569,j,0,0,572,163473,1256398
11,18,female,België,2,73,guess,loss,5,right,1,guess_outcome,0,undefined,0,0,557,161919,1257952
11,18,female,België,2,73,ITC,loss,5,right,1,ITC_start,455,space,0,0,557,161464,1258407
11,18,female,België,2,73,ITC,loss,5,right,1,ITC_choice,616,j,0,0,557,160846,1259025
11,18,female,België,2,73,ITC,loss,5,right,1,ITC_wait,0,undefined,0,0,557,155843,1264028
11,18,female,België,2,73,ITC,loss,5,right,1,ITC_collect,1510,k,0,0,557,154332,1265539
11,18,female,België,2,73,ITC,loss,5,right,1,ITC_outcome,0,undefined,0,0,577,153330,1266541
11,18,female,België,2,74,guess,neutral,5,left,12,guess_start,320,space,0,0,577,153008,1266863
11,18,female,België,2,74,guess,neutral,5,left,12,guess_choice,864,f,0,0,577,152141,1267730
11,18,female,België,2,74,guess,neutral,5,left,12,guess_outcome,0,undefined,0,0,577,150587,1269284
11,18,female,België,2,74,ITC,neutral,5,left,12,ITC_start,550,space,0,0,577,150036,1269835
11,18,female,België,2,74,ITC,neutral,5,left,12,ITC_choice,661,f,0,0,577,149374,1270497
11,18,female,België,2,74,ITC,neutral,5,left,12,ITC_wait,0,undefined,0,0,577,144372,1275499
11,18,female,België,2,74,ITC,neutral,5,left,12,ITC_collect,396,k,0,0,577,143975,1275896
11,18,female,België,2,74,ITC,neutral,5,left,12,ITC_outcome,0,undefined,0,0,597,142973,1276898
11,18,female,België,2,75,guess,win,5,left,3,guess_start,397,space,0,0,597,142575,1277296
11,18,female,België,2,75,guess,win,5,left,3,guess_choice,522,j,0,0,597,142051,1277820
11,18,female,België,2,75,guess,win,5,left,3,guess_outcome,0,undefined,0,0,617,140497,1279374
11,18,female,België,2,75,ITC,win,5,left,3,ITC_start,1833,space,0,0,617,138664,1281207
11,18,female,België,2,75,ITC,win,5,left,3,ITC_choice,598,f,0,0,617,138064,1281807
11,18,female,België,2,75,ITC,win,5,left,3,ITC_wait,0,undefined,0,0,617,133063,1286808
11,18,female,België,2,75,ITC,win,5,left,3,ITC_collect,1294,k,0,0,617,131767,1288104
11,18,female,België,2,75,ITC,win,5,left,3,ITC_outcome,0,undefined,0,0,637,130764,1289107
11,18,female,België,2,76,guess,win,5,right,12,guess_start,696,space,0,0,637,130067,1289804
11,18,female,België,2,76,guess,win,5,right,12,guess_choice,554,j,0,0,637,129511,1290360
11,18,female,België,2,76,guess,win,5,right,12,guess_outcome,0,undefined,0,0,657,127957,1291914
11,18,female,België,2,76,ITC,win,5,right,12,ITC_start,489,space,0,0,657,127467,1292404
11,18,female,België,2,76,ITC,win,5,right,12,ITC_choice,589,j,0,0,657,126877,1292994
11,18,female,België,2,76,ITC,win,5,right,12,ITC_wait,0,undefined,0,0,657,121875,1297996
11,18,female,België,2,76,ITC,win,5,right,12,ITC_collect,803,k,0,0,657,121071,1298800
11,18,female,België,2,76,ITC,win,5,right,12,ITC_outcome,0,undefined,0,0,677,120068,1299803
11,18,female,België,2,77,guess,win,5,right,9,guess_start,380,space,0,0,677,119687,1300184
11,18,female,België,2,77,guess,win,5,right,9,guess_choice,462,j,0,0,677,119223,1300648
11,18,female,België,2,77,guess,win,5,right,9,guess_outcome,0,undefined,0,0,697,117670,1302201
11,18,female,België,2,77,ITC,win,5,right,9,ITC_start,347,space,0,0,697,117322,1302549
11,18,female,België,2,77,ITC,win,5,right,9,ITC_choice,634,j,0,0,697,116687,1303184
11,18,female,België,2,77,ITC,win,5,right,9,ITC_wait,0,undefined,0,0,697,111685,1308186
11,18,female,België,2,77,ITC,win,5,right,9,ITC_collect,833,k,0,0,697,110851,1309020
11,18,female,België,2,77,ITC,win,5,right,9,ITC_outcome,0,undefined,0,0,717,109848,1310023
11,18,female,België,2,78,guess,win,5,left,8,guess_start,742,space,0,0,717,109105,1310766
11,18,female,België,2,78,guess,win,5,left,8,guess_choice,430,j,0,0,717,108673,1311198
11,18,female,België,2,78,guess,win,5,left,8,guess_outcome,0,undefined,0,0,737,107119,1312752
11,18,female,België,2,78,ITC,win,5,left,8,ITC_start,657,space,0,0,737,106461,1313410
11,18,female,België,2,78,ITC,win,5,left,8,ITC_choice,599,f,0,0,737,105861,1314010
11,18,female,België,2,78,ITC,win,5,left,8,ITC_wait,0,undefined,0,0,737,100857,1319014
11,18,female,België,2,78,ITC,win,5,left,8,ITC_collect,504,k,0,0,737,100352,1319519
11,18,female,België,2,78,ITC,win,5,left,8,ITC_outcome,0,undefined,0,0,757,99350,1320521
11,18,female,België,2,79,guess,win,10,left,6,guess_start,312,space,0,0,757,99036,1320835
11,18,female,België,2,79,guess,win,10,left,6,guess_choice,484,j,0,0,757,98550,1321321
11,18,female,België,2,79,guess,win,10,left,6,guess_outcome,0,undefined,0,0,777,96998,1322873
11,18,female,België,2,79,ITC,win,10,left,6,ITC_start,1797,space,0,0,777,95200,1324671
11,18,female,België,2,79,ITC,win,10,left,6,ITC_choice,628,f,0,0,777,94571,1325300
11,18,female,België,2,79,ITC,win,10,left,6,ITC_wait,0,undefined,0,0,777,84569,1335302
11,18,female,België,2,79,ITC,win,10,left,6,ITC_collect,1035,k,0,0,777,83533,1336338
11,18,female,België,2,79,ITC,win,10,left,6,ITC_outcome,0,undefined,0,0,797,82529,1337342
11,18,female,België,2,80,guess,win,5,right,10,guess_start,845,space,0,0,797,81683,1338188
11,18,female,België,2,80,guess,win,5,right,10,guess_choice,620,j,0,0,797,81061,1338810
11,18,female,België,2,80,guess,win,5,right,10,guess_outcome,0,undefined,0,0,817,79507,1340364
11,18,female,België,2,80,ITC,win,5,right,10,ITC_start,559,space,0,0,817,78947,1340924
11,18,female,België,2,80,ITC,win,5,right,10,ITC_choice,682,j,0,0,817,78263,1341608
11,18,female,België,2,80,ITC,win,5,right,10,ITC_wait,0,undefined,0,0,817,73260,1346611
11,18,female,België,2,80,ITC,win,5,right,10,ITC_collect,1230,k,0,0,817,72028,1347843
11,18,female,België,2,80,ITC,win,5,right,10,ITC_outcome,0,undefined,0,0,837,71025,1348846
11,18,female,België,2,81,guess,neutral,5,left,2,guess_start,370,space,0,0,837,70652,1349219
11,18,female,België,2,81,guess,neutral,5,left,2,guess_choice,493,j,0,0,837,70157,1349714
11,18,female,België,2,81,guess,neutral,5,left,2,guess_outcome,0,undefined,0,0,837,68604,1351267
11,18,female,België,2,81,ITC,neutral,5,left,2,ITC_start,1598,space,0,0,837,67005,1352866
11,18,female,België,2,81,ITC,neutral,5,left,2,ITC_choice,656,f,0,0,837,66348,1353523
11,18,female,België,2,81,ITC,neutral,5,left,2,ITC_wait,0,undefined,0,0,837,61346,1358525
11,18,female,België,2,81,ITC,neutral,5,left,2,ITC_collect,898,k,0,0,837,60447,1359424
11,18,female,België,2,81,ITC,neutral,5,left,2,ITC_outcome,0,undefined,0,0,857,59444,1360427
11,18,female,België,2,82,guess,loss,5,right,2,guess_start,731,space,0,0,857,58711,1361160
11,18,female,België,2,82,guess,loss,5,right,2,guess_choice,447,j,0,0,857,58262,1361609
11,18,female,België,2,82,guess,loss,5,right,2,guess_outcome,0,undefined,0,0,842,56710,1363161
11,18,female,België,2,82,ITC,loss,5,right,2,ITC_start,3417,space,0,0,842,53292,1366579
11,18,female,België,2,82,ITC,loss,5,right,2,ITC_choice,549,j,0,0,842,52741,1367130
11,18,female,België,2,82,ITC,loss,5,right,2,ITC_wait,0,undefined,0,0,842,47738,1372133
11,18,female,België,2,82,ITC,loss,5,right,2,ITC_collect,2389,k,0,0,842,45348,1374523
11,18,female,België,2,82,ITC,loss,5,right,2,ITC_outcome,0,undefined,0,0,862,44344,1375527
11,18,female,België,2,83,guess,win,5,right,6,guess_start,944,space,0,0,862,43398,1376473
11,18,female,België,2,83,guess,win,5,right,6,guess_choice,600,j,0,0,862,42795,1377076
11,18,female,België,2,83,guess,win,5,right,6,guess_outcome,0,undefined,0,0,882,41241,1378630
11,18,female,België,2,83,ITC,win,5,right,6,ITC_start,513,space,0,0,882,40726,1379145
11,18,female,België,2,83,ITC,win,5,right,6,ITC_choice,506,j,0,0,882,40220,1379651
11,18,female,België,2,83,ITC,win,5,right,6,ITC_wait,0,undefined,0,0,882,35218,1384653
11,18,female,België,2,83,ITC,win,5,right,6,ITC_collect,1173,k,0,0,882,34043,1385828
11,18,female,België,2,83,ITC,win,5,right,6,ITC_outcome,0,undefined,0,0,902,33040,1386831
11,18,female,België,2,84,guess,neutral,10,right,4,guess_start,1896,space,0,0,902,31143,1388728
11,18,female,België,2,84,guess,neutral,10,right,4,guess_choice,871,f,0,0,902,30269,1389602
11,18,female,België,2,84,guess,neutral,10,right,4,guess_outcome,0,undefined,0,0,902,28716,1391155
11,18,female,België,2,84,ITC,neutral,10,right,4,ITC_start,407,space,0,0,902,28308,1391563
11,18,female,België,2,84,ITC,neutral,10,right,4,ITC_choice,540,j,0,0,902,27767,1392104
11,18,female,België,2,84,ITC,neutral,10,right,4,ITC_wait,0,undefined,0,0,902,17764,1402107
11,18,female,België,2,84,ITC,neutral,10,right,4,ITC_collect,349,k,0,0,902,17413,1402458
11,18,female,België,2,84,ITC,neutral,10,right,4,ITC_outcome,0,undefined,0,0,922,16411,1403460
11,18,female,België,2,85,guess,loss,5,right,14,guess_start,648,space,0,0,922,15761,1404110
11,18,female,België,2,85,guess,loss,5,right,14,guess_choice,475,j,0,0,922,15284,1404587
11,18,female,België,2,85,guess,loss,5,right,14,guess_outcome,0,undefined,0,0,907,13732,1406139
11,18,female,België,2,85,ITC,loss,5,right,14,ITC_start,797,space,0,0,907,12934,1406937
11,18,female,België,2,85,ITC,loss,5,right,14,ITC_choice,547,j,0,0,907,12386,1407485
11,18,female,België,2,85,ITC,loss,5,right,14,ITC_wait,0,undefined,0,0,907,7384,1412487
11,18,female,België,2,85,ITC,loss,5,right,14,ITC_collect,492,k,0,0,907,6890,1412981
11,18,female,België,2,85,ITC,loss,5,right,14,ITC_outcome,0,undefined,0,0,927,5887,1413984
11,18,female,België,2,86,guess,loss,10,right,8,guess_start,662,space,0,0,927,5224,1414647
11,18,female,België,2,86,guess,loss,10,right,8,guess_choice,539,j,0,0,927,4683,1415188
11,18,female,België,2,86,guess,loss,10,right,8,guess_outcome,0,undefined,0,0,912,3129,1416742
11,18,female,België,2,86,ITC,loss,10,right,8,ITC_start,331,space,0,0,912,2798,1417073
11,18,female,België,2,86,ITC,loss,10,right,8,ITC_choice,627,j,0,0,912,2170,1417701
11,18,female,België,2,86,ITC,loss,10,right,8,ITC_wait,0,undefined,0,0,912,-2,1419873
11,18,female,België,3,87,guess,neutral,5,right,14,guess_start,1010,space,0,0,0,478989,1430203
11,18,female,België,3,87,guess,neutral,5,right,14,guess_choice,640,j,0,0,0,478347,1430845
11,18,female,België,3,87,guess,neutral,5,right,14,guess_outcome,0,undefined,0,0,0,476795,1432397
11,18,female,België,3,87,ITC,neutral,5,right,14,ITC_start,499,space,0,0,0,476295,1432897
11,18,female,België,3,87,ITC,neutral,5,right,14,ITC_choice,538,j,0,0,0,475755,1433437
11,18,female,België,3,87,ITC,neutral,5,right,14,ITC_wait,0,undefined,0,0,0,470751,1438441
11,18,female,België,3,87,ITC,neutral,5,right,14,ITC_collect,560,k,0,0,0,470189,1439003
11,18,female,België,3,87,ITC,neutral,5,right,14,ITC_outcome,0,undefined,0,0,20,469187,1440005
11,18,female,België,3,88,guess,neutral,5,left,4,guess_start,288,space,0,0,20,468898,1440294
11,18,female,België,3,88,guess,neutral,5,left,4,guess_choice,447,j,0,0,20,468449,1440743
11,18,female,België,3,88,guess,neutral,5,left,4,guess_outcome,0,undefined,0,0,20,466895,1442297
11,18,female,België,3,88,ITC,neutral,5,left,4,ITC_start,472,space,0,0,20,466422,1442770
11,18,female,België,3,88,ITC,neutral,5,left,4,ITC_choice,587,f,0,0,20,465833,1443359
11,18,female,België,3,88,ITC,neutral,5,left,4,ITC_wait,0,undefined,0,0,20,460831,1448361
11,18,female,België,3,88,ITC,neutral,5,left,4,ITC_collect,440,k,0,0,20,460389,1448803
11,18,female,België,3,88,ITC,neutral,5,left,4,ITC_outcome,0,undefined,0,0,40,459387,1449805
11,18,female,België,3,89,guess,neutral,5,right,8,guess_start,1425,space,0,0,40,457960,1451232
11,18,female,België,3,89,guess,neutral,5,right,8,guess_choice,665,f,0,0,40,457291,1451901
11,18,female,België,3,89,guess,neutral,5,right,8,guess_outcome,0,undefined,0,0,40,455738,1453454
11,18,female,België,3,89,ITC,neutral,5,right,8,ITC_start,797,space,0,0,40,454940,1454252
11,18,female,België,3,89,ITC,neutral,5,right,8,ITC_choice,558,j,0,0,40,454381,1454811
11,18,female,België,3,89,ITC,neutral,5,right,8,ITC_wait,0,undefined,0,0,40,449378,1459814
11,18,female,België,3,89,ITC,neutral,5,right,8,ITC_collect,906,k,0,0,40,448471,1460721
11,18,female,België,3,89,ITC,neutral,5,right,8,ITC_outcome,0,undefined,0,0,60,447469,1461723
11,18,female,België,3,90,guess,win,10,left,4,guess_start,797,space,0,0,60,446671,1462521
11,18,female,België,3,90,guess,win,10,left,4,guess_choice,669,j,0,0,60,446000,1463192
11,18,female,België,3,90,guess,win,10,left,4,guess_outcome,0,undefined,0,0,80,444447,1464745
11,18,female,België,3,90,ITC,win,10,left,4,ITC_start,695,space,0,0,80,443751,1465441
11,18,female,België,3,90,ITC,win,10,left,4,ITC_choice,783,f,0,0,80,442966,1466226
11,18,female,België,3,90,ITC,win,10,left,4,ITC_wait,0,undefined,0,0,80,432965,1476227
11,18,female,België,3,90,ITC,win,10,left,4,ITC_collect,398,k,0,0,80,432566,1476626
11,18,female,België,3,90,ITC,win,10,left,4,ITC_outcome,0,undefined,0,0,100,431564,1477628
11,18,female,België,3,91,guess,neutral,5,right,7,guess_start,739,space,0,0,100,430823,1478369
11,18,female,België,3,91,guess,neutral,5,right,7,guess_choice,464,j,0,0,100,430357,1478835
11,18,female,België,3,91,guess,neutral,5,right,7,guess_outcome,0,undefined,0,0,100,428805,1480387
11,18,female,België,3,91,ITC,neutral,5,right,7,ITC_start,1041,space,0,0,100,427762,1481430
11,18,female,België,3,91,ITC,neutral,5,right,7,ITC_choice,515,j,0,0,100,427245,1481947
11,18,female,België,3,91,ITC,neutral,5,right,7,ITC_wait,0,undefined,0,0,100,422243,1486949
11,18,female,België,3,91,ITC,neutral,5,right,7,ITC_collect,2474,k,0,0,100,419768,1489424
11,18,female,België,3,91,ITC,neutral,5,right,7,ITC_outcome,0,undefined,0,0,120,418765,1490427
11,18,female,België,3,92,guess,neutral,10,left,1,guess_start,514,space,0,0,120,418249,1490943
11,18,female,België,3,92,guess,neutral,10,left,1,guess_choice,414,j,0,0,120,417833,1491359
11,18,female,België,3,92,guess,neutral,10,left,1,guess_outcome,0,undefined,0,0,120,416279,1492913
11,18,female,België,3,92,ITC,neutral,10,left,1,ITC_start,1045,space,0,0,120,415233,1493959
11,18,female,België,3,92,ITC,neutral,10,left,1,ITC_choice,792,f,0,0,120,414440,1494752
11,18,female,België,3,92,ITC,neutral,10,left,1,ITC_wait,0,undefined,0,0,120,404437,1504755
11,18,female,België,3,92,ITC,neutral,10,left,1,ITC_collect,740,k,0,0,120,403696,1505496
11,18,female,België,3,92,ITC,neutral,10,left,1,ITC_outcome,0,undefined,0,0,140,402694,1506498
11,18,female,België,3,93,guess,loss,5,right,10,guess_start,698,space,0,0,140,401995,1507197
11,18,female,België,3,93,guess,loss,5,right,10,guess_choice,509,j,0,0,140,401483,1507709
11,18,female,België,3,93,guess,loss,5,right,10,guess_outcome,0,undefined,0,0,125,399930,1509262
11,18,female,België,3,93,ITC,loss,5,right,10,ITC_start,2123,space,0,0,125,397806,1511386
11,18,female,België,3,93,ITC,loss,5,right,10,ITC_choice,565,j,0,0,125,397240,1511952
11,18,female,België,3,93,ITC,loss,5,right,10,ITC_wait,0,undefined,0,0,125,392239,1516953
11,18,female,België,3,93,ITC,loss,5,right,10,ITC_collect,973,k,0,0,125,391264,1517928
11,18,female,België,3,93,ITC,loss,5,right,10,ITC_outcome,0,undefined,0,0,145,390261,1518931
11,18,female,België,3,94,guess,neutral,5,left,5,guess_start,865,space,0,0,145,389395,1519797
11,18,female,België,3,94,guess,neutral,5,left,5,guess_choice,706,f,0,0,145,388687,1520505
11,18,female,België,3,94,guess,neutral,5,left,5,guess_outcome,0,undefined,0,0,145,387133,1522059
11,18,female,België,3,94,ITC,neutral,5,left,5,ITC_start,376,space,0,0,145,386756,1522436
11,18,female,België,3,94,ITC,neutral,5,left,5,ITC_choice,556,f,0,0,145,386199,1522993
11,18,female,België,3,94,ITC,neutral,5,left,5,ITC_wait,0,undefined,0,0,145,381196,1527996
11,18,female,België,3,94,ITC,neutral,5,left,5,ITC_collect,976,k,0,0,145,380218,1528974
11,18,female,België,3,94,ITC,neutral,5,left,5,ITC_outcome,0,undefined,0,0,165,379216,1529976
11,18,female,België,3,95,guess,neutral,5,left,13,guess_start,1934,space,0,0,165,377280,1531912
11,18,female,België,3,95,guess,neutral,5,left,13,guess_choice,551,j,0,0,165,376727,1532465
11,18,female,België,3,95,guess,neutral,5,left,13,guess_outcome,0,undefined,0,0,165,375173,1534019
11,18,female,België,3,95,ITC,neutral,5,left,13,ITC_start,524,space,0,0,165,374648,1534544
11,18,female,België,3,95,ITC,neutral,5,left,13,ITC_choice,564,f,0,0,165,374082,1535110
11,18,female,België,3,95,ITC,neutral,5,left,13,ITC_wait,0,undefined,0,0,165,369081,1540111
11,18,female,België,3,95,ITC,neutral,5,left,13,ITC_collect,628,k,0,0,165,368452,1540740
11,18,female,België,3,95,ITC,neutral,5,left,13,ITC_outcome,0,undefined,0,0,185,367449,1541743
11,18,female,België,3,96,guess,neutral,5,right,6,guess_start,1341,space,0,0,185,366107,1543085
11,18,female,België,3,96,guess,neutral,5,right,6,guess_choice,598,f,0,0,185,365507,1543685
11,18,female,België,3,96,guess,neutral,5,right,6,guess_outcome,0,undefined,0,0,185,363955,1545237
11,18,female,België,3,96,ITC,neutral,5,right,6,ITC_start,1972,space,0,0,185,361981,1547211
11,18,female,België,3,96,ITC,neutral,5,right,6,ITC_choice,1008,j,0,0,185,360972,1548220
11,18,female,België,3,96,ITC,neutral,5,right,6,ITC_wait,0,undefined,0,0,185,355970,1553222
11,18,female,België,3,96,ITC,neutral,5,right,6,ITC_collect,452,k,0,0,185,355517,1553675
11,18,female,België,3,96,ITC,neutral,5,right,6,ITC_outcome,0,undefined,0,0,205,354514,1554678
11,18,female,België,3,97,guess,win,10,left,1,guess_start,1051,space,0,0,205,353462,1555730
11,18,female,België,3,97,guess,win,10,left,1,guess_choice,534,j,0,0,205,352926,1556266
11,18,female,België,3,97,guess,win,10,left,1,guess_outcome,0,undefined,0,0,225,351373,1557819
11,18,female,België,3,97,ITC,win,10,left,1,ITC_start,439,space,0,0,225,350933,1558259
11,18,female,België,3,97,ITC,win,10,left,1,ITC_choice,478,f,0,0,225,350454,1558738
11,18,female,België,3,97,ITC,win,10,left,1,ITC_wait,0,undefined,0,0,225,340450,1568742
11,18,female,België,3,97,ITC,win,10,left,1,ITC_collect,474,k,0,0,225,339975,1569217
11,18,female,België,3,97,ITC,win,10,left,1,ITC_outcome,0,undefined,0,0,245,338973,1570219
11,18,female,België,3,98,guess,win,10,left,7,guess_start,270,space,0,0,245,338702,1570490
11,18,female,België,3,98,guess,win,10,left,7,guess_choice,868,j,0,0,245,337832,1571360
11,18,female,België,3,98,guess,win,10,left,7,guess_outcome,0,undefined,0,0,265,336279,1572913
11,18,female,België,3,98,ITC,win,10,left,7,ITC_start,631,space,0,0,265,335647,1573545
11,18,female,België,3,98,ITC,win,10,left,7,ITC_choice,918,f,0,0,265,334728,1574464
11,18,female,België,3,98,ITC,win,10,left,7,ITC_wait,0,undefined,0,0,265,324726,1584466
11,18,female,België,3,98,ITC,win,10,left,7,ITC_collect,1932,k,0,0,265,322793,1586399
11,18,female,België,3,98,ITC,win,10,left,7,ITC_outcome,0,undefined,0,0,285,321790,1587402
11,18,female,België,3,99,guess,neutral,10,left,5,guess_start,861,space,0,0,285,320928,1588264
11,18,female,België,3,99,guess,neutral,10,left,5,guess_choice,542,j,0,0,285,320384,1588808
11,18,female,België,3,99,guess,neutral,10,left,5,guess_outcome,0,undefined,0,0,285,318831,1590361
11,18,female,België,3,99,ITC,neutral,10,left,5,ITC_start,716,space,0,0,285,318114,1591078
11,18,female,België,3,99,ITC,neutral,10,left,5,ITC_choice,571,f,0,0,285,317542,1591650
11,18,female,België,3,99,ITC,neutral,10,left,5,ITC_wait,0,undefined,0,0,285,307540,1601652
11,18,female,België,3,99,ITC,neutral,10,left,5,ITC_collect,603,k,0,0,285,306936,1602256
11,18,female,België,3,99,ITC,neutral,10,left,5,ITC_outcome,0,undefined,0,0,305,305933,1603259
11,18,female,België,3,100,guess,win,5,left,11,guess_start,657,space,0,0,305,305275,1603917
11,18,female,België,3,100,guess,win,5,left,11,guess_choice,545,j,0,0,305,304728,1604464
11,18,female,België,3,100,guess,win,5,left,11,guess_outcome,0,undefined,0,0,325,303175,1606017
11,18,female,België,3,100,ITC,win,5,left,11,ITC_start,414,space,0,0,325,302760,1606432
11,18,female,België,3,100,ITC,win,5,left,11,ITC_choice,959,f,0,0,325,301800,1607392
11,18,female,België,3,100,ITC,win,5,left,11,ITC_wait,0,undefined,0,0,325,296798,1612394
11,18,female,België,3,100,ITC,win,5,left,11,ITC_collect,2662,k,0,0,325,294135,1615057
11,18,female,België,3,100,ITC,win,5,left,11,ITC_outcome,0,undefined,0,0,345,293131,1616061
11,18,female,België,3,101,guess,loss,10,right,2,guess_start,456,space,0,0,345,292674,1616518
11,18,female,België,3,101,guess,loss,10,right,2,guess_choice,493,j,0,0,345,292178,1617014
11,18,female,België,3,101,guess,loss,10,right,2,guess_outcome,0,undefined,0,0,330,290625,1618567
11,18,female,België,3,101,ITC,loss,10,right,2,ITC_start,387,space,0,0,330,290236,1618956
11,18,female,België,3,101,ITC,loss,10,right,2,ITC_choice,588,j,0,0,330,289648,1619544
11,18,female,België,3,101,ITC,loss,10,right,2,ITC_wait,0,undefined,0,0,330,279644,1629548
11,18,female,België,3,101,ITC,loss,10,right,2,ITC_collect,546,k,0,0,330,279096,1630096
11,18,female,België,3,101,ITC,loss,10,right,2,ITC_outcome,0,undefined,0,0,350,278093,1631099
11,18,female,België,3,102,guess,loss,5,right,9,guess_start,431,space,0,0,350,277661,1631531
11,18,female,België,3,102,guess,loss,5,right,9,guess_choice,445,f,0,0,350,277213,1631979
11,18,female,België,3,102,guess,loss,5,right,9,guess_outcome,0,undefined,0,0,335,275659,1633533
11,18,female,België,3,102,ITC,loss,5,right,9,ITC_start,245,space,0,0,335,275413,1633779
11,18,female,België,3,102,ITC,loss,5,right,9,ITC_choice,669,j,0,0,335,274743,1634449
11,18,female,België,3,102,ITC,loss,5,right,9,ITC_wait,0,undefined,0,0,335,269742,1639450
11,18,female,België,3,102,ITC,loss,5,right,9,ITC_collect,537,k,0,0,335,269203,1639989
11,18,female,België,3,102,ITC,loss,5,right,9,ITC_outcome,0,undefined,0,0,355,268201,1640991
11,18,female,België,3,103,guess,neutral,5,right,9,guess_start,1391,space,0,0,355,266809,1642383
11,18,female,België,3,103,guess,neutral,5,right,9,guess_choice,924,f,0,0,355,265883,1643309
11,18,female,België,3,103,guess,neutral,5,right,9,guess_outcome,0,undefined,0,0,355,264330,1644862
11,18,female,België,3,103,ITC,neutral,5,right,9,ITC_start,606,space,0,0,355,263722,1645470
11,18,female,België,3,103,ITC,neutral,5,right,9,ITC_choice,534,j,0,0,355,263187,1646005
11,18,female,België,3,103,ITC,neutral,5,right,9,ITC_wait,0,undefined,0,0,355,258185,1651007
11,18,female,België,3,103,ITC,neutral,5,right,9,ITC_collect,802,k,0,0,355,257381,1651811
11,18,female,België,3,103,ITC,neutral,5,right,9,ITC_outcome,0,undefined,0,0,375,256379,1652813
11,18,female,België,3,104,guess,neutral,5,right,3,guess_start,948,space,0,0,375,255429,1653763
11,18,female,België,3,104,guess,neutral,5,right,3,guess_choice,830,f,0,0,375,254597,1654595
11,18,female,België,3,104,guess,neutral,5,right,3,guess_outcome,0,undefined,0,0,375,253044,1656148
11,18,female,België,3,104,ITC,neutral,5,right,3,ITC_start,444,space,0,0,375,252600,1656592
11,18,female,België,3,104,ITC,neutral,5,right,3,ITC_choice,541,j,0,0,375,252058,1657134
11,18,female,België,3,104,ITC,neutral,5,right,3,ITC_wait,0,undefined,0,0,375,247054,1662138
11,18,female,België,3,104,ITC,neutral,5,right,3,ITC_collect,477,k,0,0,375,246575,1662617
11,18,female,België,3,104,ITC,neutral,5,right,3,ITC_outcome,0,undefined,0,0,395,245572,1663620
11,18,female,België,3,105,guess,neutral,5,right,1,guess_start,805,space,0,0,395,244766,1664426
11,18,female,België,3,105,guess,neutral,5,right,1,guess_choice,609,j,0,0,395,244155,1665037
11,18,female,België,3,105,guess,neutral,5,right,1,guess_outcome,0,undefined,0,0,395,242601,1666591
11,18,female,België,3,105,ITC,neutral,5,right,1,ITC_start,744,space,0,0,395,241856,1667336
11,18,female,België,3,105,ITC,neutral,5,right,1,ITC_choice,507,j,0,0,395,241348,1667844
11,18,female,België,3,105,ITC,neutral,5,right,1,ITC_wait,0,undefined,0,0,395,236345,1672847
11,18,female,België,3,105,ITC,neutral,5,right,1,ITC_collect,1301,k,0,0,395,235043,1674149
11,18,female,België,3,105,ITC,neutral,5,right,1,ITC_outcome,0,undefined,0,0,415,234039,1675153
11,18,female,België,3,106,guess,loss,5,right,7,guess_start,1083,space,0,0,415,232955,1676237
11,18,female,België,3,106,guess,loss,5,right,7,guess_choice,471,j,0,0,415,232481,1676711
11,18,female,België,3,106,guess,loss,5,right,7,guess_outcome,0,undefined,0,0,400,230927,1678265
11,18,female,België,3,106,ITC,loss,5,right,7,ITC_start,425,space,0,0,400,230501,1678691
11,18,female,België,3,106,ITC,loss,5,right,7,ITC_choice,536,j,0,0,400,229964,1679228
11,18,female,België,3,106,ITC,loss,5,right,7,ITC_wait,0,undefined,0,0,400,224960,1684232
11,18,female,België,3,106,ITC,loss,5,right,7,ITC_collect,367,k,0,0,400,224591,1684601
11,18,female,België,3,106,ITC,loss,5,right,7,ITC_outcome,0,undefined,0,0,420,223589,1685603
11,18,female,België,3,107,guess,win,10,right,8,guess_start,385,space,0,0,420,223203,1685989
11,18,female,België,3,107,guess,win,10,right,8,guess_choice,636,j,0,0,420,222564,1686628
11,18,female,België,3,107,guess,win,10,right,8,guess_outcome,0,undefined,0,0,440,221011,1688181
11,18,female,België,3,107,ITC,win,10,right,8,ITC_start,1498,space,0,0,440,219511,1689681
11,18,female,België,3,107,ITC,win,10,right,8,ITC_choice,540,j,0,0,440,218971,1690221
11,18,female,België,3,107,ITC,win,10,right,8,ITC_wait,0,undefined,0,0,440,208969,1700223
11,18,female,België,3,107,ITC,win,10,right,8,ITC_collect,404,k,0,0,440,208563,1700629
11,18,female,België,3,107,ITC,win,10,right,8,ITC_outcome,0,undefined,0,0,460,207561,1701631
11,18,female,België,3,108,guess,neutral,10,left,7,guess_start,422,space,0,0,460,207137,1702055
11,18,female,België,3,108,guess,neutral,10,left,7,guess_choice,714,f,0,0,460,206421,1702771
11,18,female,België,3,108,guess,neutral,10,left,7,guess_outcome,0,undefined,0,0,460,204868,1704324
11,18,female,België,3,108,ITC,neutral,10,left,7,ITC_start,384,space,0,0,460,204482,1704710
11,18,female,België,3,108,ITC,neutral,10,left,7,ITC_choice,587,f,0,0,460,203894,1705298
11,18,female,België,3,108,ITC,neutral,10,left,7,ITC_wait,0,undefined,0,0,460,193891,1715301
11,18,female,België,3,108,ITC,neutral,10,left,7,ITC_collect,22,k,0,0,460,193868,1715324
11,18,female,België,3,108,ITC,neutral,10,left,7,ITC_outcome,0,undefined,0,0,480,192865,1716327
11,18,female,België,3,109,guess,win,5,right,4,guess_start,562,space,0,0,480,192301,1716891
11,18,female,België,3,109,guess,win,5,right,4,guess_choice,575,j,0,0,480,191724,1717468
11,18,female,België,3,109,guess,win,5,right,4,guess_outcome,0,undefined,0,0,500,190170,1719022
11,18,female,België,3,109,ITC,win,5,right,4,ITC_start,1603,space,0,0,500,188566,1720626
11,18,female,België,3,109,ITC,win,5,right,4,ITC_choice,1774,f,0,0,500,186791,1722401
11,18,female,België,3,109,ITC,win,5,right,4,ITC_wait,0,undefined,0,0,500,186789,1722403
11,18,female,België,3,109,ITC,win,5,right,4,ITC_collect,3338,k,0,0,500,183450,1725742
11,18,female,België,3,109,ITC,win,5,right,4,ITC_outcome,0,undefined,0,0,504,182446,1726746
11,18,female,België,3,110,guess,loss,5,right,5,guess_start,931,space,0,0,504,181514,1727678
11,18,female,België,3,110,guess,loss,5,right,5,guess_choice,1027,j,0,0,504,180485,1728707
11,18,female,België,3,110,guess,loss,5,right,5,guess_outcome,0,undefined,0,0,489,178933,1730259
11,18,female,België,3,110,ITC,loss,5,right,5,ITC_start,423,space,0,0,489,178509,1730683
11,18,female,België,3,110,ITC,loss,5,right,5,ITC_choice,426,j,0,0,489,178081,1731111
11,18,female,België,3,110,ITC,loss,5,right,5,ITC_wait,0,undefined,0,0,489,173080,1736112
11,18,female,België,3,110,ITC,loss,5,right,5,ITC_collect,2011,k,0,0,489,171067,1738125
11,18,female,België,3,110,ITC,loss,5,right,5,ITC_outcome,0,undefined,0,0,509,170064,1739128
11,18,female,België,3,111,guess,neutral,5,right,10,guess_start,588,space,0,0,509,169473,1739719
11,18,female,België,3,111,guess,neutral,5,right,10,guess_choice,822,f,0,0,509,168649,1740543
11,18,female,België,3,111,guess,neutral,5,right,10,guess_outcome,0,undefined,0,0,509,167097,1742095
11,18,female,België,3,111,ITC,neutral,5,right,10,ITC_start,591,space,0,0,509,166505,1742687
11,18,female,België,3,111,ITC,neutral,5,right,10,ITC_choice,508,j,0,0,509,165996,1743196
11,18,female,België,3,111,ITC,neutral,5,right,10,ITC_wait,0,undefined,0,0,509,160994,1748198
11,18,female,België,3,111,ITC,neutral,5,right,10,ITC_collect,2706,k,0,0,509,158285,1750907
11,18,female,België,3,111,ITC,neutral,5,right,10,ITC_outcome,0,undefined,0,0,529,157282,1751910
11,18,female,België,3,112,guess,win,10,right,5,guess_start,307,space,0,0,529,156973,1752219
11,18,female,België,3,112,guess,win,10,right,5,guess_choice,455,j,0,0,529,156516,1752676
11,18,female,België,3,112,guess,win,10,right,5,guess_outcome,0,undefined,0,0,549,154962,1754230
11,18,female,België,3,112,ITC,win,10,right,5,ITC_start,413,space,0,0,549,154547,1754645
11,18,female,België,3,112,ITC,win,10,right,5,ITC_choice,530,j,0,0,549,154016,1755176
11,18,female,België,3,112,ITC,win,10,right,5,ITC_wait,0,undefined,0,0,549,144014,1765178
11,18,female,België,3,112,ITC,win,10,right,5,ITC_collect,265,k,0,0,549,143747,1765445
11,18,female,België,3,112,ITC,win,10,right,5,ITC_outcome,0,undefined,0,0,569,142745,1766447
11,18,female,België,3,113,guess,win,5,left,1,guess_start,291,space,0,0,569,142452,1766740
11,18,female,België,3,113,guess,win,5,left,1,guess_choice,491,j,0,0,569,141958,1767234
11,18,female,België,3,113,guess,win,5,left,1,guess_outcome,0,undefined,0,0,589,140404,1768788
11,18,female,België,3,113,ITC,win,5,left,1,ITC_start,983,space,0,0,589,139420,1769772
11,18,female,België,3,113,ITC,win,5,left,1,ITC_choice,781,f,0,0,589,138638,1770554
11,18,female,België,3,113,ITC,win,5,left,1,ITC_wait,0,undefined,0,0,589,133635,1775557
11,18,female,België,3,113,ITC,win,5,left,1,ITC_collect,881,k,0,0,589,132753,1776439
11,18,female,België,3,113,ITC,win,5,left,1,ITC_outcome,0,undefined,0,0,609,131750,1777442
11,18,female,België,3,114,guess,win,5,right,5,guess_start,474,space,0,0,609,131275,1777917
11,18,female,België,3,114,guess,win,5,right,5,guess_choice,509,j,0,0,609,130763,1778429
11,18,female,België,3,114,guess,win,5,right,5,guess_outcome,0,undefined,0,0,629,129209,1779983
11,18,female,België,3,114,ITC,win,5,right,5,ITC_start,400,space,0,0,629,128809,1780383
11,18,female,België,3,114,ITC,win,5,right,5,ITC_choice,544,j,0,0,629,128264,1780928
11,18,female,België,3,114,ITC,win,5,right,5,ITC_wait,0,undefined,0,0,629,123261,1785931
11,18,female,België,3,114,ITC,win,5,right,5,ITC_collect,2196,k,0,0,629,121064,1788128
11,18,female,België,3,114,ITC,win,5,right,5,ITC_outcome,0,undefined,0,0,649,120061,1789131
11,18,female,België,3,115,guess,loss,10,left,7,guess_start,321,space,0,0,649,119738,1789454
11,18,female,België,3,115,guess,loss,10,left,7,guess_choice,358,j,0,0,649,119378,1789814
11,18,female,België,3,115,guess,loss,10,left,7,guess_outcome,0,undefined,0,0,634,117824,1791368
11,18,female,België,3,115,ITC,loss,10,left,7,ITC_start,356,space,0,0,634,117467,1791725
11,18,female,België,3,115,ITC,loss,10,left,7,ITC_choice,532,f,0,0,634,116934,1792258
11,18,female,België,3,115,ITC,loss,10,left,7,ITC_wait,0,undefined,0,0,634,106932,1802260
11,18,female,België,3,115,ITC,loss,10,left,7,ITC_collect,382,k,0,0,634,106548,1802644
11,18,female,België,3,115,ITC,loss,10,left,7,ITC_outcome,0,undefined,0,0,654,105545,1803647
11,18,female,België,3,116,guess,neutral,10,left,2,guess_start,416,space,0,0,654,105128,1804064
11,18,female,België,3,116,guess,neutral,10,left,2,guess_choice,419,j,0,0,654,104706,1804486
11,18,female,België,3,116,guess,neutral,10,left,2,guess_outcome,0,undefined,0,0,654,103153,1806039
11,18,female,België,3,116,ITC,neutral,10,left,2,ITC_start,489,space,0,0,654,102663,1806529
11,18,female,België,3,116,ITC,neutral,10,left,2,ITC_choice,464,f,0,0,654,102198,1806994
11,18,female,België,3,116,ITC,neutral,10,left,2,ITC_wait,0,undefined,0,0,654,92194,1816998
11,18,female,België,3,116,ITC,neutral,10,left,2,ITC_collect,410,k,0,0,654,91783,1817409
11,18,female,België,3,116,ITC,neutral,10,left,2,ITC_outcome,0,undefined,0,0,674,90780,1818412
11,18,female,België,3,117,guess,win,5,left,2,guess_start,403,space,0,0,674,90375,1818817
11,18,female,België,3,117,guess,win,5,left,2,guess_choice,508,j,0,0,674,89864,1819328
11,18,female,België,3,117,guess,win,5,left,2,guess_outcome,0,undefined,0,0,694,88311,1820881
11,18,female,België,3,117,ITC,win,5,left,2,ITC_start,1546,space,0,0,694,86764,1822428
11,18,female,België,3,117,ITC,win,5,left,2,ITC_choice,514,f,0,0,694,86249,1822943
11,18,female,België,3,117,ITC,win,5,left,2,ITC_wait,0,undefined,0,0,694,81246,1827946
11,18,female,België,3,117,ITC,win,5,left,2,ITC_collect,388,k,0,0,694,80857,1828335
11,18,female,België,3,117,ITC,win,5,left,2,ITC_outcome,0,undefined,0,0,714,79855,1829337
11,18,female,België,3,118,guess,loss,5,left,6,guess_start,364,space,0,0,714,79490,1829702
11,18,female,België,3,118,guess,loss,5,left,6,guess_choice,402,j,0,0,714,79085,1830107
11,18,female,België,3,118,guess,loss,5,left,6,guess_outcome,0,undefined,0,0,699,77531,1831661
11,18,female,België,3,118,ITC,loss,5,left,6,ITC_start,447,space,0,0,699,77083,1832109
11,18,female,België,3,118,ITC,loss,5,left,6,ITC_choice,470,f,0,0,699,76612,1832580
11,18,female,België,3,118,ITC,loss,5,left,6,ITC_wait,0,undefined,0,0,699,71610,1837582
11,18,female,België,3,118,ITC,loss,5,left,6,ITC_collect,931,k,0,0,699,70678,1838514
11,18,female,België,3,118,ITC,loss,5,left,6,ITC_outcome,0,undefined,0,0,719,69675,1839517
11,18,female,België,3,119,guess,neutral,5,right,16,guess_start,696,space,0,0,719,68978,1840214
11,18,female,België,3,119,guess,neutral,5,right,16,guess_choice,1259,f,0,0,719,67716,1841476
11,18,female,België,3,119,guess,neutral,5,right,16,guess_outcome,0,undefined,0,0,719,66162,1843030
11,18,female,België,3,119,ITC,neutral,5,right,16,ITC_start,375,space,0,0,719,65785,1843407
11,18,female,België,3,119,ITC,neutral,5,right,16,ITC_choice,930,j,0,0,719,64854,1844338
11,18,female,België,3,119,ITC,neutral,5,right,16,ITC_wait,0,undefined,0,0,719,59852,1849340
11,18,female,België,3,119,ITC,neutral,5,right,16,ITC_collect,296,k,0,0,719,59554,1849638
11,18,female,België,3,119,ITC,neutral,5,right,16,ITC_outcome,0,undefined,0,0,739,58551,1850641
11,18,female,België,3,120,guess,win,5,left,16,guess_start,770,space,0,0,739,57780,1851412
11,18,female,België,3,120,guess,win,5,left,16,guess_choice,520,j,0,0,739,57258,1851934
11,18,female,België,3,120,guess,win,5,left,16,guess_outcome,0,undefined,0,0,759,55704,1853488
11,18,female,België,3,120,ITC,win,5,left,16,ITC_start,180,space,0,0,759,55523,1853669
11,18,female,België,3,120,ITC,win,5,left,16,ITC_choice,554,f,0,0,759,54968,1854224
11,18,female,België,3,120,ITC,win,5,left,16,ITC_wait,0,undefined,0,0,759,49966,1859226
11,18,female,België,3,120,ITC,win,5,left,16,ITC_collect,820,k,0,0,759,49144,1860048
11,18,female,België,3,120,ITC,win,5,left,16,ITC_outcome,0,undefined,0,0,779,48140,1861052
11,18,female,België,3,121,guess,win,5,left,13,guess_start,306,space,0,0,779,47833,1861359
11,18,female,België,3,121,guess,win,5,left,13,guess_choice,384,j,0,0,779,47447,1861745
11,18,female,België,3,121,guess,win,5,left,13,guess_outcome,0,undefined,0,0,799,45894,1863298
11,18,female,België,3,121,ITC,win,5,left,13,ITC_start,493,space,0,0,799,45400,1863792
11,18,female,België,3,121,ITC,win,5,left,13,ITC_choice,548,f,0,0,799,44850,1864342
11,18,female,België,3,121,ITC,win,5,left,13,ITC_wait,0,undefined,0,0,799,39848,1869344
11,18,female,België,3,121,ITC,win,5,left,13,ITC_collect,914,k,0,0,799,38932,1870260
11,18,female,België,3,121,ITC,win,5,left,13,ITC_outcome,0,undefined,0,0,819,37929,1871263
11,18,female,België,3,122,guess,loss,10,right,4,guess_start,314,space,0,0,819,37614,1871578
11,18,female,België,3,122,guess,loss,10,right,4,guess_choice,535,j,0,0,819,37077,1872115
11,18,female,België,3,122,guess,loss,10,right,4,guess_outcome,0,undefined,0,0,804,35523,1873669
11,18,female,België,3,122,ITC,loss,10,right,4,ITC_start,418,space,0,0,804,35103,1874089
11,18,female,België,3,122,ITC,loss,10,right,4,ITC_choice,910,j,0,0,804,34192,1875000
11,18,female,België,3,122,ITC,loss,10,right,4,ITC_wait,0,undefined,0,0,804,24189,1885003
11,18,female,België,3,122,ITC,loss,10,right,4,ITC_collect,491,k,0,0,804,23697,1885495
11,18,female,België,3,122,ITC,loss,10,right,4,ITC_outcome,0,undefined,0,0,824,22694,1886498
11,18,female,België,3,123,guess,loss,5,left,13,guess_start,1154,space,0,0,824,21539,1887653
11,18,female,België,3,123,guess,loss,5,left,13,guess_choice,556,j,0,0,824,20981,1888211
11,18,female,België,3,123,guess,loss,5,left,13,guess_outcome,0,undefined,0,0,809,19428,1889764
11,18,female,België,3,123,ITC,loss,5,left,13,ITC_start,909,space,0,0,809,18517,1890675
11,18,female,België,3,123,ITC,loss,5,left,13,ITC_choice,594,f,0,0,809,17921,1891271
11,18,female,België,3,123,ITC,loss,5,left,13,ITC_wait,0,undefined,0,0,809,12919,1896273
11,18,female,België,3,123,ITC,loss,5,left,13,ITC_collect,842,k,0,0,809,12075,1897117
11,18,female,België,3,123,ITC,loss,5,left,13,ITC_outcome,0,undefined,0,0,829,11072,1898120
11,18,female,België,3,124,guess,win,5,left,14,guess_start,782,space,0,0,829,10288,1898904
11,18,female,België,3,124,guess,win,5,left,14,guess_choice,449,j,0,0,829,9837,1899355
11,18,female,België,3,124,guess,win,5,left,14,guess_outcome,0,undefined,0,0,849,8284,1900908
11,18,female,België,3,124,ITC,win,5,left,14,ITC_start,493,space,0,0,849,7789,1901403
11,18,female,België,3,124,ITC,win,5,left,14,ITC_choice,552,f,0,0,849,7236,1901956
11,18,female,België,3,124,ITC,win,5,left,14,ITC_wait,0,undefined,0,0,849,2234,1906958
11,18,female,België,3,124,ITC,win,5,left,14,ITC_collect,569,k,0,0,849,1664,1907528
11,18,female,België,3,124,ITC,win,5,left,14,ITC_outcome,0,undefined,0,0,869,662,1908530
11,18,female,België,3,125,guess,win,10,left,2,guess_start,275,space,0,0,869,386,1908806
11,18,female,België,3,125,guess,win,10,left,2,guess_choice,0,undefined,0,0,869,-4,1909196
11,18,female,België,4,126,guess,neutral,10,right,6,guess_start,622,space,0,0,0,479378,1945448
11,18,female,België,4,126,guess,neutral,10,right,6,guess_choice,1281,f,0,0,0,478094,1946732
11,18,female,België,4,126,guess,neutral,10,right,6,guess_outcome,0,undefined,0,0,0,476541,1948285
11,18,female,België,4,126,ITC,neutral,10,right,6,ITC_start,999,space,0,0,0,475541,1949285
11,18,female,België,4,126,ITC,neutral,10,right,6,ITC_choice,1256,j,0,0,0,474284,1950542
11,18,female,België,4,126,ITC,neutral,10,right,6,ITC_wait,0,undefined,0,0,0,464281,1960545
11,18,female,België,4,126,ITC,neutral,10,right,6,ITC_collect,1823,k,0,0,0,462457,1962369
11,18,female,België,4,126,ITC,neutral,10,right,6,ITC_outcome,0,undefined,0,0,20,461455,1963371
11,18,female,België,4,127,guess,loss,10,left,6,guess_start,559,space,0,0,20,460894,1963932
11,18,female,België,4,127,guess,loss,10,left,6,guess_choice,579,j,0,0,20,460312,1964514
11,18,female,België,4,127,guess,loss,10,left,6,guess_outcome,0,undefined,0,0,5,458759,1966067
11,18,female,België,4,127,ITC,loss,10,left,6,ITC_start,297,space,0,0,5,458461,1966365
11,18,female,België,4,127,ITC,loss,10,left,6,ITC_choice,555,f,0,0,5,457905,1966921
11,18,female,België,4,127,ITC,loss,10,left,6,ITC_wait,0,undefined,0,0,5,447902,1976924
11,18,female,België,4,127,ITC,loss,10,left,6,ITC_collect,357,k,0,0,5,447543,1977283
11,18,female,België,4,127,ITC,loss,10,left,6,ITC_outcome,0,undefined,0,0,25,446540,1978286
11,18,female,België,4,128,guess,loss,5,right,16,guess_start,1055,space,0,0,25,445483,1979343
11,18,female,België,4,128,guess,loss,5,right,16,guess_choice,401,j,0,0,25,445080,1979746
11,18,female,België,4,128,guess,loss,5,right,16,guess_outcome,0,undefined,0,0,10,443526,1981300
11,18,female,België,4,128,ITC,loss,5,right,16,ITC_start,320,space,0,0,10,443204,1981622
11,18,female,België,4,128,ITC,loss,5,right,16,ITC_choice,1185,f,0,0,10,442018,1982808
11,18,female,België,4,128,ITC,loss,5,right,16,ITC_wait,0,undefined,0,0,10,442016,1982810
11,18,female,België,4,128,ITC,loss,5,right,16,ITC_collect,657,k,0,0,10,441358,1983468
11,18,female,België,4,128,ITC,loss,5,right,16,ITC_outcome,0,undefined,0,0,26,440355,1984471
11,18,female,België,4,129,guess,loss,10,right,3,guess_start,319,space,0,0,26,440034,1984792
11,18,female,België,4,129,guess,loss,10,right,3,guess_choice,399,j,0,0,26,439632,1985194
11,18,female,België,4,129,guess,loss,10,right,3,guess_outcome,0,undefined,0,0,11,438080,1986746
11,18,female,België,4,129,ITC,loss,10,right,3,ITC_start,333,space,0,0,11,437746,1987080
11,18,female,België,4,129,ITC,loss,10,right,3,ITC_choice,560,j,0,0,11,437184,1987642
11,18,female,België,4,129,ITC,loss,10,right,3,ITC_wait,0,undefined,0,0,11,427183,1997643
11,18,female,België,4,129,ITC,loss,10,right,3,ITC_collect,395,k,0,0,11,426786,1998040
11,18,female,België,4,129,ITC,loss,10,right,3,ITC_outcome,0,undefined,0,0,31,425783,1999043
11,18,female,België,4,130,guess,loss,5,right,15,guess_start,395,space,0,0,31,425386,1999440
11,18,female,België,4,130,guess,loss,5,right,15,guess_choice,405,j,0,0,31,424979,1999847
11,18,female,België,4,130,guess,loss,5,right,15,guess_outcome,0,undefined,0,0,16,423427,2001399
11,18,female,België,4,130,ITC,loss,5,right,15,ITC_start,448,space,0,0,16,422978,2001848
11,18,female,België,4,130,ITC,loss,5,right,15,ITC_choice,830,f,0,0,16,422147,2002679
11,18,female,België,4,130,ITC,loss,5,right,15,ITC_wait,0,undefined,0,0,16,422144,2002682
11,18,female,België,4,130,ITC,loss,5,right,15,ITC_collect,676,k,0,0,16,421467,2003359
11,18,female,België,4,130,ITC,loss,5,right,15,ITC_outcome,0,undefined,0,0,31,420465,2004361
11,18,female,België,4,131,guess,neutral,5,right,15,guess_start,287,space,0,0,31,420176,2004650
11,18,female,België,4,131,guess,neutral,5,right,15,guess_choice,434,j,0,0,31,419739,2005087
11,18,female,België,4,131,guess,neutral,5,right,15,guess_outcome,0,undefined,0,0,31,418186,2006640
11,18,female,België,4,131,ITC,neutral,5,right,15,ITC_start,539,space,0,0,31,417645,2007181
11,18,female,België,4,131,ITC,neutral,5,right,15,ITC_choice,565,j,0,0,31,417078,2007748
11,18,female,België,4,131,ITC,neutral,5,right,15,ITC_wait,0,undefined,0,0,31,412075,2012751
11,18,female,België,4,131,ITC,neutral,5,right,15,ITC_collect,310,k,0,0,31,411763,2013063
11,18,female,België,4,131,ITC,neutral,5,right,15,ITC_outcome,0,undefined,0,0,51,410761,2014065
11,18,female,België,4,132,guess,neutral,5,left,11,guess_start,270,space,0,0,51,410489,2014337
11,18,female,België,4,132,guess,neutral,5,left,11,guess_choice,728,f,0,0,51,409759,2015067
11,18,female,België,4,132,guess,neutral,5,left,11,guess_outcome,0,undefined,0,0,51,408206,2016620
11,18,female,België,4,132,ITC,neutral,5,left,11,ITC_start,463,space,0,0,51,407741,2017085
11,18,female,België,4,132,ITC,neutral,5,left,11,ITC_choice,710,f,0,0,51,407029,2017797
11,18,female,België,4,132,ITC,neutral,5,left,11,ITC_wait,0,undefined,0,0,51,402028,2022798
11,18,female,België,4,132,ITC,neutral,5,left,11,ITC_collect,1897,k,0,0,51,400130,2024696
11,18,female,België,4,132,ITC,neutral,5,left,11,ITC_outcome,0,undefined,0,0,71,399127,2025699
11,18,female,België,4,133,guess,loss,5,left,4,guess_start,1391,space,0,0,71,397734,2027092
11,18,female,België,4,133,guess,loss,5,left,4,guess_choice,517,j,0,0,71,397215,2027611
11,18,female,België,4,133,guess,loss,5,left,4,guess_outcome,0,undefined,0,0,56,395663,2029163
11,18,female,België,4,133,ITC,loss,5,left,4,ITC_start,394,space,0,0,56,395267,2029559
11,18,female,België,4,133,ITC,loss,5,left,4,ITC_choice,563,f,0,0,56,394703,2030123
11,18,female,België,4,133,ITC,loss,5,left,4,ITC_wait,0,undefined,0,0,56,389701,2035125
11,18,female,België,4,133,ITC,loss,5,left,4,ITC_collect,427,k,0,0,56,389273,2035553
11,18,female,België,4,133,ITC,loss,5,left,4,ITC_outcome,0,undefined,0,0,76,388270,2036556
11,18,female,België,4,134,guess,loss,10,left,1,guess_start,320,space,0,0,76,387948,2036878
11,18,female,België,4,134,guess,loss,10,left,1,guess_choice,392,j,0,0,76,387553,2037273
11,18,female,België,4,134,guess,loss,10,left,1,guess_outcome,0,undefined,0,0,61,386000,2038826
11,18,female,België,4,134,ITC,loss,10,left,1,ITC_start,191,space,0,0,61,385807,2039019
11,18,female,België,4,134,ITC,loss,10,left,1,ITC_choice,539,f,0,0,61,385267,2039559
11,18,female,België,4,134,ITC,loss,10,left,1,ITC_wait,0,undefined,0,0,61,375265,2049561
11,18,female,België,4,134,ITC,loss,10,left,1,ITC_collect,1026,k,0,0,61,374237,2050589
11,18,female,België,4,134,ITC,loss,10,left,1,ITC_outcome,0,undefined,0,0,81,373235,2051591
11,18,female,België,4,135,guess,loss,10,right,5,guess_start,746,space,0,0,81,372487,2052339
11,18,female,België,4,135,guess,loss,10,right,5,guess_choice,489,j,0,0,81,371996,2052830
11,18,female,België,4,135,guess,loss,10,right,5,guess_outcome,0,undefined,0,0,66,370442,2054384
11,18,female,België,4,135,ITC,loss,10,right,5,ITC_start,494,space,0,0,66,369946,2054880
11,18,female,België,4,135,ITC,loss,10,right,5,ITC_choice,636,j,0,0,66,369309,2055517
11,18,female,België,4,135,ITC,loss,10,right,5,ITC_wait,0,undefined,0,0,66,359305,2065521
11,18,female,België,4,135,ITC,loss,10,right,5,ITC_collect,382,k,0,0,66,358922,2065904
11,18,female,België,4,135,ITC,loss,10,right,5,ITC_outcome,0,undefined,0,0,86,357919,2066907
11,18,female,België,4,136,guess,loss,5,left,8,guess_start,313,space,0,0,86,357605,2067221
11,18,female,België,4,136,guess,loss,5,left,8,guess_choice,458,j,0,0,86,357144,2067682
11,18,female,België,4,136,guess,loss,5,left,8,guess_outcome,0,undefined,0,0,71,355590,2069236
11,18,female,België,4,136,ITC,loss,5,left,8,ITC_start,410,space,0,0,71,355179,2069647
11,18,female,België,4,136,ITC,loss,5,left,8,ITC_choice,641,j,0,0,71,354537,2070289
11,18,female,België,4,136,ITC,loss,5,left,8,ITC_wait,0,undefined,0,0,71,354534,2070292
11,18,female,België,4,136,ITC,loss,5,left,8,ITC_collect,933,k,0,0,71,353601,2071225
11,18,female,België,4,136,ITC,loss,5,left,8,ITC_outcome,0,undefined,0,0,79,352597,2072229
11,18,female,België,4,137,guess,loss,5,right,3,guess_start,7,space,0,0,79,352589,2072237
11,18,female,België,4,137,guess,loss,5,right,3,guess_choice,1199,j,0,0,79,351388,2073438
11,18,female,België,4,137,guess,loss,5,right,3,guess_outcome,0,undefined,0,0,64,349835,2074991
11,18,female,België,4,137,ITC,loss,5,right,3,ITC_start,357,space,0,0,64,349477,2075349
11,18,female,België,4,137,ITC,loss,5,right,3,ITC_choice,561,f,0,0,64,348914,2075912
11,18,female,België,4,137,ITC,loss,5,right,3,ITC_wait,0,undefined,0,0,64,348912,2075914
11,18,female,België,4,137,ITC,loss,5,right,3,ITC_collect,771,k,0,0,64,348140,2076686
11,18,female,België,4,137,ITC,loss,5,right,3,ITC_outcome,0,undefined,0,0,67,347136,2077690
11,18,female,België,4,138,guess,loss,5,right,12,guess_start,156,space,0,0,67,346979,2077847
11,18,female,België,4,138,guess,loss,5,right,12,guess_choice,449,j,0,0,67,346527,2078299
11,18,female,België,4,138,guess,loss,5,right,12,guess_outcome,0,undefined,0,0,52,344973,2079853
11,18,female,België,4,138,ITC,loss,5,right,12,ITC_start,337,space,0,0,52,344635,2080191
11,18,female,België,4,138,ITC,loss,5,right,12,ITC_choice,591,j,0,0,52,344042,2080784
11,18,female,België,4,138,ITC,loss,5,right,12,ITC_wait,0,undefined,0,0,52,339040,2085786
11,18,female,België,4,138,ITC,loss,5,right,12,ITC_collect,871,k,0,0,52,338167,2086659
11,18,female,België,4,138,ITC,loss,5,right,12,ITC_outcome,0,undefined,0,0,72,337164,2087662
11,18,female,België,4,139,guess,win,5,left,7,guess_start,540,space,0,0,72,336623,2088203
11,18,female,België,4,139,guess,win,5,left,7,guess_choice,399,j,0,0,72,336223,2088603
11,18,female,België,4,139,guess,win,5,left,7,guess_outcome,0,undefined,0,0,92,334670,2090156
11,18,female,België,4,139,ITC,win,5,left,7,ITC_start,823,space,0,0,92,333845,2090981
11,18,female,België,4,139,ITC,win,5,left,7,ITC_choice,737,f,0,0,92,333107,2091719
11,18,female,België,4,139,ITC,win,5,left,7,ITC_wait,0,undefined,0,0,92,328105,2096721
11,18,female,België,4,139,ITC,win,5,left,7,ITC_collect,394,k,0,0,92,327709,2097117
11,18,female,België,4,139,ITC,win,5,left,7,ITC_outcome,0,undefined,0,0,112,326705,2098121
11,18,female,België,4,140,guess,win,10,left,3,guess_start,289,space,0,0,112,326415,2098411
11,18,female,België,4,140,guess,win,10,left,3,guess_choice,397,j,0,0,112,326016,2098810
11,18,female,België,4,140,guess,win,10,left,3,guess_outcome,0,undefined,0,0,132,324462,2100364
11,18,female,België,4,140,ITC,win,10,left,3,ITC_start,262,space,0,0,132,324199,2100627
11,18,female,België,4,140,ITC,win,10,left,3,ITC_choice,1557,j,0,0,132,322641,2102185
11,18,female,België,4,140,ITC,win,10,left,3,ITC_wait,0,undefined,0,0,132,322638,2102188
11,18,female,België,4,140,ITC,win,10,left,3,ITC_collect,685,k,0,0,132,321951,2102875
11,18,female,België,4,140,ITC,win,10,left,3,ITC_outcome,0,undefined,0,0,135,320948,2103878
11,18,female,België,4,141,guess,neutral,10,left,3,guess_start,527,space,0,0,135,320420,2104406
11,18,female,België,4,141,guess,neutral,10,left,3,guess_choice,446,j,0,0,135,319972,2104854
11,18,female,België,4,141,guess,neutral,10,left,3,guess_outcome,0,undefined,0,0,135,318418,2106408
11,18,female,België,4,141,ITC,neutral,10,left,3,ITC_start,389,space,0,0,135,318028,2106798
11,18,female,België,4,141,ITC,neutral,10,left,3,ITC_choice,643,f,0,0,135,317383,2107443
11,18,female,België,4,141,ITC,neutral,10,left,3,ITC_wait,0,undefined,0,0,135,307380,2117446
11,18,female,België,4,141,ITC,neutral,10,left,3,ITC_collect,5484,k,0,0,135,301895,2122931
11,18,female,België,4,141,ITC,neutral,10,left,3,ITC_outcome,0,undefined,0,0,155,300892,2123934
11,18,female,België,4,142,guess,win,5,right,15,guess_start,424,space,0,0,155,300466,2124360
11,18,female,België,4,142,guess,win,5,right,15,guess_choice,764,j,0,0,155,299700,2125126
11,18,female,België,4,142,guess,win,5,right,15,guess_outcome,0,undefined,0,0,175,298148,2126678
11,18,female,België,4,142,ITC,win,5,right,15,ITC_start,1395,space,0,0,175,296751,2128075
11,18,female,België,4,142,ITC,win,5,right,15,ITC_choice,660,j,0,0,175,296090,2128736
