subjectID,age,gender,nationality,block_number,trial_number,trial_type,guess_outcome,delay_time,delay_pos,immediate_amount,stage,respRT,respKey,blur_count,focus_count,total_points,remaining_duration,time_elapsed
4,18,female,Belgian,1,1,guess,loss,5,left,14,guess_start,3107,space,0,0,0,476890,290465
4,18,female,Belgian,1,1,guess,loss,5,left,14,guess_choice,1055,j,0,0,0,475832,291523
4,18,female,Belgian,1,1,guess,loss,5,left,14,guess_outcome,0,undefined,0,0,-15,474269,293086
4,18,female,Belgian,1,1,ITC,loss,5,left,14,ITC_start,1330,space,0,0,-15,472937,294418
4,18,female,Belgian,1,1,ITC,loss,5,left,14,ITC_choice,3530,f,0,0,-15,469403,297952
4,18,female,Belgian,1,1,ITC,loss,5,left,14,ITC_wait,0,undefined,0,0,-15,464391,302964
4,18,female,Belgian,1,1,ITC,loss,5,left,14,ITC_collect,553,k,0,0,-15,463837,303518
4,18,female,Belgian,1,1,ITC,loss,5,left,14,ITC_outcome,0,undefined,0,0,5,462834,304521
4,18,female,Belgian,1,2,guess,win,10,right,1,guess_start,1226,space,0,0,5,461604,305751
4,18,female,Belgian,1,2,guess,win,10,right,1,guess_choice,860,f,0,0,5,460741,306614
4,18,female,Belgian,1,2,guess,win,10,right,1,guess_outcome,0,undefined,0,0,25,459175,308180
4,18,female,Belgian,1,2,ITC,win,10,right,1,ITC_start,1130,space,0,0,25,458043,309312
4,18,female,Belgian,1,2,ITC,win,10,right,1,ITC_choice,1925,j,0,0,25,456116,311239
4,18,female,Belgian,1,2,ITC,win,10,right,1,ITC_wait,0,undefined,0,0,25,446106,321249
4,18,female,Belgian,1,2,ITC,win,10,right,1,ITC_collect,437,k,0,0,25,445665,321690
4,18,female,Belgian,1,2,ITC,win,10,right,1,ITC_outcome,0,undefined,0,0,45,444644,322711
4,18,female,Belgian,1,3,guess,win,5,right,14,guess_start,1398,space,0,0,45,443245,324110
4,18,female,Belgian,1,3,guess,win,5,right,14,guess_choice,659,j,0,0,45,442584,324771
4,18,female,Belgian,1,3,guess,win,5,right,14,guess_outcome,0,undefined,0,0,65,441016,326339
4,18,female,Belgian,1,3,ITC,win,5,right,14,ITC_start,993,space,0,0,65,440020,327335
4,18,female,Belgian,1,3,ITC,win,5,right,14,ITC_choice,855,f,0,0,65,439163,328192
4,18,female,Belgian,1,3,ITC,win,5,right,14,ITC_wait,0,undefined,0,0,65,439159,328196
4,18,female,Belgian,1,3,ITC,win,5,right,14,ITC_collect,1960,k,0,0,65,437196,330159
4,18,female,Belgian,1,3,ITC,win,5,right,14,ITC_outcome,0,undefined,0,0,79,436186,331169
4,18,female,Belgian,1,4,guess,win,5,left,6,guess_start,1124,space,0,0,79,435059,332296
4,18,female,Belgian,1,4,guess,win,5,left,6,guess_choice,1083,j,0,0,79,433975,333380
4,18,female,Belgian,1,4,guess,win,5,left,6,guess_outcome,0,undefined,0,0,99,432406,334949
4,18,female,Belgian,1,4,ITC,win,5,left,6,ITC_start,1157,space,0,0,99,431247,336108
4,18,female,Belgian,1,4,ITC,win,5,left,6,ITC_choice,1905,f,0,0,99,429341,338014
4,18,female,Belgian,1,4,ITC,win,5,left,6,ITC_wait,0,undefined,0,0,99,424336,343019
4,18,female,Belgian,1,4,ITC,win,5,left,6,ITC_collect,460,k,0,0,99,423873,343482
4,18,female,Belgian,1,4,ITC,win,5,left,6,ITC_outcome,0,undefined,0,0,119,422867,344488
4,18,female,Belgian,1,5,guess,win,5,left,16,guess_start,759,space,0,0,119,422107,345248
4,18,female,Belgian,1,5,guess,win,5,left,16,guess_choice,727,f,0,0,119,421376,345979
4,18,female,Belgian,1,5,guess,win,5,left,16,guess_outcome,0,undefined,0,0,139,419806,347549
4,18,female,Belgian,1,5,ITC,win,5,left,16,ITC_start,1193,space,0,0,139,418610,348745
4,18,female,Belgian,1,5,ITC,win,5,left,16,ITC_choice,2783,j,0,0,139,415825,351530
4,18,female,Belgian,1,5,ITC,win,5,left,16,ITC_wait,0,undefined,0,0,139,415824,351531
4,18,female,Belgian,1,5,ITC,win,5,left,16,ITC_collect,1248,k,0,0,139,414575,352780
4,18,female,Belgian,1,5,ITC,win,5,left,16,ITC_outcome,0,undefined,0,0,155,413556,353799
4,18,female,Belgian,1,6,guess,loss,10,left,7,guess_start,1411,space,0,0,155,412144,355211
4,18,female,Belgian,1,6,guess,loss,10,left,7,guess_choice,944,f,0,0,155,411195,356160
4,18,female,Belgian,1,6,guess,loss,10,left,7,guess_outcome,0,undefined,0,0,140,409636,357719
4,18,female,Belgian,1,6,ITC,loss,10,left,7,ITC_start,1415,space,0,0,140,408219,359136
4,18,female,Belgian,1,6,ITC,loss,10,left,7,ITC_choice,1715,f,0,0,140,406502,360853
4,18,female,Belgian,1,6,ITC,loss,10,left,7,ITC_wait,0,undefined,0,0,140,396500,370855
4,18,female,Belgian,1,6,ITC,loss,10,left,7,ITC_collect,305,k,0,0,140,396193,371162
4,18,female,Belgian,1,6,ITC,loss,10,left,7,ITC_outcome,0,undefined,0,0,160,395190,372165
4,18,female,Belgian,1,7,guess,neutral,5,left,5,guess_start,831,space,0,0,160,394357,372998
4,18,female,Belgian,1,7,guess,neutral,5,left,5,guess_choice,671,f,0,0,160,393681,373674
4,18,female,Belgian,1,7,guess,neutral,5,left,5,guess_outcome,0,undefined,0,0,160,392119,375236
4,18,female,Belgian,1,7,ITC,neutral,5,left,5,ITC_start,1008,space,0,0,160,391109,376246
4,18,female,Belgian,1,7,ITC,neutral,5,left,5,ITC_choice,1133,f,0,0,160,389973,377382
4,18,female,Belgian,1,7,ITC,neutral,5,left,5,ITC_wait,0,undefined,0,0,160,384969,382386
4,18,female,Belgian,1,7,ITC,neutral,5,left,5,ITC_collect,389,k,0,0,160,384580,382775
4,18,female,Belgian,1,7,ITC,neutral,5,left,5,ITC_outcome,0,undefined,0,0,180,383569,383786
4,18,female,Belgian,1,8,guess,neutral,5,left,12,guess_start,603,space,0,0,180,382968,384387
4,18,female,Belgian,1,8,guess,neutral,5,left,12,guess_choice,597,f,0,0,180,382366,384989
4,18,female,Belgian,1,8,guess,neutral,5,left,12,guess_outcome,0,undefined,0,0,180,380812,386543
4,18,female,Belgian,1,8,ITC,neutral,5,left,12,ITC_start,1326,space,0,0,180,379483,387872
4,18,female,Belgian,1,8,ITC,neutral,5,left,12,ITC_choice,1656,j,0,0,180,377827,389528
4,18,female,Belgian,1,8,ITC,neutral,5,left,12,ITC_wait,0,undefined,0,0,180,377825,389530
4,18,female,Belgian,1,8,ITC,neutral,5,left,12,ITC_collect,621,k,0,0,180,377203,390152
4,18,female,Belgian,1,8,ITC,neutral,5,left,12,ITC_outcome,0,undefined,0,0,192,376182,391173
4,18,female,Belgian,1,9,guess,loss,10,right,1,guess_start,620,space,0,0,192,375559,391796
4,18,female,Belgian,1,9,guess,loss,10,right,1,guess_choice,1183,j,0,0,192,374375,392980
4,18,female,Belgian,1,9,guess,loss,10,right,1,guess_outcome,0,undefined,0,0,177,372822,394533
4,18,female,Belgian,1,9,ITC,loss,10,right,1,ITC_start,1055,space,0,0,177,371765,395590
4,18,female,Belgian,1,9,ITC,loss,10,right,1,ITC_choice,1145,j,0,0,177,370620,396735
4,18,female,Belgian,1,9,ITC,loss,10,right,1,ITC_wait,0,undefined,0,0,177,360617,406738
4,18,female,Belgian,1,9,ITC,loss,10,right,1,ITC_collect,401,k,0,0,177,360212,407143
4,18,female,Belgian,1,9,ITC,loss,10,right,1,ITC_outcome,0,undefined,0,0,197,359204,408151
4,18,female,Belgian,1,10,guess,win,10,right,5,guess_start,528,space,0,0,197,358672,408683
4,18,female,Belgian,1,10,guess,win,10,right,5,guess_choice,1478,f,0,0,197,357186,410169
4,18,female,Belgian,1,10,guess,win,10,right,5,guess_outcome,0,undefined,0,0,217,355624,411731
4,18,female,Belgian,1,10,ITC,win,10,right,5,ITC_start,957,space,0,0,217,354664,412691
4,18,female,Belgian,1,10,ITC,win,10,right,5,ITC_choice,1368,f,0,0,217,353294,414061
4,18,female,Belgian,1,10,ITC,win,10,right,5,ITC_wait,0,undefined,0,0,217,353290,414065
4,18,female,Belgian,1,10,ITC,win,10,right,5,ITC_collect,860,k,0,0,217,352430,414925
4,18,female,Belgian,1,10,ITC,win,10,right,5,ITC_outcome,0,undefined,0,0,222,351413,415942
4,18,female,Belgian,1,11,guess,loss,5,left,3,guess_start,596,space,0,0,222,350814,416541
4,18,female,Belgian,1,11,guess,loss,5,left,3,guess_choice,964,j,0,0,222,349846,417509
4,18,female,Belgian,1,11,guess,loss,5,left,3,guess_outcome,0,undefined,0,0,207,348274,419081
4,18,female,Belgian,1,11,ITC,loss,5,left,3,ITC_start,596,space,0,0,207,347676,419679
4,18,female,Belgian,1,11,ITC,loss,5,left,3,ITC_choice,904,f,0,0,207,346769,420586
4,18,female,Belgian,1,11,ITC,loss,5,left,3,ITC_wait,0,undefined,0,0,207,341764,425591
4,18,female,Belgian,1,11,ITC,loss,5,left,3,ITC_collect,295,k,0,0,207,341468,425887
4,18,female,Belgian,1,11,ITC,loss,5,left,3,ITC_outcome,0,undefined,0,0,227,340464,426891
4,18,female,Belgian,1,12,guess,neutral,5,left,14,guess_start,434,space,0,0,227,340026,427329
4,18,female,Belgian,1,12,guess,neutral,5,left,14,guess_choice,1474,f,0,0,227,338548,428807
4,18,female,Belgian,1,12,guess,neutral,5,left,14,guess_outcome,0,undefined,0,0,227,336994,430361
4,18,female,Belgian,1,12,ITC,neutral,5,left,14,ITC_start,923,space,0,0,227,336069,431286
4,18,female,Belgian,1,12,ITC,neutral,5,left,14,ITC_choice,1279,j,0,0,227,334787,432568
4,18,female,Belgian,1,12,ITC,neutral,5,left,14,ITC_wait,0,undefined,0,0,227,334782,432573
4,18,female,Belgian,1,12,ITC,neutral,5,left,14,ITC_collect,354,k,0,0,227,334426,432929
4,18,female,Belgian,1,12,ITC,neutral,5,left,14,ITC_outcome,0,undefined,0,0,241,333414,433941
4,18,female,Belgian,1,13,guess,neutral,5,right,2,guess_start,572,space,0,0,241,332840,434515
4,18,female,Belgian,1,13,guess,neutral,5,right,2,guess_choice,856,j,0,0,241,331982,435373
4,18,female,Belgian,1,13,guess,neutral,5,right,2,guess_outcome,0,undefined,0,0,241,330414,436941
4,18,female,Belgian,1,13,ITC,neutral,5,right,2,ITC_start,609,space,0,0,241,329804,437551
4,18,female,Belgian,1,13,ITC,neutral,5,right,2,ITC_choice,1696,j,0,0,241,328106,439249
4,18,female,Belgian,1,13,ITC,neutral,5,right,2,ITC_wait,0,undefined,0,0,241,323094,444261
4,18,female,Belgian,1,13,ITC,neutral,5,right,2,ITC_collect,323,k,0,0,241,322770,444585
4,18,female,Belgian,1,13,ITC,neutral,5,right,2,ITC_outcome,0,undefined,0,0,261,321755,445600
4,18,female,Belgian,1,14,guess,neutral,10,left,7,guess_start,451,space,0,0,261,321301,446054
4,18,female,Belgian,1,14,guess,neutral,10,left,7,guess_choice,530,j,0,0,261,320769,446586
4,18,female,Belgian,1,14,guess,neutral,10,left,7,guess_outcome,0,undefined,0,0,261,319215,448140
4,18,female,Belgian,1,14,ITC,neutral,10,left,7,ITC_start,665,space,0,0,261,318548,448807
4,18,female,Belgian,1,14,ITC,neutral,10,left,7,ITC_choice,1196,j,0,0,261,317349,450006
4,18,female,Belgian,1,14,ITC,neutral,10,left,7,ITC_wait,0,undefined,0,0,261,317345,450010
4,18,female,Belgian,1,14,ITC,neutral,10,left,7,ITC_collect,699,k,0,0,261,316644,450711
4,18,female,Belgian,1,14,ITC,neutral,10,left,7,ITC_outcome,0,undefined,0,0,268,315625,451730
4,18,female,Belgian,1,15,guess,win,5,right,1,guess_start,522,space,0,0,268,315100,452255
4,18,female,Belgian,1,15,guess,win,5,right,1,guess_choice,1129,f,0,0,268,313966,453389
4,18,female,Belgian,1,15,guess,win,5,right,1,guess_outcome,0,undefined,0,0,288,312396,454959
4,18,female,Belgian,1,15,ITC,win,5,right,1,ITC_start,629,space,0,0,288,311765,455590
4,18,female,Belgian,1,15,ITC,win,5,right,1,ITC_choice,1287,j,0,0,288,310475,456880
4,18,female,Belgian,1,15,ITC,win,5,right,1,ITC_wait,0,undefined,0,0,288,305466,461889
4,18,female,Belgian,1,15,ITC,win,5,right,1,ITC_collect,282,k,0,0,288,305182,462173
4,18,female,Belgian,1,15,ITC,win,5,right,1,ITC_outcome,0,undefined,0,0,308,304165,463190
4,18,female,Belgian,1,16,guess,loss,10,right,5,guess_start,751,space,0,0,308,303411,463944
4,18,female,Belgian,1,16,guess,loss,10,right,5,guess_choice,962,f,0,0,308,302446,464909
4,18,female,Belgian,1,16,guess,loss,10,right,5,guess_outcome,0,undefined,0,0,293,300885,466470
4,18,female,Belgian,1,16,ITC,loss,10,right,5,ITC_start,639,space,0,0,293,300245,467110
4,18,female,Belgian,1,16,ITC,loss,10,right,5,ITC_choice,716,j,0,0,293,299527,467828
4,18,female,Belgian,1,16,ITC,loss,10,right,5,ITC_wait,0,undefined,0,0,293,289510,477845
4,18,female,Belgian,1,16,ITC,loss,10,right,5,ITC_collect,281,k,0,0,293,289228,478127
4,18,female,Belgian,1,16,ITC,loss,10,right,5,ITC_outcome,0,undefined,0,0,313,288223,479132
4,18,female,Belgian,1,17,guess,win,5,left,10,guess_start,683,space,0,0,313,287538,479817
4,18,female,Belgian,1,17,guess,win,5,left,10,guess_choice,1059,j,0,0,313,286473,480882
4,18,female,Belgian,1,17,guess,win,5,left,10,guess_outcome,0,undefined,0,0,333,284912,482443
4,18,female,Belgian,1,17,ITC,win,5,left,10,ITC_start,454,space,0,0,333,284456,482899
4,18,female,Belgian,1,17,ITC,win,5,left,10,ITC_choice,839,j,0,0,333,283616,483739
4,18,female,Belgian,1,17,ITC,win,5,left,10,ITC_wait,0,undefined,0,0,333,283611,483744
4,18,female,Belgian,1,17,ITC,win,5,left,10,ITC_collect,611,k,0,0,333,282998,484357
4,18,female,Belgian,1,17,ITC,win,5,left,10,ITC_outcome,0,undefined,0,0,343,281992,485363
4,18,female,Belgian,1,18,guess,neutral,5,right,4,guess_start,536,space,0,0,343,281454,485901
4,18,female,Belgian,1,18,guess,neutral,5,right,4,guess_choice,699,f,0,0,343,280750,486605
4,18,female,Belgian,1,18,guess,neutral,5,right,4,guess_outcome,0,undefined,0,0,343,279196,488159
4,18,female,Belgian,1,18,ITC,neutral,5,right,4,ITC_start,430,space,0,0,343,278764,488591
4,18,female,Belgian,1,18,ITC,neutral,5,right,4,ITC_choice,1421,j,0,0,343,277342,490013
4,18,female,Belgian,1,18,ITC,neutral,5,right,4,ITC_wait,0,undefined,0,0,343,272323,495032
4,18,female,Belgian,1,18,ITC,neutral,5,right,4,ITC_collect,413,k,0,0,343,271907,495448
4,18,female,Belgian,1,18,ITC,neutral,5,right,4,ITC_outcome,0,undefined,0,0,363,270903,496452
4,18,female,Belgian,1,19,guess,loss,5,right,4,guess_start,467,space,0,0,363,270435,496920
4,18,female,Belgian,1,19,guess,loss,5,right,4,guess_choice,930,f,0,0,363,269500,497855
4,18,female,Belgian,1,19,guess,loss,5,right,4,guess_outcome,0,undefined,0,0,348,267942,499413
4,18,female,Belgian,1,19,ITC,loss,5,right,4,ITC_start,414,space,0,0,348,267527,499828
4,18,female,Belgian,1,19,ITC,loss,5,right,4,ITC_choice,932,j,0,0,348,266594,500761
4,18,female,Belgian,1,19,ITC,loss,5,right,4,ITC_wait,0,undefined,0,0,348,261567,505788
4,18,female,Belgian,1,19,ITC,loss,5,right,4,ITC_collect,299,k,0,0,348,261265,506090
4,18,female,Belgian,1,19,ITC,loss,5,right,4,ITC_outcome,0,undefined,0,0,368,260261,507094
4,18,female,Belgian,1,20,guess,win,5,left,4,guess_start,419,space,0,0,368,259841,507514
4,18,female,Belgian,1,20,guess,win,5,left,4,guess_choice,412,j,0,0,368,259427,507928
4,18,female,Belgian,1,20,guess,win,5,left,4,guess_outcome,0,undefined,0,0,388,257866,509489
4,18,female,Belgian,1,20,ITC,win,5,left,4,ITC_start,395,space,0,0,388,257469,509886
4,18,female,Belgian,1,20,ITC,win,5,left,4,ITC_choice,944,f,0,0,388,256522,510833
4,18,female,Belgian,1,20,ITC,win,5,left,4,ITC_wait,0,undefined,0,0,388,251517,515838
4,18,female,Belgian,1,20,ITC,win,5,left,4,ITC_collect,265,k,0,0,388,251249,516106
4,18,female,Belgian,1,20,ITC,win,5,left,4,ITC_outcome,0,undefined,0,0,408,250237,517118
4,18,female,Belgian,1,21,guess,loss,10,left,6,guess_start,417,space,0,0,408,249819,517536
4,18,female,Belgian,1,21,guess,loss,10,left,6,guess_choice,814,f,0,0,408,248999,518356
4,18,female,Belgian,1,21,guess,loss,10,left,6,guess_outcome,0,undefined,0,0,393,247426,519929
4,18,female,Belgian,1,21,ITC,loss,10,left,6,ITC_start,463,space,0,0,393,246961,520394
4,18,female,Belgian,1,21,ITC,loss,10,left,6,ITC_choice,803,j,0,0,393,246156,521199
4,18,female,Belgian,1,21,ITC,loss,10,left,6,ITC_wait,0,undefined,0,0,393,246152,521203
4,18,female,Belgian,1,21,ITC,loss,10,left,6,ITC_collect,381,k,0,0,393,245770,521585
4,18,female,Belgian,1,21,ITC,loss,10,left,6,ITC_outcome,0,undefined,0,0,399,244747,522608
4,18,female,Belgian,1,22,guess,neutral,10,right,2,guess_start,444,space,0,0,399,244300,523055
4,18,female,Belgian,1,22,guess,neutral,10,right,2,guess_choice,647,j,0,0,399,243651,523704
4,18,female,Belgian,1,22,guess,neutral,10,right,2,guess_outcome,0,undefined,0,0,399,242097,525258
4,18,female,Belgian,1,22,ITC,neutral,10,right,2,ITC_start,1046,space,0,0,399,241050,526305
4,18,female,Belgian,1,22,ITC,neutral,10,right,2,ITC_choice,1370,f,0,0,399,239679,527676
4,18,female,Belgian,1,22,ITC,neutral,10,right,2,ITC_wait,0,undefined,0,0,399,239677,527678
4,18,female,Belgian,1,22,ITC,neutral,10,right,2,ITC_collect,350,k,0,0,399,239326,528029
4,18,female,Belgian,1,22,ITC,neutral,10,right,2,ITC_outcome,0,undefined,0,0,401,238316,529039
4,18,female,Belgian,1,23,guess,loss,5,left,13,guess_start,393,space,0,0,401,237921,529434
4,18,female,Belgian,1,23,guess,loss,5,left,13,guess_choice,692,j,0,0,401,237223,530132
4,18,female,Belgian,1,23,guess,loss,5,left,13,guess_outcome,0,undefined,0,0,386,235656,531699
4,18,female,Belgian,1,23,ITC,loss,5,left,13,ITC_start,745,space,0,0,386,234909,532446
4,18,female,Belgian,1,23,ITC,loss,5,left,13,ITC_choice,634,f,0,0,386,234272,533083
4,18,female,Belgian,1,23,ITC,loss,5,left,13,ITC_wait,0,undefined,0,0,386,229267,538088
4,18,female,Belgian,1,23,ITC,loss,5,left,13,ITC_collect,252,k,0,0,386,229015,538340
4,18,female,Belgian,1,23,ITC,loss,5,left,13,ITC_outcome,0,undefined,0,0,406,228007,539348
4,18,female,Belgian,1,24,guess,neutral,5,right,7,guess_start,441,space,0,0,406,227563,539792
4,18,female,Belgian,1,24,guess,neutral,5,right,7,guess_choice,624,f,0,0,406,226933,540422
4,18,female,Belgian,1,24,guess,neutral,5,right,7,guess_outcome,0,undefined,0,0,406,225377,541978
4,18,female,Belgian,1,24,ITC,neutral,5,right,7,ITC_start,480,space,0,0,406,224895,542460
4,18,female,Belgian,1,24,ITC,neutral,5,right,7,ITC_choice,914,j,0,0,406,223979,543376
4,18,female,Belgian,1,24,ITC,neutral,5,right,7,ITC_wait,0,undefined,0,0,406,218967,548388
4,18,female,Belgian,1,24,ITC,neutral,5,right,7,ITC_collect,269,k,0,0,406,218695,548660
4,18,female,Belgian,1,24,ITC,neutral,5,right,7,ITC_outcome,0,undefined,0,0,426,217680,549675
4,18,female,Belgian,1,25,guess,neutral,5,right,15,guess_start,439,space,0,0,426,217240,550115
4,18,female,Belgian,1,25,guess,neutral,5,right,15,guess_choice,677,j,0,0,426,216558,550797
4,18,female,Belgian,1,25,guess,neutral,5,right,15,guess_outcome,0,undefined,0,0,426,214987,552368
4,18,female,Belgian,1,25,ITC,neutral,5,right,15,ITC_start,568,space,0,0,426,214416,552939
4,18,female,Belgian,1,25,ITC,neutral,5,right,15,ITC_choice,811,j,0,0,426,213603,553752
4,18,female,Belgian,1,25,ITC,neutral,5,right,15,ITC_wait,0,undefined,0,0,426,208597,558758
4,18,female,Belgian,1,25,ITC,neutral,5,right,15,ITC_collect,363,k,0,0,426,208233,559122
4,18,female,Belgian,1,25,ITC,neutral,5,right,15,ITC_outcome,0,undefined,0,0,446,207217,560138
4,18,female,Belgian,1,26,guess,win,10,left,6,guess_start,381,space,0,0,446,206833,560522
4,18,female,Belgian,1,26,guess,win,10,left,6,guess_choice,613,f,0,0,446,206215,561140
4,18,female,Belgian,1,26,guess,win,10,left,6,guess_outcome,0,undefined,0,0,466,204647,562708
4,18,female,Belgian,1,26,ITC,win,10,left,6,ITC_start,767,space,0,0,466,203880,563475
4,18,female,Belgian,1,26,ITC,win,10,left,6,ITC_choice,755,j,0,0,466,203124,564231
4,18,female,Belgian,1,26,ITC,win,10,left,6,ITC_wait,0,undefined,0,0,466,203120,564235
4,18,female,Belgian,1,26,ITC,win,10,left,6,ITC_collect,315,k,0,0,466,202805,564550
4,18,female,Belgian,1,26,ITC,win,10,left,6,ITC_outcome,0,undefined,0,0,472,201786,565569
4,18,female,Belgian,1,27,guess,neutral,10,left,8,guess_start,712,space,0,0,472,201077,566278
4,18,female,Belgian,1,27,guess,neutral,10,left,8,guess_choice,602,j,0,0,472,200473,566882
4,18,female,Belgian,1,27,guess,neutral,10,left,8,guess_outcome,0,undefined,0,0,472,198901,568454
4,18,female,Belgian,1,27,ITC,neutral,10,left,8,ITC_start,484,space,0,0,472,198415,568940
4,18,female,Belgian,1,27,ITC,neutral,10,left,8,ITC_choice,1132,j,0,0,472,197282,570073
4,18,female,Belgian,1,27,ITC,neutral,10,left,8,ITC_wait,0,undefined,0,0,472,197277,570078
4,18,female,Belgian,1,27,ITC,neutral,10,left,8,ITC_collect,323,k,0,0,472,196952,570403
4,18,female,Belgian,1,27,ITC,neutral,10,left,8,ITC_outcome,0,undefined,0,0,480,195942,571413
4,18,female,Belgian,1,28,guess,neutral,5,left,9,guess_start,573,space,0,0,480,195366,571989
4,18,female,Belgian,1,28,guess,neutral,5,left,9,guess_choice,580,j,0,0,480,194783,572572
4,18,female,Belgian,1,28,guess,neutral,5,left,9,guess_outcome,0,undefined,0,0,480,193211,574144
4,18,female,Belgian,1,28,ITC,neutral,5,left,9,ITC_start,641,space,0,0,480,192568,574787
4,18,female,Belgian,1,28,ITC,neutral,5,left,9,ITC_choice,896,j,0,0,480,191670,575685
4,18,female,Belgian,1,28,ITC,neutral,5,left,9,ITC_wait,0,undefined,0,0,480,191665,575690
4,18,female,Belgian,1,28,ITC,neutral,5,left,9,ITC_collect,268,k,0,0,480,191395,575960
4,18,female,Belgian,1,28,ITC,neutral,5,left,9,ITC_outcome,0,undefined,0,0,489,190381,576974
4,18,female,Belgian,1,29,guess,win,5,left,3,guess_start,833,space,0,0,489,189545,577810
4,18,female,Belgian,1,29,guess,win,5,left,3,guess_choice,743,f,0,0,489,188796,578559
4,18,female,Belgian,1,29,guess,win,5,left,3,guess_outcome,0,undefined,0,0,509,187232,580123
4,18,female,Belgian,1,29,ITC,win,5,left,3,ITC_start,1524,space,0,0,509,185707,581648
4,18,female,Belgian,1,29,ITC,win,5,left,3,ITC_choice,1719,j,0,0,509,183986,583369
4,18,female,Belgian,1,29,ITC,win,5,left,3,ITC_wait,0,undefined,0,0,509,183982,583373
4,18,female,Belgian,1,29,ITC,win,5,left,3,ITC_collect,279,k,0,0,509,183700,583655
4,18,female,Belgian,1,29,ITC,win,5,left,3,ITC_outcome,0,undefined,0,0,512,182692,584663
4,18,female,Belgian,1,30,guess,win,10,right,7,guess_start,1025,space,0,0,512,181665,585690
4,18,female,Belgian,1,30,guess,win,10,right,7,guess_choice,776,j,0,0,512,180884,586471
4,18,female,Belgian,1,30,guess,win,10,right,7,guess_outcome,0,undefined,0,0,532,179321,588034
4,18,female,Belgian,1,30,ITC,win,10,right,7,ITC_start,722,space,0,0,532,178598,588757
4,18,female,Belgian,1,30,ITC,win,10,right,7,ITC_choice,979,j,0,0,532,177618,589737
4,18,female,Belgian,1,30,ITC,win,10,right,7,ITC_wait,0,undefined,0,0,532,167608,599747
4,18,female,Belgian,1,30,ITC,win,10,right,7,ITC_collect,322,k,0,0,532,167284,600071
4,18,female,Belgian,1,30,ITC,win,10,right,7,ITC_outcome,0,undefined,0,0,552,166269,601086
4,18,female,Belgian,1,31,guess,neutral,10,right,4,guess_start,740,space,0,0,552,165526,601829
4,18,female,Belgian,1,31,guess,neutral,10,right,4,guess_choice,666,f,0,0,552,164854,602501
4,18,female,Belgian,1,31,guess,neutral,10,right,4,guess_outcome,0,undefined,0,0,552,163299,604056
4,18,female,Belgian,1,31,ITC,neutral,10,right,4,ITC_start,529,space,0,0,552,162767,604588
4,18,female,Belgian,1,31,ITC,neutral,10,right,4,ITC_choice,1036,f,0,0,552,161729,605626
4,18,female,Belgian,1,31,ITC,neutral,10,right,4,ITC_wait,0,undefined,0,0,552,161724,605631
4,18,female,Belgian,1,31,ITC,neutral,10,right,4,ITC_collect,663,k,0,0,552,161059,606296
4,18,female,Belgian,1,31,ITC,neutral,10,right,4,ITC_outcome,0,undefined,0,0,556,160039,607316
4,18,female,Belgian,1,32,guess,loss,5,left,10,guess_start,386,space,0,0,556,159651,607704
4,18,female,Belgian,1,32,guess,loss,5,left,10,guess_choice,689,f,0,0,556,158955,608400
4,18,female,Belgian,1,32,guess,loss,5,left,10,guess_outcome,0,undefined,0,0,541,157379,609976
4,18,female,Belgian,1,32,ITC,loss,5,left,10,ITC_start,532,space,0,0,541,156845,610510
4,18,female,Belgian,1,32,ITC,loss,5,left,10,ITC_choice,971,f,0,0,541,155873,611482
4,18,female,Belgian,1,32,ITC,loss,5,left,10,ITC_wait,0,undefined,0,0,541,150859,616496
4,18,female,Belgian,1,32,ITC,loss,5,left,10,ITC_collect,282,k,0,0,541,150575,616780
4,18,female,Belgian,1,32,ITC,loss,5,left,10,ITC_outcome,0,undefined,0,0,561,149559,617796
4,18,female,Belgian,1,33,guess,loss,5,right,8,guess_start,382,space,0,0,561,149175,618180
4,18,female,Belgian,1,33,guess,loss,5,right,8,guess_choice,479,j,0,0,561,148695,618660
4,18,female,Belgian,1,33,guess,loss,5,right,8,guess_outcome,0,undefined,0,0,546,147139,620216
4,18,female,Belgian,1,33,ITC,loss,5,right,8,ITC_start,816,space,0,0,546,146321,621034
4,18,female,Belgian,1,33,ITC,loss,5,right,8,ITC_choice,1034,j,0,0,546,145286,622069
4,18,female,Belgian,1,33,ITC,loss,5,right,8,ITC_wait,0,undefined,0,0,546,140265,627090
4,18,female,Belgian,1,33,ITC,loss,5,right,8,ITC_collect,484,k,0,0,546,139779,627576
4,18,female,Belgian,1,33,ITC,loss,5,right,8,ITC_outcome,0,undefined,0,0,566,138769,628586
4,18,female,Belgian,1,34,guess,loss,10,right,3,guess_start,417,space,0,0,566,138349,629006
4,18,female,Belgian,1,34,guess,loss,10,right,3,guess_choice,1077,j,0,0,566,137267,630088
4,18,female,Belgian,1,34,guess,loss,10,right,3,guess_outcome,0,undefined,0,0,551,135699,631656
4,18,female,Belgian,1,34,ITC,loss,10,right,3,ITC_start,472,space,0,0,551,135224,632131
4,18,female,Belgian,1,34,ITC,loss,10,right,3,ITC_choice,1193,j,0,0,551,134029,633326
4,18,female,Belgian,1,34,ITC,loss,10,right,3,ITC_wait,0,undefined,0,0,551,124011,643344
4,18,female,Belgian,1,34,ITC,loss,10,right,3,ITC_collect,407,k,0,0,551,123603,643752
4,18,female,Belgian,1,34,ITC,loss,10,right,3,ITC_outcome,0,undefined,0,0,571,122584,644771
4,18,female,Belgian,1,35,guess,loss,5,right,15,guess_start,503,space,0,0,571,122080,645275
4,18,female,Belgian,1,35,guess,loss,5,right,15,guess_choice,537,f,0,0,571,121541,645814
4,18,female,Belgian,1,35,guess,loss,5,right,15,guess_outcome,0,undefined,0,0,556,119984,647371
4,18,female,Belgian,1,35,ITC,loss,5,right,15,ITC_start,608,space,0,0,556,119375,647980
4,18,female,Belgian,1,35,ITC,loss,5,right,15,ITC_choice,758,j,0,0,556,118615,648740
4,18,female,Belgian,1,35,ITC,loss,5,right,15,ITC_wait,0,undefined,0,0,556,113594,653761
4,18,female,Belgian,1,35,ITC,loss,5,right,15,ITC_collect,300,k,0,0,556,113294,654061
4,18,female,Belgian,1,35,ITC,loss,5,right,15,ITC_outcome,0,undefined,0,0,576,112273,655082
4,18,female,Belgian,1,36,guess,win,10,left,2,guess_start,379,space,0,0,576,111891,655464
4,18,female,Belgian,1,36,guess,win,10,left,2,guess_choice,1076,f,0,0,576,110813,656542
4,18,female,Belgian,1,36,guess,win,10,left,2,guess_outcome,0,undefined,0,0,596,109244,658111
4,18,female,Belgian,1,36,ITC,win,10,left,2,ITC_start,593,space,0,0,596,108650,658705
4,18,female,Belgian,1,36,ITC,win,10,left,2,ITC_choice,1490,j,0,0,596,107158,660197
4,18,female,Belgian,1,36,ITC,win,10,left,2,ITC_wait,0,undefined,0,0,596,107155,660200
4,18,female,Belgian,1,36,ITC,win,10,left,2,ITC_collect,296,k,0,0,596,106857,660498
4,18,female,Belgian,1,36,ITC,win,10,left,2,ITC_outcome,0,undefined,0,0,598,105843,661512
4,18,female,Belgian,1,37,guess,neutral,5,right,6,guess_start,491,space,0,0,598,105348,662007
4,18,female,Belgian,1,37,guess,neutral,5,right,6,guess_choice,669,j,0,0,598,104676,662679
4,18,female,Belgian,1,37,guess,neutral,5,right,6,guess_outcome,0,undefined,0,0,598,103103,664252
4,18,female,Belgian,1,37,ITC,neutral,5,right,6,ITC_start,440,space,0,0,598,102662,664693
4,18,female,Belgian,1,37,ITC,neutral,5,right,6,ITC_choice,958,f,0,0,598,101703,665652
4,18,female,Belgian,1,37,ITC,neutral,5,right,6,ITC_wait,0,undefined,0,0,598,101694,665661
4,18,female,Belgian,1,37,ITC,neutral,5,right,6,ITC_collect,433,k,0,0,598,101260,666095
4,18,female,Belgian,1,37,ITC,neutral,5,right,6,ITC_outcome,0,undefined,0,0,604,100253,667102
4,18,female,Belgian,1,38,guess,win,5,left,8,guess_start,604,space,0,0,604,99646,667709
4,18,female,Belgian,1,38,guess,win,5,left,8,guess_choice,589,f,0,0,604,99052,668303
4,18,female,Belgian,1,38,guess,win,5,left,8,guess_outcome,0,undefined,0,0,624,97483,669872
4,18,female,Belgian,1,38,ITC,win,5,left,8,ITC_start,566,space,0,0,624,96915,670440
4,18,female,Belgian,1,38,ITC,win,5,left,8,ITC_choice,659,j,0,0,624,96255,671100
4,18,female,Belgian,1,38,ITC,win,5,left,8,ITC_wait,0,undefined,0,0,624,96250,671105
4,18,female,Belgian,1,38,ITC,win,5,left,8,ITC_collect,275,k,0,0,624,95973,671382
4,18,female,Belgian,1,38,ITC,win,5,left,8,ITC_outcome,0,undefined,0,0,632,94954,672401
4,18,female,Belgian,1,39,guess,win,5,right,7,guess_start,684,space,0,0,632,94269,673086
4,18,female,Belgian,1,39,guess,win,5,right,7,guess_choice,490,j,0,0,632,93775,673580
4,18,female,Belgian,1,39,guess,win,5,right,7,guess_outcome,0,undefined,0,0,652,92214,675141
4,18,female,Belgian,1,39,ITC,win,5,right,7,ITC_start,501,space,0,0,652,91710,675645
4,18,female,Belgian,1,39,ITC,win,5,right,7,ITC_choice,1616,j,0,0,652,90091,677264
4,18,female,Belgian,1,39,ITC,win,5,right,7,ITC_wait,0,undefined,0,0,652,85084,682271
4,18,female,Belgian,1,39,ITC,win,5,right,7,ITC_collect,425,k,0,0,652,84654,682701
4,18,female,Belgian,1,39,ITC,win,5,right,7,ITC_outcome,0,undefined,0,0,672,83644,683711
4,18,female,Belgian,1,40,guess,loss,10,right,4,guess_start,390,space,0,0,672,83252,684103
4,18,female,Belgian,1,40,guess,loss,10,right,4,guess_choice,598,f,0,0,672,82650,684705
4,18,female,Belgian,1,40,guess,loss,10,right,4,guess_outcome,0,undefined,0,0,657,81094,686261
4,18,female,Belgian,1,40,ITC,loss,10,right,4,ITC_start,421,space,0,0,657,80672,686683
4,18,female,Belgian,1,40,ITC,loss,10,right,4,ITC_choice,1021,f,0,0,657,79653,687702
4,18,female,Belgian,1,40,ITC,loss,10,right,4,ITC_wait,0,undefined,0,0,657,79650,687705
4,18,female,Belgian,1,40,ITC,loss,10,right,4,ITC_collect,318,k,0,0,657,79332,688023
4,18,female,Belgian,1,40,ITC,loss,10,right,4,ITC_outcome,0,undefined,0,0,661,78317,689038
4,18,female,Belgian,1,41,guess,win,5,left,5,guess_start,502,space,0,0,661,77812,689543
4,18,female,Belgian,1,41,guess,win,5,left,5,guess_choice,797,f,0,0,661,77013,690342
4,18,female,Belgian,1,41,guess,win,5,left,5,guess_outcome,0,undefined,0,0,681,75447,691908
4,18,female,Belgian,1,41,ITC,win,5,left,5,ITC_start,703,space,0,0,681,74741,692614
4,18,female,Belgian,1,41,ITC,win,5,left,5,ITC_choice,1087,j,0,0,681,73652,693703
4,18,female,Belgian,1,41,ITC,win,5,left,5,ITC_wait,0,undefined,0,0,681,73648,693707
4,18,female,Belgian,1,41,ITC,win,5,left,5,ITC_collect,324,k,0,0,681,73322,694033
4,18,female,Belgian,1,41,ITC,win,5,left,5,ITC_outcome,0,undefined,0,0,686,72307,695048
4,18,female,Belgian,1,42,guess,neutral,10,right,5,guess_start,575,space,0,0,686,71729,695626
4,18,female,Belgian,1,42,guess,neutral,10,right,5,guess_choice,634,f,0,0,686,71091,696264
4,18,female,Belgian,1,42,guess,neutral,10,right,5,guess_outcome,0,undefined,0,0,686,69517,697838
4,18,female,Belgian,1,42,ITC,neutral,10,right,5,ITC_start,913,space,0,0,686,68601,698754
4,18,female,Belgian,1,42,ITC,neutral,10,right,5,ITC_choice,1138,f,0,0,686,67461,699894
4,18,female,Belgian,1,42,ITC,neutral,10,right,5,ITC_wait,0,undefined,0,0,686,67454,699901
4,18,female,Belgian,1,42,ITC,neutral,10,right,5,ITC_collect,260,k,0,0,686,67193,700162
4,18,female,Belgian,1,42,ITC,neutral,10,right,5,ITC_outcome,0,undefined,0,0,691,66177,701178
4,18,female,Belgian,1,43,guess,loss,5,right,16,guess_start,418,space,0,0,691,65756,701599
4,18,female,Belgian,1,43,guess,loss,5,right,16,guess_choice,556,f,0,0,691,65194,702161
4,18,female,Belgian,1,43,guess,loss,5,right,16,guess_outcome,0,undefined,0,0,676,63637,703718
4,18,female,Belgian,1,43,ITC,loss,5,right,16,ITC_start,577,space,0,0,676,63060,704295
4,18,female,Belgian,1,43,ITC,loss,5,right,16,ITC_choice,1826,f,0,0,676,61232,706123
4,18,female,Belgian,1,43,ITC,loss,5,right,16,ITC_wait,0,undefined,0,0,676,61229,706126
4,18,female,Belgian,1,43,ITC,loss,5,right,16,ITC_collect,290,k,0,0,676,60937,706418
4,18,female,Belgian,1,43,ITC,loss,5,right,16,ITC_outcome,0,undefined,0,0,692,59927,707428
4,18,female,Belgian,1,44,guess,loss,5,right,11,guess_start,545,space,0,0,692,59378,707977
4,18,female,Belgian,1,44,guess,loss,5,right,11,guess_choice,506,j,0,0,692,58870,708485
4,18,female,Belgian,1,44,guess,loss,5,right,11,guess_outcome,0,undefined,0,0,677,57307,710048
4,18,female,Belgian,1,44,ITC,loss,5,right,11,ITC_start,493,space,0,0,677,56813,710542
4,18,female,Belgian,1,44,ITC,loss,5,right,11,ITC_choice,1911,j,0,0,677,54902,712453
4,18,female,Belgian,1,44,ITC,loss,5,right,11,ITC_wait,0,undefined,0,0,677,49889,717466
4,18,female,Belgian,1,44,ITC,loss,5,right,11,ITC_collect,458,k,0,0,677,49426,717929
4,18,female,Belgian,1,44,ITC,loss,5,right,11,ITC_outcome,0,undefined,0,0,697,48417,718938
4,18,female,Belgian,1,45,guess,win,5,right,13,guess_start,2309,space,0,0,697,46105,721250
4,18,female,Belgian,1,45,guess,win,5,right,13,guess_choice,2010,j,0,0,697,44089,723266
4,18,female,Belgian,1,45,guess,win,5,right,13,guess_outcome,0,undefined,0,0,717,42517,724838
4,18,female,Belgian,1,45,ITC,win,5,right,13,ITC_start,1182,space,0,0,717,41333,726022
4,18,female,Belgian,1,45,ITC,win,5,right,13,ITC_choice,1678,f,0,0,717,39653,727702
4,18,female,Belgian,1,45,ITC,win,5,right,13,ITC_wait,0,undefined,0,0,717,39648,727707
4,18,female,Belgian,1,45,ITC,win,5,right,13,ITC_collect,276,k,0,0,717,39371,727984
4,18,female,Belgian,1,45,ITC,win,5,right,13,ITC_outcome,0,undefined,0,0,730,38357,728998
4,18,female,Belgian,1,46,guess,win,10,left,3,guess_start,387,space,0,0,730,37967,729388
4,18,female,Belgian,1,46,guess,win,10,left,3,guess_choice,551,f,0,0,730,37414,729941
4,18,female,Belgian,1,46,guess,win,10,left,3,guess_outcome,0,undefined,0,0,750,35847,731508
4,18,female,Belgian,1,46,ITC,win,10,left,3,ITC_start,624,space,0,0,750,35222,732133
4,18,female,Belgian,1,46,ITC,win,10,left,3,ITC_choice,1066,j,0,0,750,34153,733202
4,18,female,Belgian,1,46,ITC,win,10,left,3,ITC_wait,0,undefined,0,0,750,34148,733207
4,18,female,Belgian,1,46,ITC,win,10,left,3,ITC_collect,303,k,0,0,750,33843,733512
4,18,female,Belgian,1,46,ITC,win,10,left,3,ITC_outcome,0,undefined,0,0,753,32827,734528
4,18,female,Belgian,1,47,guess,loss,5,right,9,guess_start,424,space,0,0,753,32400,734955
4,18,female,Belgian,1,47,guess,loss,5,right,9,guess_choice,574,f,0,0,753,31825,735530
4,18,female,Belgian,1,47,guess,loss,5,right,9,guess_outcome,0,undefined,0,0,738,30257,737098
4,18,female,Belgian,1,47,ITC,loss,5,right,9,ITC_start,524,space,0,0,738,29730,737625
4,18,female,Belgian,1,47,ITC,loss,5,right,9,ITC_choice,936,j,0,0,738,28791,738564
4,18,female,Belgian,1,47,ITC,loss,5,right,9,ITC_wait,0,undefined,0,0,738,23787,743568
4,18,female,Belgian,1,47,ITC,loss,5,right,9,ITC_collect,380,k,0,0,738,23404,743951
4,18,female,Belgian,1,47,ITC,loss,5,right,9,ITC_outcome,0,undefined,0,0,758,22397,744958
4,18,female,Belgian,1,48,guess,loss,10,right,8,guess_start,390,space,0,0,758,22006,745349
4,18,female,Belgian,1,48,guess,loss,10,right,8,guess_choice,820,j,0,0,758,21182,746173
4,18,female,Belgian,1,48,guess,loss,10,right,8,guess_outcome,0,undefined,0,0,743,19624,747731
4,18,female,Belgian,1,48,ITC,loss,10,right,8,ITC_start,478,space,0,0,743,19144,748211
4,18,female,Belgian,1,48,ITC,loss,10,right,8,ITC_choice,1111,f,0,0,743,18032,749323
4,18,female,Belgian,1,48,ITC,loss,10,right,8,ITC_wait,0,undefined,0,0,743,18027,749328
4,18,female,Belgian,1,48,ITC,loss,10,right,8,ITC_collect,283,k,0,0,743,17741,749614
4,18,female,Belgian,1,48,ITC,loss,10,right,8,ITC_outcome,0,undefined,0,0,751,16723,750632
4,18,female,Belgian,1,49,guess,win,10,left,8,guess_start,512,space,0,0,751,16209,751146
4,18,female,Belgian,1,49,guess,win,10,left,8,guess_choice,412,f,0,0,751,15796,751559
4,18,female,Belgian,1,49,guess,win,10,left,8,guess_outcome,0,undefined,0,0,771,14234,753121
4,18,female,Belgian,1,49,ITC,win,10,left,8,ITC_start,436,space,0,0,771,13797,753558
4,18,female,Belgian,1,49,ITC,win,10,left,8,ITC_choice,968,j,0,0,771,12827,754528
4,18,female,Belgian,1,49,ITC,win,10,left,8,ITC_wait,0,undefined,0,0,771,12825,754530
4,18,female,Belgian,1,49,ITC,win,10,left,8,ITC_collect,280,k,0,0,771,12545,754810
4,18,female,Belgian,1,49,ITC,win,10,left,8,ITC_outcome,0,undefined,0,0,779,11534,755821
4,18,female,Belgian,1,50,guess,loss,5,right,1,guess_start,409,space,0,0,779,11123,756232
4,18,female,Belgian,1,50,guess,loss,5,right,1,guess_choice,460,f,0,0,779,10658,756697
4,18,female,Belgian,1,50,guess,loss,5,right,1,guess_outcome,0,undefined,0,0,764,9084,758271
4,18,female,Belgian,1,50,ITC,loss,5,right,1,ITC_start,830,space,0,0,764,8252,759103
4,18,female,Belgian,1,50,ITC,loss,5,right,1,ITC_choice,1264,j,0,0,764,6987,760368
4,18,female,Belgian,1,50,ITC,loss,5,right,1,ITC_wait,0,undefined,0,0,764,1984,765371
4,18,female,Belgian,1,50,ITC,loss,5,right,1,ITC_collect,305,k,0,0,764,1676,765679
4,18,female,Belgian,1,50,ITC,loss,5,right,1,ITC_outcome,0,undefined,0,0,784,664,766691
4,18,female,Belgian,1,51,guess,loss,5,right,7,guess_start,64,space,0,0,784,597,766758
4,18,female,Belgian,1,51,guess,loss,5,right,7,guess_choice,0,undefined,0,0,784,-16,767371
4,18,female,Belgian,2,52,guess,neutral,5,left,11,guess_start,893,space,0,0,0,479107,779194
4,18,female,Belgian,2,52,guess,neutral,5,left,11,guess_choice,702,j,0,0,0,478403,779898
4,18,female,Belgian,2,52,guess,neutral,5,left,11,guess_outcome,0,undefined,0,0,0,476831,781470
4,18,female,Belgian,2,52,ITC,neutral,5,left,11,ITC_start,1246,space,0,0,0,475583,782718
4,18,female,Belgian,2,52,ITC,neutral,5,left,11,ITC_choice,2478,j,0,0,0,473103,785198
4,18,female,Belgian,2,52,ITC,neutral,5,left,11,ITC_wait,0,undefined,0,0,0,473098,785203
4,18,female,Belgian,2,52,ITC,neutral,5,left,11,ITC_collect,318,k,0,0,0,472777,785524
4,18,female,Belgian,2,52,ITC,neutral,5,left,11,ITC_outcome,0,undefined,0,0,11,471764,786537
4,18,female,Belgian,2,53,guess,loss,5,left,6,guess_start,448,space,0,0,11,471314,786987
4,18,female,Belgian,2,53,guess,loss,5,left,6,guess_choice,710,f,0,0,11,470602,787699
4,18,female,Belgian,2,53,guess,loss,5,left,6,guess_outcome,0,undefined,0,0,-4,469048,789253
4,18,female,Belgian,2,53,ITC,loss,5,left,6,ITC_start,482,space,0,0,-4,468564,789737
4,18,female,Belgian,2,53,ITC,loss,5,left,6,ITC_choice,1284,j,0,0,-4,467280,791021
4,18,female,Belgian,2,53,ITC,loss,5,left,6,ITC_wait,0,undefined,0,0,-4,467278,791023
4,18,female,Belgian,2,53,ITC,loss,5,left,6,ITC_collect,282,k,0,0,-4,466995,791306
4,18,female,Belgian,2,53,ITC,loss,5,left,6,ITC_outcome,0,undefined,0,0,2,465991,792310
4,18,female,Belgian,2,54,guess,neutral,5,right,3,guess_start,554,space,0,0,2,465436,792865
4,18,female,Belgian,2,54,guess,neutral,5,right,3,guess_choice,473,j,0,0,2,464957,793344
4,18,female,Belgian,2,54,guess,neutral,5,right,3,guess_outcome,0,undefined,0,0,2,463400,794901
4,18,female,Belgian,2,54,ITC,neutral,5,right,3,ITC_start,401,space,0,0,2,462998,795303
4,18,female,Belgian,2,54,ITC,neutral,5,right,3,ITC_choice,909,f,0,0,2,462089,796212
4,18,female,Belgian,2,54,ITC,neutral,5,right,3,ITC_wait,0,undefined,0,0,2,462084,796217
4,18,female,Belgian,2,54,ITC,neutral,5,right,3,ITC_collect,1236,k,0,0,2,460846,797455
4,18,female,Belgian,2,54,ITC,neutral,5,right,3,ITC_outcome,0,undefined,0,0,5,459840,798461
4,18,female,Belgian,2,55,guess,neutral,10,right,6,guess_start,480,space,0,0,5,459357,798944
4,18,female,Belgian,2,55,guess,neutral,10,right,6,guess_choice,657,j,0,0,5,458698,799603
4,18,female,Belgian,2,55,guess,neutral,10,right,6,guess_outcome,0,undefined,0,0,5,457130,801171
4,18,female,Belgian,2,55,ITC,neutral,10,right,6,ITC_start,893,space,0,0,5,456235,802066
4,18,female,Belgian,2,55,ITC,neutral,10,right,6,ITC_choice,918,f,0,0,5,455315,802986
4,18,female,Belgian,2,55,ITC,neutral,10,right,6,ITC_wait,0,undefined,0,0,5,455311,802990
4,18,female,Belgian,2,55,ITC,neutral,10,right,6,ITC_collect,638,k,0,0,5,454673,803628
4,18,female,Belgian,2,55,ITC,neutral,10,right,6,ITC_outcome,0,undefined,0,0,11,453660,804641
4,18,female,Belgian,2,56,guess,win,5,right,9,guess_start,402,space,0,0,11,453255,805046
4,18,female,Belgian,2,56,guess,win,5,right,9,guess_choice,642,f,0,0,11,452611,805690
4,18,female,Belgian,2,56,guess,win,5,right,9,guess_outcome,0,undefined,0,0,31,451050,807251
4,18,female,Belgian,2,56,ITC,win,5,right,9,ITC_start,604,space,0,0,31,450450,807851
4,18,female,Belgian,2,56,ITC,win,5,right,9,ITC_choice,675,f,0,0,31,449774,808527
4,18,female,Belgian,2,56,ITC,win,5,right,9,ITC_wait,0,undefined,0,0,31,449771,808530
4,18,female,Belgian,2,56,ITC,win,5,right,9,ITC_collect,231,k,0,0,31,449540,808761
4,18,female,Belgian,2,56,ITC,win,5,right,9,ITC_outcome,0,undefined,0,0,40,448523,809778
4,18,female,Belgian,2,57,guess,win,5,left,2,guess_start,538,space,0,0,40,447982,810319
4,18,female,Belgian,2,57,guess,win,5,left,2,guess_choice,545,j,0,0,40,447431,810870
4,18,female,Belgian,2,57,guess,win,5,left,2,guess_outcome,0,undefined,0,0,60,445865,812436
4,18,female,Belgian,2,57,ITC,win,5,left,2,ITC_start,518,space,0,0,60,445345,812956
4,18,female,Belgian,2,57,ITC,win,5,left,2,ITC_choice,825,j,0,0,60,444517,813784
4,18,female,Belgian,2,57,ITC,win,5,left,2,ITC_wait,0,undefined,0,0,60,444512,813789
4,18,female,Belgian,2,57,ITC,win,5,left,2,ITC_collect,232,k,0,0,60,444278,814023
4,18,female,Belgian,2,57,ITC,win,5,left,2,ITC_outcome,0,undefined,0,0,62,443265,815036
4,18,female,Belgian,2,58,guess,neutral,5,right,10,guess_start,491,space,0,0,62,442773,815528
4,18,female,Belgian,2,58,guess,neutral,5,right,10,guess_choice,580,j,0,0,62,442187,816114
4,18,female,Belgian,2,58,guess,neutral,5,right,10,guess_outcome,0,undefined,0,0,62,440615,817686
4,18,female,Belgian,2,58,ITC,neutral,5,right,10,ITC_start,461,space,0,0,62,440153,818148
4,18,female,Belgian,2,58,ITC,neutral,5,right,10,ITC_choice,966,f,0,0,62,439186,819115
4,18,female,Belgian,2,58,ITC,neutral,5,right,10,ITC_wait,0,undefined,0,0,62,439179,819122
4,18,female,Belgian,2,58,ITC,neutral,5,right,10,ITC_collect,402,k,0,0,62,438774,819527
4,18,female,Belgian,2,58,ITC,neutral,5,right,10,ITC_outcome,0,undefined,0,0,72,437769,820532
4,18,female,Belgian,2,59,guess,neutral,5,left,8,guess_start,554,space,0,0,72,437213,821088
4,18,female,Belgian,2,59,guess,neutral,5,left,8,guess_choice,533,j,0,0,72,436679,821622
4,18,female,Belgian,2,59,guess,neutral,5,left,8,guess_outcome,0,undefined,0,0,72,435115,823186
4,18,female,Belgian,2,59,ITC,neutral,5,left,8,ITC_start,515,space,0,0,72,434597,823704
4,18,female,Belgian,2,59,ITC,neutral,5,left,8,ITC_choice,963,j,0,0,72,433634,824667
4,18,female,Belgian,2,59,ITC,neutral,5,left,8,ITC_wait,0,undefined,0,0,72,433631,824670
4,18,female,Belgian,2,59,ITC,neutral,5,left,8,ITC_collect,297,k,0,0,72,433333,824968
4,18,female,Belgian,2,59,ITC,neutral,5,left,8,ITC_outcome,0,undefined,0,0,80,432324,825977
4,18,female,Belgian,2,60,guess,neutral,10,right,3,guess_start,371,space,0,0,80,431949,826352
4,18,female,Belgian,2,60,guess,neutral,10,right,3,guess_choice,590,j,0,0,80,431355,826946
4,18,female,Belgian,2,60,guess,neutral,10,right,3,guess_outcome,0,undefined,0,0,80,429785,828516
4,18,female,Belgian,2,60,ITC,neutral,10,right,3,ITC_start,363,space,0,0,80,429419,828882
4,18,female,Belgian,2,60,ITC,neutral,10,right,3,ITC_choice,857,j,0,0,80,428560,829741
4,18,female,Belgian,2,60,ITC,neutral,10,right,3,ITC_wait,0,undefined,0,0,80,418545,839756
4,18,female,Belgian,2,60,ITC,neutral,10,right,3,ITC_collect,386,k,0,0,80,418158,840143
4,18,female,Belgian,2,60,ITC,neutral,10,right,3,ITC_outcome,0,undefined,0,0,100,417146,841155
4,18,female,Belgian,2,61,guess,neutral,5,right,16,guess_start,422,space,0,0,100,416722,841579
4,18,female,Belgian,2,61,guess,neutral,5,right,16,guess_choice,541,j,0,0,100,416179,842122
4,18,female,Belgian,2,61,guess,neutral,5,right,16,guess_outcome,0,undefined,0,0,100,414626,843675
4,18,female,Belgian,2,61,ITC,neutral,5,right,16,ITC_start,639,space,0,0,100,413985,844316
4,18,female,Belgian,2,61,ITC,neutral,5,right,16,ITC_choice,2595,f,0,0,100,411388,846913
4,18,female,Belgian,2,61,ITC,neutral,5,right,16,ITC_wait,0,undefined,0,0,100,411384,846917
4,18,female,Belgian,2,61,ITC,neutral,5,right,16,ITC_collect,232,k,0,0,100,411151,847150
4,18,female,Belgian,2,61,ITC,neutral,5,right,16,ITC_outcome,0,undefined,0,0,116,410146,848155
4,18,female,Belgian,2,62,guess,loss,5,left,5,guess_start,409,space,0,0,116,409734,848567
4,18,female,Belgian,2,62,guess,loss,5,left,5,guess_choice,671,f,0,0,116,409057,849244
4,18,female,Belgian,2,62,guess,loss,5,left,5,guess_outcome,0,undefined,0,0,101,407485,850816
4,18,female,Belgian,2,62,ITC,loss,5,left,5,ITC_start,482,space,0,0,101,407001,851300
4,18,female,Belgian,2,62,ITC,loss,5,left,5,ITC_choice,715,j,0,0,101,406283,852018
4,18,female,Belgian,2,62,ITC,loss,5,left,5,ITC_wait,0,undefined,0,0,101,406280,852021
4,18,female,Belgian,2,62,ITC,loss,5,left,5,ITC_collect,227,k,0,0,101,406053,852248
4,18,female,Belgian,2,62,ITC,loss,5,left,5,ITC_outcome,0,undefined,0,0,106,405035,853266
4,18,female,Belgian,2,63,guess,loss,5,right,2,guess_start,484,space,0,0,106,404548,853753
4,18,female,Belgian,2,63,guess,loss,5,right,2,guess_choice,494,j,0,0,106,404048,854253
4,18,female,Belgian,2,63,guess,loss,5,right,2,guess_outcome,0,undefined,0,0,91,402476,855825
4,18,female,Belgian,2,63,ITC,loss,5,right,2,ITC_start,628,space,0,0,91,401848,856453
4,18,female,Belgian,2,63,ITC,loss,5,right,2,ITC_choice,1633,j,0,0,91,400213,858088
4,18,female,Belgian,2,63,ITC,loss,5,right,2,ITC_wait,0,undefined,0,0,91,395196,863105
4,18,female,Belgian,2,63,ITC,loss,5,right,2,ITC_collect,870,k,0,0,91,394323,863978
4,18,female,Belgian,2,63,ITC,loss,5,right,2,ITC_outcome,0,undefined,0,0,111,393304,864997
4,18,female,Belgian,2,64,guess,win,10,left,4,guess_start,431,space,0,0,111,392872,865429
4,18,female,Belgian,2,64,guess,win,10,left,4,guess_choice,767,f,0,0,111,392100,866201
4,18,female,Belgian,2,64,guess,win,10,left,4,guess_outcome,0,undefined,0,0,131,390536,867765
4,18,female,Belgian,2,64,ITC,win,10,left,4,ITC_start,485,space,0,0,131,390051,868250
4,18,female,Belgian,2,64,ITC,win,10,left,4,ITC_choice,756,j,0,0,131,389293,869008
4,18,female,Belgian,2,64,ITC,win,10,left,4,ITC_wait,0,undefined,0,0,131,389288,869013
4,18,female,Belgian,2,64,ITC,win,10,left,4,ITC_collect,277,k,0,0,131,389010,869291
4,18,female,Belgian,2,64,ITC,win,10,left,4,ITC_outcome,0,undefined,0,0,135,387997,870304
4,18,female,Belgian,2,65,guess,win,5,right,11,guess_start,390,space,0,0,135,387604,870697
4,18,female,Belgian,2,65,guess,win,5,right,11,guess_choice,386,j,0,0,135,387212,871089
4,18,female,Belgian,2,65,guess,win,5,right,11,guess_outcome,0,undefined,0,0,155,385657,872644
4,18,female,Belgian,2,65,ITC,win,5,right,11,ITC_start,447,space,0,0,155,385208,873093
4,18,female,Belgian,2,65,ITC,win,5,right,11,ITC_choice,1545,f,0,0,155,383663,874638
4,18,female,Belgian,2,65,ITC,win,5,right,11,ITC_wait,0,undefined,0,0,155,383659,874642
4,18,female,Belgian,2,65,ITC,win,5,right,11,ITC_collect,251,k,0,0,155,383407,874894
4,18,female,Belgian,2,65,ITC,win,5,right,11,ITC_outcome,0,undefined,0,0,166,382401,875900
4,18,female,Belgian,2,66,guess,neutral,5,right,1,guess_start,454,space,0,0,166,381944,876357
4,18,female,Belgian,2,66,guess,neutral,5,right,1,guess_choice,721,f,0,0,166,381218,877083
4,18,female,Belgian,2,66,guess,neutral,5,right,1,guess_outcome,0,undefined,0,0,166,379647,878654
4,18,female,Belgian,2,66,ITC,neutral,5,right,1,ITC_start,379,space,0,0,166,379266,879035
4,18,female,Belgian,2,66,ITC,neutral,5,right,1,ITC_choice,993,j,0,0,166,378273,880028
4,18,female,Belgian,2,66,ITC,neutral,5,right,1,ITC_wait,0,undefined,0,0,166,373257,885044
4,18,female,Belgian,2,66,ITC,neutral,5,right,1,ITC_collect,482,k,0,0,166,372774,885527
4,18,female,Belgian,2,66,ITC,neutral,5,right,1,ITC_outcome,0,undefined,0,0,186,371761,886540
4,18,female,Belgian,2,67,guess,neutral,5,left,13,guess_start,666,space,0,0,186,371093,887208
4,18,female,Belgian,2,67,guess,neutral,5,left,13,guess_choice,530,j,0,0,186,370556,887745
4,18,female,Belgian,2,67,guess,neutral,5,left,13,guess_outcome,0,undefined,0,0,186,368985,889316
4,18,female,Belgian,2,67,ITC,neutral,5,left,13,ITC_start,1168,space,0,0,186,367815,890486
4,18,female,Belgian,2,67,ITC,neutral,5,left,13,ITC_choice,830,j,0,0,186,366983,891318
4,18,female,Belgian,2,67,ITC,neutral,5,left,13,ITC_wait,0,undefined,0,0,186,366980,891321
4,18,female,Belgian,2,67,ITC,neutral,5,left,13,ITC_collect,240,k,0,0,186,366738,891563
4,18,female,Belgian,2,67,ITC,neutral,5,left,13,ITC_outcome,0,undefined,0,0,199,365720,892581
4,18,female,Belgian,2,68,guess,loss,10,right,2,guess_start,373,space,0,0,199,365346,892955
4,18,female,Belgian,2,68,guess,loss,10,right,2,guess_choice,896,f,0,0,199,364448,893853
4,18,female,Belgian,2,68,guess,loss,10,right,2,guess_outcome,0,undefined,0,0,184,362876,895425
4,18,female,Belgian,2,68,ITC,loss,10,right,2,ITC_start,988,space,0,0,184,361887,896414
4,18,female,Belgian,2,68,ITC,loss,10,right,2,ITC_choice,1425,f,0,0,184,360459,897842
4,18,female,Belgian,2,68,ITC,loss,10,right,2,ITC_wait,0,undefined,0,0,184,360455,897846
4,18,female,Belgian,2,68,ITC,loss,10,right,2,ITC_collect,215,k,0,0,184,360237,898064
4,18,female,Belgian,2,68,ITC,loss,10,right,2,ITC_outcome,0,undefined,0,0,186,359226,899075
4,18,female,Belgian,2,69,guess,loss,5,right,12,guess_start,354,space,0,0,186,358871,899430
4,18,female,Belgian,2,69,guess,loss,5,right,12,guess_choice,480,j,0,0,186,358390,899911
4,18,female,Belgian,2,69,guess,loss,5,right,12,guess_outcome,0,undefined,0,0,171,356825,901476
4,18,female,Belgian,2,69,ITC,loss,5,right,12,ITC_start,564,space,0,0,171,356259,902042
4,18,female,Belgian,2,69,ITC,loss,5,right,12,ITC_choice,691,f,0,0,171,355565,902736
4,18,female,Belgian,2,69,ITC,loss,5,right,12,ITC_wait,0,undefined,0,0,171,355561,902740
4,18,female,Belgian,2,69,ITC,loss,5,right,12,ITC_collect,207,k,0,0,171,355353,902948
4,18,female,Belgian,2,69,ITC,loss,5,right,12,ITC_outcome,0,undefined,0,0,183,354335,903966
4,18,female,Belgian,2,70,guess,win,5,right,12,guess_start,483,space,0,0,183,353850,904451
4,18,female,Belgian,2,70,guess,win,5,right,12,guess_choice,1505,f,0,0,183,352339,905962
4,18,female,Belgian,2,70,guess,win,5,right,12,guess_outcome,0,undefined,0,0,203,350776,907525
4,18,female,Belgian,2,70,ITC,win,5,right,12,ITC_start,435,space,0,0,203,350340,907961
4,18,female,Belgian,2,70,ITC,win,5,right,12,ITC_choice,1051,f,0,0,203,349286,909015
4,18,female,Belgian,2,70,ITC,win,5,right,12,ITC_wait,0,undefined,0,0,203,349281,909020
4,18,female,Belgian,2,70,ITC,win,5,right,12,ITC_collect,367,k,0,0,203,348912,909389
4,18,female,Belgian,2,70,ITC,win,5,right,12,ITC_outcome,0,undefined,0,0,215,347895,910406
4,18,female,Belgian,2,71,guess,win,5,right,15,guess_start,300,space,0,0,215,347592,910709
4,18,female,Belgian,2,71,guess,win,5,right,15,guess_choice,1314,j,0,0,215,346272,912029
4,18,female,Belgian,2,71,guess,win,5,right,15,guess_outcome,0,undefined,0,0,235,344696,913605
4,18,female,Belgian,2,71,ITC,win,5,right,15,ITC_start,525,space,0,0,235,344169,914132
4,18,female,Belgian,2,71,ITC,win,5,right,15,ITC_choice,711,f,0,0,235,343456,914845
4,18,female,Belgian,2,71,ITC,win,5,right,15,ITC_wait,0,undefined,0,0,235,343451,914850
4,18,female,Belgian,2,71,ITC,win,5,right,15,ITC_collect,231,k,0,0,235,343219,915082
4,18,female,Belgian,2,71,ITC,win,5,right,15,ITC_outcome,0,undefined,0,0,250,342205,916096
4,18,female,Belgian,2,72,guess,neutral,10,left,1,guess_start,546,space,0,0,250,341656,916645
4,18,female,Belgian,2,72,guess,neutral,10,left,1,guess_choice,531,j,0,0,250,341120,917181
4,18,female,Belgian,2,72,guess,neutral,10,left,1,guess_outcome,0,undefined,0,0,250,339555,918746
4,18,female,Belgian,2,72,ITC,neutral,10,left,1,ITC_start,586,space,0,0,250,338967,919334
4,18,female,Belgian,2,72,ITC,neutral,10,left,1,ITC_choice,1397,f,0,0,250,337567,920734
4,18,female,Belgian,2,72,ITC,neutral,10,left,1,ITC_wait,0,undefined,0,0,250,327557,930744
4,18,female,Belgian,2,72,ITC,neutral,10,left,1,ITC_collect,351,k,0,0,250,327203,931098
4,18,female,Belgian,2,72,ITC,neutral,10,left,1,ITC_outcome,0,undefined,0,0,270,326195,932106
4,18,female,Belgian,2,73,guess,win,10,left,2,guess_start,654,space,0,0,270,325538,932763
4,18,female,Belgian,2,73,guess,win,10,left,2,guess_choice,728,f,0,0,270,324809,933492
4,18,female,Belgian,2,73,guess,win,10,left,2,guess_outcome,0,undefined,0,0,290,323246,935055
4,18,female,Belgian,2,73,ITC,win,10,left,2,ITC_start,612,space,0,0,290,322633,935668
4,18,female,Belgian,2,73,ITC,win,10,left,2,ITC_choice,2196,f,0,0,290,320435,937866
4,18,female,Belgian,2,73,ITC,win,10,left,2,ITC_wait,0,undefined,0,0,290,310426,947875
4,18,female,Belgian,2,73,ITC,win,10,left,2,ITC_collect,1645,k,0,0,290,308778,949523
4,18,female,Belgian,2,73,ITC,win,10,left,2,ITC_outcome,0,undefined,0,0,310,307765,950536
4,18,female,Belgian,2,74,guess,win,10,right,1,guess_start,1041,space,0,0,310,306721,951580
4,18,female,Belgian,2,74,guess,win,10,right,1,guess_choice,1132,j,0,0,310,305587,952714
4,18,female,Belgian,2,74,guess,win,10,right,1,guess_outcome,0,undefined,0,0,330,304015,954286
4,18,female,Belgian,2,74,ITC,win,10,right,1,ITC_start,730,space,0,0,330,303282,955019
4,18,female,Belgian,2,74,ITC,win,10,right,1,ITC_choice,1931,j,0,0,330,301349,956952
4,18,female,Belgian,2,74,ITC,win,10,right,1,ITC_wait,0,undefined,0,0,330,291339,966962
4,18,female,Belgian,2,74,ITC,win,10,right,1,ITC_collect,1240,k,0,0,330,290095,968206
4,18,female,Belgian,2,74,ITC,win,10,right,1,ITC_outcome,0,undefined,0,0,350,289076,969225
4,18,female,Belgian,2,75,guess,win,5,left,1,guess_start,764,space,0,0,350,288310,969991
4,18,female,Belgian,2,75,guess,win,5,left,1,guess_choice,579,f,0,0,350,287724,970577
4,18,female,Belgian,2,75,guess,win,5,left,1,guess_outcome,0,undefined,0,0,370,286167,972134
4,18,female,Belgian,2,75,ITC,win,5,left,1,ITC_start,629,space,0,0,370,285536,972765
4,18,female,Belgian,2,75,ITC,win,5,left,1,ITC_choice,1913,f,0,0,370,283620,974681
4,18,female,Belgian,2,75,ITC,win,5,left,1,ITC_wait,0,undefined,0,0,370,278617,979684
4,18,female,Belgian,2,75,ITC,win,5,left,1,ITC_collect,277,k,0,0,370,278339,979962
4,18,female,Belgian,2,75,ITC,win,5,left,1,ITC_outcome,0,undefined,0,0,390,277324,980977
4,18,female,Belgian,2,76,guess,neutral,10,right,3,guess_start,529,space,0,0,390,276794,981507
4,18,female,Belgian,2,76,guess,neutral,10,right,3,guess_choice,655,f,0,0,390,276135,982166
4,18,female,Belgian,2,76,guess,neutral,10,right,3,guess_outcome,0,undefined,0,0,390,274566,983735
4,18,female,Belgian,2,76,ITC,neutral,10,right,3,ITC_start,1241,space,0,0,390,273323,984978
4,18,female,Belgian,2,76,ITC,neutral,10,right,3,ITC_choice,1987,j,0,0,390,271336,986965
4,18,female,Belgian,2,76,ITC,neutral,10,right,3,ITC_wait,0,undefined,0,0,390,261333,996968
4,18,female,Belgian,2,76,ITC,neutral,10,right,3,ITC_collect,580,k,0,0,390,260750,997551
4,18,female,Belgian,2,76,ITC,neutral,10,right,3,ITC_outcome,0,undefined,0,0,410,259730,998571
4,18,female,Belgian,2,77,guess,neutral,10,left,5,guess_start,1203,space,0,0,410,258525,999776
4,18,female,Belgian,2,77,guess,neutral,10,left,5,guess_choice,579,f,0,0,410,257940,1000361
4,18,female,Belgian,2,77,guess,neutral,10,left,5,guess_outcome,0,undefined,0,0,410,256370,1001931
4,18,female,Belgian,2,77,ITC,neutral,10,left,5,ITC_start,466,space,0,0,410,255901,1002400
4,18,female,Belgian,2,77,ITC,neutral,10,left,5,ITC_choice,545,j,0,0,410,255353,1002948
4,18,female,Belgian,2,77,ITC,neutral,10,left,5,ITC_wait,0,undefined,0,0,410,255348,1002953
4,18,female,Belgian,2,77,ITC,neutral,10,left,5,ITC_collect,294,k,0,0,410,255052,1003249
4,18,female,Belgian,2,77,ITC,neutral,10,left,5,ITC_outcome,0,undefined,0,0,415,254036,1004265
4,18,female,Belgian,2,78,guess,loss,10,right,8,guess_start,349,space,0,0,415,253686,1004615
4,18,female,Belgian,2,78,guess,loss,10,right,8,guess_choice,535,f,0,0,415,253143,1005158
4,18,female,Belgian,2,78,guess,loss,10,right,8,guess_outcome,0,undefined,0,0,400,251580,1006721
4,18,female,Belgian,2,78,ITC,loss,10,right,8,ITC_start,381,space,0,0,400,251197,1007104
4,18,female,Belgian,2,78,ITC,loss,10,right,8,ITC_choice,1956,j,0,0,400,249239,1009062
4,18,female,Belgian,2,78,ITC,loss,10,right,8,ITC_wait,0,undefined,0,0,400,239220,1019081
4,18,female,Belgian,2,78,ITC,loss,10,right,8,ITC_collect,3440,k,0,0,400,235777,1022524
4,18,female,Belgian,2,78,ITC,loss,10,right,8,ITC_outcome,0,undefined,0,0,420,234762,1023539
4,18,female,Belgian,2,79,guess,neutral,10,right,8,guess_start,458,space,0,0,420,234302,1023999
4,18,female,Belgian,2,79,guess,neutral,10,right,8,guess_choice,1066,j,0,0,420,233235,1025066
4,18,female,Belgian,2,79,guess,neutral,10,right,8,guess_outcome,0,undefined,0,0,420,231661,1026640
4,18,female,Belgian,2,79,ITC,neutral,10,right,8,ITC_start,555,space,0,0,420,231103,1027198
4,18,female,Belgian,2,79,ITC,neutral,10,right,8,ITC_choice,1828,j,0,0,420,229275,1029026
4,18,female,Belgian,2,79,ITC,neutral,10,right,8,ITC_wait,0,undefined,0,0,420,219270,1039031
4,18,female,Belgian,2,79,ITC,neutral,10,right,8,ITC_collect,2044,k,0,0,420,217225,1041076
4,18,female,Belgian,2,79,ITC,neutral,10,right,8,ITC_outcome,0,undefined,0,0,440,216214,1042087
4,18,female,Belgian,2,80,guess,neutral,5,left,16,guess_start,1173,space,0,0,440,215038,1043263
4,18,female,Belgian,2,80,guess,neutral,5,left,16,guess_choice,607,j,0,0,440,214425,1043876
4,18,female,Belgian,2,80,guess,neutral,5,left,16,guess_outcome,0,undefined,0,0,440,212864,1045437
4,18,female,Belgian,2,80,ITC,neutral,5,left,16,ITC_start,550,space,0,0,440,212312,1045989
4,18,female,Belgian,2,80,ITC,neutral,5,left,16,ITC_choice,724,j,0,0,440,211585,1046716
4,18,female,Belgian,2,80,ITC,neutral,5,left,16,ITC_wait,0,undefined,0,0,440,211582,1046719
4,18,female,Belgian,2,80,ITC,neutral,5,left,16,ITC_collect,729,k,0,0,440,210853,1047448
4,18,female,Belgian,2,80,ITC,neutral,5,left,16,ITC_outcome,0,undefined,0,0,456,209845,1048456
4,18,female,Belgian,2,81,guess,loss,10,right,1,guess_start,540,space,0,0,456,209304,1048997
4,18,female,Belgian,2,81,guess,loss,10,right,1,guess_choice,591,f,0,0,456,208707,1049594
4,18,female,Belgian,2,81,guess,loss,10,right,1,guess_outcome,0,undefined,0,0,441,207154,1051147
4,18,female,Belgian,2,81,ITC,loss,10,right,1,ITC_start,579,space,0,0,441,206572,1051729
4,18,female,Belgian,2,81,ITC,loss,10,right,1,ITC_choice,805,j,0,0,441,205765,1052536
4,18,female,Belgian,2,81,ITC,loss,10,right,1,ITC_wait,0,undefined,0,0,441,195756,1062545
4,18,female,Belgian,2,81,ITC,loss,10,right,1,ITC_collect,946,k,0,0,441,194807,1063494
4,18,female,Belgian,2,81,ITC,loss,10,right,1,ITC_outcome,0,undefined,0,0,461,193805,1064496
4,18,female,Belgian,2,82,guess,loss,10,right,6,guess_start,417,space,0,0,461,193386,1064915
4,18,female,Belgian,2,82,guess,loss,10,right,6,guess_choice,455,j,0,0,461,192930,1065371
4,18,female,Belgian,2,82,guess,loss,10,right,6,guess_outcome,0,undefined,0,0,446,191363,1066938
4,18,female,Belgian,2,82,ITC,loss,10,right,6,ITC_start,361,space,0,0,446,191001,1067300
4,18,female,Belgian,2,82,ITC,loss,10,right,6,ITC_choice,563,f,0,0,446,190436,1067865
4,18,female,Belgian,2,82,ITC,loss,10,right,6,ITC_wait,0,undefined,0,0,446,190434,1067867
4,18,female,Belgian,2,82,ITC,loss,10,right,6,ITC_collect,302,k,0,0,446,190131,1068170
4,18,female,Belgian,2,82,ITC,loss,10,right,6,ITC_outcome,0,undefined,0,0,452,189115,1069186
4,18,female,Belgian,2,83,guess,win,5,left,6,guess_start,352,space,0,0,452,188761,1069540
4,18,female,Belgian,2,83,guess,win,5,left,6,guess_choice,489,f,0,0,452,188267,1070034
4,18,female,Belgian,2,83,guess,win,5,left,6,guess_outcome,0,undefined,0,0,472,186704,1071597
4,18,female,Belgian,2,83,ITC,win,5,left,6,ITC_start,440,space,0,0,472,186263,1072038
4,18,female,Belgian,2,83,ITC,win,5,left,6,ITC_choice,923,j,0,0,472,185338,1072963
4,18,female,Belgian,2,83,ITC,win,5,left,6,ITC_wait,0,undefined,0,0,472,185335,1072966
4,18,female,Belgian,2,83,ITC,win,5,left,6,ITC_collect,317,k,0,0,472,185017,1073284
4,18,female,Belgian,2,83,ITC,win,5,left,6,ITC_outcome,0,undefined,0,0,478,184003,1074298
4,18,female,Belgian,2,84,guess,win,5,right,11,guess_start,301,space,0,0,478,183699,1074602
4,18,female,Belgian,2,84,guess,win,5,right,11,guess_choice,644,j,0,0,478,183054,1075247
4,18,female,Belgian,2,84,guess,win,5,right,11,guess_outcome,0,undefined,0,0,498,181493,1076808
4,18,female,Belgian,2,84,ITC,win,5,right,11,ITC_start,331,space,0,0,498,181162,1077139
4,18,female,Belgian,2,84,ITC,win,5,right,11,ITC_choice,724,f,0,0,498,180437,1077864
4,18,female,Belgian,2,84,ITC,win,5,right,11,ITC_wait,0,undefined,0,0,498,180432,1077869
4,18,female,Belgian,2,84,ITC,win,5,right,11,ITC_collect,315,k,0,0,498,180116,1078185
4,18,female,Belgian,2,84,ITC,win,5,right,11,ITC_outcome,0,undefined,0,0,509,179114,1079187
4,18,female,Belgian,2,85,guess,win,5,left,9,guess_start,355,space,0,0,509,178757,1079544
4,18,female,Belgian,2,85,guess,win,5,left,9,guess_choice,646,f,0,0,509,178106,1080195
4,18,female,Belgian,2,85,guess,win,5,left,9,guess_outcome,0,undefined,0,0,529,176543,1081758
4,18,female,Belgian,2,85,ITC,win,5,left,9,ITC_start,95,space,0,0,529,176445,1081856
4,18,female,Belgian,2,85,ITC,win,5,left,9,ITC_choice,1741,f,0,0,529,174702,1083599
4,18,female,Belgian,2,85,ITC,win,5,left,9,ITC_wait,0,undefined,0,0,529,169693,1088608
4,18,female,Belgian,2,85,ITC,win,5,left,9,ITC_collect,299,k,0,0,529,169392,1088909
4,18,female,Belgian,2,85,ITC,win,5,left,9,ITC_outcome,0,undefined,0,0,549,168373,1089928
4,18,female,Belgian,2,86,guess,loss,5,right,2,guess_start,371,space,0,0,549,167999,1090302
4,18,female,Belgian,2,86,guess,loss,5,right,2,guess_choice,486,j,0,0,549,167508,1090793
4,18,female,Belgian,2,86,guess,loss,5,right,2,guess_outcome,0,undefined,0,0,534,165933,1092368
4,18,female,Belgian,2,86,ITC,loss,5,right,2,ITC_start,383,space,0,0,534,165549,1092752
4,18,female,Belgian,2,86,ITC,loss,5,right,2,ITC_choice,937,j,0,0,534,164611,1093690
4,18,female,Belgian,2,86,ITC,loss,5,right,2,ITC_wait,0,undefined,0,0,534,159603,1098698
4,18,female,Belgian,2,86,ITC,loss,5,right,2,ITC_collect,268,k,0,0,534,159332,1098969
4,18,female,Belgian,2,86,ITC,loss,5,right,2,ITC_outcome,0,undefined,0,0,554,158323,1099978
4,18,female,Belgian,2,87,guess,loss,5,right,3,guess_start,485,space,0,0,554,157835,1100466
4,18,female,Belgian,2,87,guess,loss,5,right,3,guess_choice,490,f,0,0,554,157340,1100961
4,18,female,Belgian,2,87,guess,loss,5,right,3,guess_outcome,0,undefined,0,0,539,155773,1102528
4,18,female,Belgian,2,87,ITC,loss,5,right,3,ITC_start,664,space,0,0,539,155107,1103194
4,18,female,Belgian,2,87,ITC,loss,5,right,3,ITC_choice,1105,j,0,0,539,154000,1104301
4,18,female,Belgian,2,87,ITC,loss,5,right,3,ITC_wait,0,undefined,0,0,539,148993,1109308
4,18,female,Belgian,2,87,ITC,loss,5,right,3,ITC_collect,357,k,0,0,539,148634,1109667
4,18,female,Belgian,2,87,ITC,loss,5,right,3,ITC_outcome,0,undefined,0,0,559,147621,1110680
4,18,female,Belgian,2,88,guess,neutral,10,left,2,guess_start,570,space,0,0,559,147050,1111251
4,18,female,Belgian,2,88,guess,neutral,10,left,2,guess_choice,557,j,0,0,559,146487,1111814
4,18,female,Belgian,2,88,guess,neutral,10,left,2,guess_outcome,0,undefined,0,0,559,144923,1113378
4,18,female,Belgian,2,88,ITC,neutral,10,left,2,ITC_start,563,space,0,0,559,144357,1113944
4,18,female,Belgian,2,88,ITC,neutral,10,left,2,ITC_choice,1286,f,0,0,559,143071,1115230
4,18,female,Belgian,2,88,ITC,neutral,10,left,2,ITC_wait,0,undefined,0,0,559,133064,1125237
4,18,female,Belgian,2,88,ITC,neutral,10,left,2,ITC_collect,423,k,0,0,559,132638,1125663
4,18,female,Belgian,2,88,ITC,neutral,10,left,2,ITC_outcome,0,undefined,0,0,579,131622,1126679
4,18,female,Belgian,2,89,guess,neutral,5,left,13,guess_start,499,space,0,0,579,131121,1127180
4,18,female,Belgian,2,89,guess,neutral,5,left,13,guess_choice,588,f,0,0,579,130529,1127772
4,18,female,Belgian,2,89,guess,neutral,5,left,13,guess_outcome,0,undefined,0,0,579,128971,1129330
4,18,female,Belgian,2,89,ITC,neutral,5,left,13,ITC_start,392,space,0,0,579,128578,1129723
4,18,female,Belgian,2,89,ITC,neutral,5,left,13,ITC_choice,653,j,0,0,579,127923,1130378
4,18,female,Belgian,2,89,ITC,neutral,5,left,13,ITC_wait,0,undefined,0,0,579,127920,1130381
4,18,female,Belgian,2,89,ITC,neutral,5,left,13,ITC_collect,291,k,0,0,579,127628,1130673
4,18,female,Belgian,2,89,ITC,neutral,5,left,13,ITC_outcome,0,undefined,0,0,592,126612,1131689
4,18,female,Belgian,2,90,guess,neutral,5,right,7,guess_start,322,space,0,0,592,126287,1132014
4,18,female,Belgian,2,90,guess,neutral,5,right,7,guess_choice,591,f,0,0,592,125695,1132606
4,18,female,Belgian,2,90,guess,neutral,5,right,7,guess_outcome,0,undefined,0,0,592,124132,1134169
4,18,female,Belgian,2,90,ITC,neutral,5,right,7,ITC_start,386,space,0,0,592,123744,1134557
4,18,female,Belgian,2,90,ITC,neutral,5,right,7,ITC_choice,773,j,0,0,592,122968,1135333
4,18,female,Belgian,2,90,ITC,neutral,5,right,7,ITC_wait,0,undefined,0,0,592,117962,1140339
4,18,female,Belgian,2,90,ITC,neutral,5,right,7,ITC_collect,328,k,0,0,592,117632,1140669
4,18,female,Belgian,2,90,ITC,neutral,5,right,7,ITC_outcome,0,undefined,0,0,612,116622,1141679
4,18,female,Belgian,2,91,guess,loss,5,right,4,guess_start,167,space,0,0,612,116452,1141849
4,18,female,Belgian,2,91,guess,loss,5,right,4,guess_choice,726,f,0,0,612,115725,1142576
4,18,female,Belgian,2,91,guess,loss,5,right,4,guess_outcome,0,undefined,0,0,597,114153,1144148
4,18,female,Belgian,2,91,ITC,loss,5,right,4,ITC_start,398,space,0,0,597,113754,1144547
4,18,female,Belgian,2,91,ITC,loss,5,right,4,ITC_choice,727,j,0,0,597,113024,1145277
4,18,female,Belgian,2,91,ITC,loss,5,right,4,ITC_wait,0,undefined,0,0,597,108022,1150279
4,18,female,Belgian,2,91,ITC,loss,5,right,4,ITC_collect,336,k,0,0,597,107684,1150617
4,18,female,Belgian,2,91,ITC,loss,5,right,4,ITC_outcome,0,undefined,0,0,617,106673,1151628
4,18,female,Belgian,2,92,guess,neutral,5,left,4,guess_start,414,space,0,0,617,106258,1152043
4,18,female,Belgian,2,92,guess,neutral,5,left,4,guess_choice,577,f,0,0,617,105676,1152625
4,18,female,Belgian,2,92,guess,neutral,5,left,4,guess_outcome,0,undefined,0,0,617,104112,1154189
4,18,female,Belgian,2,92,ITC,neutral,5,left,4,ITC_start,382,space,0,0,617,103728,1154573
4,18,female,Belgian,2,92,ITC,neutral,5,left,4,ITC_choice,814,f,0,0,617,102913,1155388
4,18,female,Belgian,2,92,ITC,neutral,5,left,4,ITC_wait,0,undefined,0,0,617,97902,1160399
4,18,female,Belgian,2,92,ITC,neutral,5,left,4,ITC_collect,392,k,0,0,617,97507,1160794
4,18,female,Belgian,2,92,ITC,neutral,5,left,4,ITC_outcome,0,undefined,0,0,637,96482,1161819
4,18,female,Belgian,2,93,guess,neutral,5,left,11,guess_start,347,space,0,0,637,96132,1162169
4,18,female,Belgian,2,93,guess,neutral,5,left,11,guess_choice,548,f,0,0,637,95578,1162723
4,18,female,Belgian,2,93,guess,neutral,5,left,11,guess_outcome,0,undefined,0,0,637,94002,1164299
4,18,female,Belgian,2,93,ITC,neutral,5,left,11,ITC_start,394,space,0,0,637,93606,1164695
4,18,female,Belgian,2,93,ITC,neutral,5,left,11,ITC_choice,917,j,0,0,637,92688,1165613
4,18,female,Belgian,2,93,ITC,neutral,5,left,11,ITC_wait,0,undefined,0,0,637,92683,1165618
4,18,female,Belgian,2,93,ITC,neutral,5,left,11,ITC_collect,338,k,0,0,637,92343,1165958
4,18,female,Belgian,2,93,ITC,neutral,5,left,11,ITC_outcome,0,undefined,0,0,648,91332,1166969
4,18,female,Belgian,2,94,guess,loss,5,left,5,guess_start,403,space,0,0,648,90926,1167375
4,18,female,Belgian,2,94,guess,loss,5,left,5,guess_choice,500,f,0,0,648,90424,1167877
4,18,female,Belgian,2,94,guess,loss,5,left,5,guess_outcome,0,undefined,0,0,633,88867,1169434
4,18,female,Belgian,2,94,ITC,loss,5,left,5,ITC_start,421,space,0,0,633,88445,1169856
4,18,female,Belgian,2,94,ITC,loss,5,left,5,ITC_choice,879,j,0,0,633,87563,1170738
4,18,female,Belgian,2,94,ITC,loss,5,left,5,ITC_wait,0,undefined,0,0,633,87558,1170743
4,18,female,Belgian,2,94,ITC,loss,5,left,5,ITC_collect,257,k,0,0,633,87298,1171003
4,18,female,Belgian,2,94,ITC,loss,5,left,5,ITC_outcome,0,undefined,0,0,638,86292,1172009
4,18,female,Belgian,2,95,guess,win,5,left,15,guess_start,356,space,0,0,638,85931,1172370
4,18,female,Belgian,2,95,guess,win,5,left,15,guess_choice,396,j,0,0,638,85529,1172772
4,18,female,Belgian,2,95,guess,win,5,left,15,guess_outcome,0,undefined,0,0,658,83972,1174329
4,18,female,Belgian,2,95,ITC,win,5,left,15,ITC_start,71,space,0,0,658,83899,1174402
4,18,female,Belgian,2,95,ITC,win,5,left,15,ITC_choice,1478,j,0,0,658,82419,1175882
4,18,female,Belgian,2,95,ITC,win,5,left,15,ITC_wait,0,undefined,0,0,658,82414,1175887
4,18,female,Belgian,2,95,ITC,win,5,left,15,ITC_collect,234,k,0,0,658,82177,1176124
4,18,female,Belgian,2,95,ITC,win,5,left,15,ITC_outcome,0,undefined,0,0,673,81172,1177129
4,18,female,Belgian,2,96,guess,loss,5,right,1,guess_start,731,space,0,0,673,80438,1177863
4,18,female,Belgian,2,96,guess,loss,5,right,1,guess_choice,649,f,0,0,673,79784,1178517
4,18,female,Belgian,2,96,guess,loss,5,right,1,guess_outcome,0,undefined,0,0,658,78222,1180079
4,18,female,Belgian,2,96,ITC,loss,5,right,1,ITC_start,341,space,0,0,658,77879,1180422
4,18,female,Belgian,2,96,ITC,loss,5,right,1,ITC_choice,656,j,0,0,658,77221,1181080
4,18,female,Belgian,2,96,ITC,loss,5,right,1,ITC_wait,0,undefined,0,0,658,72213,1186088
4,18,female,Belgian,2,96,ITC,loss,5,right,1,ITC_collect,352,k,0,0,658,71858,1186443
4,18,female,Belgian,2,96,ITC,loss,5,right,1,ITC_outcome,0,undefined,0,0,678,70852,1187449
4,18,female,Belgian,2,97,guess,neutral,5,left,8,guess_start,383,space,0,0,678,70466,1187835
4,18,female,Belgian,2,97,guess,neutral,5,left,8,guess_choice,483,j,0,0,678,69982,1188319
4,18,female,Belgian,2,97,guess,neutral,5,left,8,guess_outcome,0,undefined,0,0,678,68412,1189889
4,18,female,Belgian,2,97,ITC,neutral,5,left,8,ITC_start,341,space,0,0,678,68069,1190232
4,18,female,Belgian,2,97,ITC,neutral,5,left,8,ITC_choice,1104,f,0,0,678,66963,1191338
4,18,female,Belgian,2,97,ITC,neutral,5,left,8,ITC_wait,0,undefined,0,0,678,61952,1196349
4,18,female,Belgian,2,97,ITC,neutral,5,left,8,ITC_collect,246,k,0,0,678,61703,1196598
4,18,female,Belgian,2,97,ITC,neutral,5,left,8,ITC_outcome,0,undefined,0,0,698,60683,1197618
4,18,female,Belgian,2,98,guess,loss,5,right,13,guess_start,403,space,0,0,698,60279,1198022
4,18,female,Belgian,2,98,guess,loss,5,right,13,guess_choice,656,f,0,0,698,59621,1198680
4,18,female,Belgian,2,98,guess,loss,5,right,13,guess_outcome,0,undefined,0,0,683,58052,1200249
4,18,female,Belgian,2,98,ITC,loss,5,right,13,ITC_start,365,space,0,0,683,57685,1200616
4,18,female,Belgian,2,98,ITC,loss,5,right,13,ITC_choice,558,j,0,0,683,57126,1201175
4,18,female,Belgian,2,98,ITC,loss,5,right,13,ITC_wait,0,undefined,0,0,683,52112,1206189
4,18,female,Belgian,2,98,ITC,loss,5,right,13,ITC_collect,342,k,0,0,683,51767,1206534
4,18,female,Belgian,2,98,ITC,loss,5,right,13,ITC_outcome,0,undefined,0,0,703,50757,1207544
4,18,female,Belgian,2,99,guess,neutral,10,right,1,guess_start,580,space,0,0,703,50176,1208125
4,18,female,Belgian,2,99,guess,neutral,10,right,1,guess_choice,501,j,0,0,703,49670,1208631
4,18,female,Belgian,2,99,guess,neutral,10,right,1,guess_outcome,0,undefined,0,0,703,48102,1210199
4,18,female,Belgian,2,99,ITC,neutral,10,right,1,ITC_start,346,space,0,0,703,47754,1210547
4,18,female,Belgian,2,99,ITC,neutral,10,right,1,ITC_choice,1081,j,0,0,703,46671,1211630
4,18,female,Belgian,2,99,ITC,neutral,10,right,1,ITC_wait,0,undefined,0,0,703,36660,1221641
4,18,female,Belgian,2,99,ITC,neutral,10,right,1,ITC_collect,266,k,0,0,703,36390,1221911
4,18,female,Belgian,2,99,ITC,neutral,10,right,1,ITC_outcome,0,undefined,0,0,723,35382,1222919
4,18,female,Belgian,2,100,guess,win,10,left,7,guess_start,581,space,0,0,723,34799,1223502
4,18,female,Belgian,2,100,guess,win,10,left,7,guess_choice,729,f,0,0,723,34068,1224233
4,18,female,Belgian,2,100,guess,win,10,left,7,guess_outcome,0,undefined,0,0,743,32492,1225809
4,18,female,Belgian,2,100,ITC,win,10,left,7,ITC_start,365,space,0,0,743,32125,1226176
4,18,female,Belgian,2,100,ITC,win,10,left,7,ITC_choice,605,j,0,0,743,31518,1226783
4,18,female,Belgian,2,100,ITC,win,10,left,7,ITC_wait,0,undefined,0,0,743,31511,1226790
4,18,female,Belgian,2,100,ITC,win,10,left,7,ITC_collect,281,k,0,0,743,31228,1227073
4,18,female,Belgian,2,100,ITC,win,10,left,7,ITC_outcome,0,undefined,0,0,750,30213,1228088
4,18,female,Belgian,2,101,guess,win,5,left,12,guess_start,368,space,0,0,750,29842,1228459
4,18,female,Belgian,2,101,guess,win,5,left,12,guess_choice,551,j,0,0,750,29286,1229015
4,18,female,Belgian,2,101,guess,win,5,left,12,guess_outcome,0,undefined,0,0,770,27733,1230568
4,18,female,Belgian,2,101,ITC,win,5,left,12,ITC_start,404,space,0,0,770,27328,1230973
4,18,female,Belgian,2,101,ITC,win,5,left,12,ITC_choice,995,j,0,0,770,26330,1231971
4,18,female,Belgian,2,101,ITC,win,5,left,12,ITC_wait,0,undefined,0,0,770,26326,1231975
4,18,female,Belgian,2,101,ITC,win,5,left,12,ITC_collect,306,k,0,0,770,26017,1232284
4,18,female,Belgian,2,101,ITC,win,5,left,12,ITC_outcome,0,undefined,0,0,782,25002,1233299
4,18,female,Belgian,2,102,guess,neutral,5,right,3,guess_start,313,space,0,0,782,24685,1233616
4,18,female,Belgian,2,102,guess,neutral,5,right,3,guess_choice,558,j,0,0,782,24121,1234180
4,18,female,Belgian,2,102,guess,neutral,5,right,3,guess_outcome,0,undefined,0,0,782,22552,1235749
4,18,female,Belgian,2,102,ITC,neutral,5,right,3,ITC_start,357,space,0,0,782,22193,1236108
4,18,female,Belgian,2,102,ITC,neutral,5,right,3,ITC_choice,953,j,0,0,782,21237,1237064
4,18,female,Belgian,2,102,ITC,neutral,5,right,3,ITC_wait,0,undefined,0,0,782,16223,1242078
4,18,female,Belgian,2,102,ITC,neutral,5,right,3,ITC_collect,369,k,0,0,782,15852,1242449
4,18,female,Belgian,2,102,ITC,neutral,5,right,3,ITC_outcome,0,undefined,0,0,802,14843,1243458
4,18,female,Belgian,2,103,guess,loss,5,right,12,guess_start,301,space,0,0,802,14539,1243762
4,18,female,Belgian,2,103,guess,loss,5,right,12,guess_choice,465,f,0,0,802,14067,1244234
4,18,female,Belgian,2,103,guess,loss,5,right,12,guess_outcome,0,undefined,0,0,787,12507,1245794
4,18,female,Belgian,2,103,ITC,loss,5,right,12,ITC_start,369,space,0,0,787,12138,1246163
4,18,female,Belgian,2,103,ITC,loss,5,right,12,ITC_choice,588,j,0,0,787,11548,1246753
4,18,female,Belgian,2,103,ITC,loss,5,right,12,ITC_wait,0,undefined,0,0,787,6535,1251766
4,18,female,Belgian,2,103,ITC,loss,5,right,12,ITC_collect,438,k,0,0,787,6095,1252206
4,18,female,Belgian,2,103,ITC,loss,5,right,12,ITC_outcome,0,undefined,0,0,807,5075,1253226
4,18,female,Belgian,2,104,guess,loss,5,right,6,guess_start,392,space,0,0,807,4680,1253621
4,18,female,Belgian,2,104,guess,loss,5,right,6,guess_choice,415,j,0,0,807,4263,1254038
4,18,female,Belgian,2,104,guess,loss,5,right,6,guess_outcome,0,undefined,0,0,792,2695,1255606
4,18,female,Belgian,2,104,ITC,loss,5,right,6,ITC_start,395,space,0,0,792,2298,1256003
4,18,female,Belgian,2,104,ITC,loss,5,right,6,ITC_choice,714,j,0,0,792,1582,1256719
4,18,female,Belgian,2,104,ITC,loss,5,right,6,ITC_wait,0,undefined,0,0,792,-15,1258316
4,18,female,Belgian,3,105,guess,win,10,right,4,guess_start,547,space,0,0,0,479452,1278023
4,18,female,Belgian,3,105,guess,win,10,right,4,guess_choice,780,j,0,0,0,478668,1278807
4,18,female,Belgian,3,105,guess,win,10,right,4,guess_outcome,0,undefined,0,0,20,477110,1280365
4,18,female,Belgian,3,105,ITC,win,10,right,4,ITC_start,2151,space,0,0,20,474958,1282517
4,18,female,Belgian,3,105,ITC,win,10,right,4,ITC_choice,1356,j,0,0,20,473599,1283876
4,18,female,Belgian,3,105,ITC,win,10,right,4,ITC_wait,0,undefined,0,0,20,463594,1293881
4,18,female,Belgian,3,105,ITC,win,10,right,4,ITC_collect,295,k,0,0,20,463297,1294178
4,18,female,Belgian,3,105,ITC,win,10,right,4,ITC_outcome,0,undefined,0,0,40,462280,1295195
4,18,female,Belgian,3,106,guess,loss,10,right,4,guess_start,364,space,0,0,40,461913,1295562
4,18,female,Belgian,3,106,guess,loss,10,right,4,guess_choice,412,f,0,0,40,461500,1295975
4,18,female,Belgian,3,106,guess,loss,10,right,4,guess_outcome,0,undefined,0,0,25,459940,1297535
4,18,female,Belgian,3,106,ITC,loss,10,right,4,ITC_start,373,space,0,0,25,459565,1297910
4,18,female,Belgian,3,106,ITC,loss,10,right,4,ITC_choice,646,j,0,0,25,458917,1298558
4,18,female,Belgian,3,106,ITC,loss,10,right,4,ITC_wait,0,undefined,0,0,25,448908,1308567
4,18,female,Belgian,3,106,ITC,loss,10,right,4,ITC_collect,358,k,0,0,25,448547,1308928
4,18,female,Belgian,3,106,ITC,loss,10,right,4,ITC_outcome,0,undefined,0,0,45,447534,1309941
4,18,female,Belgian,3,107,guess,win,5,right,14,guess_start,711,space,0,0,45,446820,1310655
4,18,female,Belgian,3,107,guess,win,5,right,14,guess_choice,645,j,0,0,45,446172,1311303
4,18,female,Belgian,3,107,guess,win,5,right,14,guess_outcome,0,undefined,0,0,65,444604,1312871
4,18,female,Belgian,3,107,ITC,win,5,right,14,ITC_start,382,space,0,0,65,444222,1313253
4,18,female,Belgian,3,107,ITC,win,5,right,14,ITC_choice,760,j,0,0,65,443459,1314016
4,18,female,Belgian,3,107,ITC,win,5,right,14,ITC_wait,0,undefined,0,0,65,438454,1319021
4,18,female,Belgian,3,107,ITC,win,5,right,14,ITC_collect,389,k,0,0,65,438063,1319412
4,18,female,Belgian,3,107,ITC,win,5,right,14,ITC_outcome,0,undefined,0,0,85,437054,1320421
4,18,female,Belgian,3,108,guess,loss,5,left,14,guess_start,502,space,0,0,85,436549,1320926
4,18,female,Belgian,3,108,guess,loss,5,left,14,guess_choice,412,f,0,0,85,436136,1321339
4,18,female,Belgian,3,108,guess,loss,5,left,14,guess_outcome,0,undefined,0,0,70,434578,1322897
4,18,female,Belgian,3,108,ITC,loss,5,left,14,ITC_start,337,space,0,0,70,434239,1323236
4,18,female,Belgian,3,108,ITC,loss,5,left,14,ITC_choice,661,j,0,0,70,433577,1323898
4,18,female,Belgian,3,108,ITC,loss,5,left,14,ITC_wait,0,undefined,0,0,70,433574,1323901
4,18,female,Belgian,3,108,ITC,loss,5,left,14,ITC_collect,631,k,0,0,70,432942,1324533
4,18,female,Belgian,3,108,ITC,loss,5,left,14,ITC_outcome,0,undefined,0,0,84,431933,1325542
4,18,female,Belgian,3,109,guess,win,5,right,3,guess_start,302,space,0,0,84,431630,1325845
4,18,female,Belgian,3,109,guess,win,5,right,3,guess_choice,447,j,0,0,84,431182,1326293
4,18,female,Belgian,3,109,guess,win,5,right,3,guess_outcome,0,undefined,0,0,104,429623,1327852
4,18,female,Belgian,3,109,ITC,win,5,right,3,ITC_start,608,space,0,0,104,429014,1328461
4,18,female,Belgian,3,109,ITC,win,5,right,3,ITC_choice,1437,j,0,0,104,427577,1329898
4,18,female,Belgian,3,109,ITC,win,5,right,3,ITC_wait,0,undefined,0,0,104,422564,1334911
4,18,female,Belgian,3,109,ITC,win,5,right,3,ITC_collect,581,k,0,0,104,421981,1335494
4,18,female,Belgian,3,109,ITC,win,5,right,3,ITC_outcome,0,undefined,0,0,124,420964,1336511
4,18,female,Belgian,3,110,guess,loss,10,left,3,guess_start,422,space,0,0,124,420539,1336936
4,18,female,Belgian,3,110,guess,loss,10,left,3,guess_choice,515,f,0,0,124,420022,1337453
4,18,female,Belgian,3,110,guess,loss,10,left,3,guess_outcome,0,undefined,0,0,109,418463,1339012
4,18,female,Belgian,3,110,ITC,loss,10,left,3,ITC_start,403,space,0,0,109,418058,1339417
4,18,female,Belgian,3,110,ITC,loss,10,left,3,ITC_choice,921,f,0,0,109,417136,1340339
4,18,female,Belgian,3,110,ITC,loss,10,left,3,ITC_wait,0,undefined,0,0,109,407129,1350346
4,18,female,Belgian,3,110,ITC,loss,10,left,3,ITC_collect,351,k,0,0,109,406775,1350700
4,18,female,Belgian,3,110,ITC,loss,10,left,3,ITC_outcome,0,undefined,0,0,129,405764,1351711
4,18,female,Belgian,3,111,guess,neutral,5,left,12,guess_start,614,space,0,0,129,405145,1352330
4,18,female,Belgian,3,111,guess,neutral,5,left,12,guess_choice,649,f,0,0,129,404489,1352986
4,18,female,Belgian,3,111,guess,neutral,5,left,12,guess_outcome,0,undefined,0,0,129,402913,1354562
4,18,female,Belgian,3,111,ITC,neutral,5,left,12,ITC_start,467,space,0,0,129,402444,1355031
4,18,female,Belgian,3,111,ITC,neutral,5,left,12,ITC_choice,685,j,0,0,129,401756,1355719
4,18,female,Belgian,3,111,ITC,neutral,5,left,12,ITC_wait,0,undefined,0,0,129,401750,1355725
4,18,female,Belgian,3,111,ITC,neutral,5,left,12,ITC_collect,204,k,0,0,129,401544,1355931
4,18,female,Belgian,3,111,ITC,neutral,5,left,12,ITC_outcome,0,undefined,0,0,141,400534,1356941
4,18,female,Belgian,3,112,guess,neutral,5,left,15,guess_start,336,space,0,0,141,400195,1357280
4,18,female,Belgian,3,112,guess,neutral,5,left,15,guess_choice,520,j,0,0,141,399674,1357801
4,18,female,Belgian,3,112,guess,neutral,5,left,15,guess_outcome,0,undefined,0,0,141,398103,1359372
4,18,female,Belgian,3,112,ITC,neutral,5,left,15,ITC_start,573,space,0,0,141,397528,1359947
4,18,female,Belgian,3,112,ITC,neutral,5,left,15,ITC_wait,0,undefined,0,0,141,396959,1360516
4,18,female,Belgian,3,112,ITC,neutral,5,left,15,ITC_choice,561,j,0,0,141,396963,1360512
4,18,female,Belgian,3,112,ITC,neutral,5,left,15,ITC_collect,193,k,0,0,141,396765,1360710
4,18,female,Belgian,3,112,ITC,neutral,5,left,15,ITC_outcome,0,undefined,0,0,156,395744,1361731
4,18,female,Belgian,3,113,guess,loss,5,right,8,guess_start,317,space,0,0,156,395422,1362053
4,18,female,Belgian,3,113,guess,loss,5,right,8,guess_choice,470,f,0,0,156,394949,1362526
4,18,female,Belgian,3,113,guess,loss,5,right,8,guess_outcome,0,undefined,0,0,141,393383,1364092
4,18,female,Belgian,3,113,ITC,loss,5,right,8,ITC_start,652,space,0,0,141,392729,1364746
4,18,female,Belgian,3,113,ITC,loss,5,right,8,ITC_choice,596,j,0,0,141,392132,1365343
4,18,female,Belgian,3,113,ITC,loss,5,right,8,ITC_wait,0,undefined,0,0,141,387114,1370361
4,18,female,Belgian,3,113,ITC,loss,5,right,8,ITC_collect,515,k,0,0,141,386595,1370880
4,18,female,Belgian,3,113,ITC,loss,5,right,8,ITC_outcome,0,undefined,0,0,161,385584,1371891
4,18,female,Belgian,3,114,guess,neutral,10,left,6,guess_start,319,space,0,0,161,385262,1372213
4,18,female,Belgian,3,114,guess,neutral,10,left,6,guess_choice,532,f,0,0,161,384728,1372747
4,18,female,Belgian,3,114,guess,neutral,10,left,6,guess_outcome,0,undefined,0,0,161,383155,1374320
4,18,female,Belgian,3,114,ITC,neutral,10,left,6,ITC_start,411,space,0,0,161,382742,1374733
4,18,female,Belgian,3,114,ITC,neutral,10,left,6,ITC_choice,1240,f,0,0,161,381500,1375975
4,18,female,Belgian,3,114,ITC,neutral,10,left,6,ITC_wait,0,undefined,0,0,161,371485,1385990
4,18,female,Belgian,3,114,ITC,neutral,10,left,6,ITC_collect,341,k,0,0,161,371141,1386334
4,18,female,Belgian,3,114,ITC,neutral,10,left,6,ITC_outcome,0,undefined,0,0,181,370116,1387359
4,18,female,Belgian,3,115,guess,neutral,5,left,1,guess_start,1326,space,0,0,181,368785,1388690
4,18,female,Belgian,3,115,guess,neutral,5,left,1,guess_choice,923,j,0,0,181,367858,1389617
4,18,female,Belgian,3,115,guess,neutral,5,left,1,guess_outcome,0,undefined,0,0,181,366296,1391179
4,18,female,Belgian,3,115,ITC,neutral,5,left,1,ITC_start,827,space,0,0,181,365467,1392008
4,18,female,Belgian,3,115,ITC,neutral,5,left,1,ITC_choice,848,f,0,0,181,364616,1392859
4,18,female,Belgian,3,115,ITC,neutral,5,left,1,ITC_wait,0,undefined,0,0,181,359597,1397878
4,18,female,Belgian,3,115,ITC,neutral,5,left,1,ITC_collect,248,k,0,0,181,359348,1398127
4,18,female,Belgian,3,115,ITC,neutral,5,left,1,ITC_outcome,0,undefined,0,0,201,358336,1399139
4,18,female,Belgian,3,116,guess,loss,5,left,9,guess_start,986,space,0,0,201,357347,1400128
4,18,female,Belgian,3,116,guess,loss,5,left,9,guess_choice,711,f,0,0,201,356632,1400843
4,18,female,Belgian,3,116,guess,loss,5,left,9,guess_outcome,0,undefined,0,0,186,355066,1402409
4,18,female,Belgian,3,116,ITC,loss,5,left,9,ITC_start,370,space,0,0,186,354694,1402781
4,18,female,Belgian,3,116,ITC,loss,5,left,9,ITC_choice,1177,f,0,0,186,353516,1403959
4,18,female,Belgian,3,116,ITC,loss,5,left,9,ITC_wait,0,undefined,0,0,186,348507,1408968
4,18,female,Belgian,3,116,ITC,loss,5,left,9,ITC_collect,356,k,0,0,186,348149,1409326
4,18,female,Belgian,3,116,ITC,loss,5,left,9,ITC_outcome,0,undefined,0,0,206,347136,1410339
4,18,female,Belgian,3,117,guess,neutral,5,left,14,guess_start,383,space,0,0,206,346750,1410725
4,18,female,Belgian,3,117,guess,neutral,5,left,14,guess_choice,575,j,0,0,206,346169,1411306
4,18,female,Belgian,3,117,guess,neutral,5,left,14,guess_outcome,0,undefined,0,0,206,344596,1412879
4,18,female,Belgian,3,117,ITC,neutral,5,left,14,ITC_start,487,space,0,0,206,344108,1413367
4,18,female,Belgian,3,117,ITC,neutral,5,left,14,ITC_choice,661,j,0,0,206,343446,1414029
4,18,female,Belgian,3,117,ITC,neutral,5,left,14,ITC_wait,0,undefined,0,0,206,343441,1414034
4,18,female,Belgian,3,117,ITC,neutral,5,left,14,ITC_collect,304,k,0,0,206,343134,1414341
4,18,female,Belgian,3,117,ITC,neutral,5,left,14,ITC_outcome,0,undefined,0,0,220,342117,1415358
4,18,female,Belgian,3,118,guess,neutral,5,right,6,guess_start,311,space,0,0,220,341803,1415672
4,18,female,Belgian,3,118,guess,neutral,5,right,6,guess_choice,497,f,0,0,220,341304,1416171
4,18,female,Belgian,3,118,guess,neutral,5,right,6,guess_outcome,0,undefined,0,0,220,339737,1417738
4,18,female,Belgian,3,118,ITC,neutral,5,right,6,ITC_start,638,space,0,0,220,339097,1418378
4,18,female,Belgian,3,118,ITC,neutral,5,right,6,ITC_choice,632,j,0,0,220,338463,1419012
4,18,female,Belgian,3,118,ITC,neutral,5,right,6,ITC_wait,0,undefined,0,0,220,333451,1424024
4,18,female,Belgian,3,118,ITC,neutral,5,right,6,ITC_collect,264,k,0,0,220,333184,1424291
4,18,female,Belgian,3,118,ITC,neutral,5,right,6,ITC_outcome,0,undefined,0,0,240,332167,1425308
4,18,female,Belgian,3,119,guess,loss,10,left,7,guess_start,408,space,0,0,240,331758,1425717
4,18,female,Belgian,3,119,guess,loss,10,left,7,guess_choice,464,f,0,0,240,331292,1426183
4,18,female,Belgian,3,119,guess,loss,10,left,7,guess_outcome,0,undefined,0,0,225,329737,1427738
4,18,female,Belgian,3,119,ITC,loss,10,left,7,ITC_start,515,space,0,0,225,329219,1428256
4,18,female,Belgian,3,119,ITC,loss,10,left,7,ITC_choice,1989,f,0,0,225,327229,1430246
4,18,female,Belgian,3,119,ITC,loss,10,left,7,ITC_wait,0,undefined,0,0,225,317221,1440254
4,18,female,Belgian,3,119,ITC,loss,10,left,7,ITC_collect,1158,k,0,0,225,316062,1441413
4,18,female,Belgian,3,119,ITC,loss,10,left,7,ITC_outcome,0,undefined,0,0,245,315055,1442420
4,18,female,Belgian,3,120,guess,loss,5,left,15,guess_start,515,space,0,0,245,314537,1442938
4,18,female,Belgian,3,120,guess,loss,5,left,15,guess_choice,561,j,0,0,245,313971,1443504
4,18,female,Belgian,3,120,guess,loss,5,left,15,guess_outcome,0,undefined,0,0,230,312405,1445070
4,18,female,Belgian,3,120,ITC,loss,5,left,15,ITC_start,1174,space,0,0,230,311228,1446247
4,18,female,Belgian,3,120,ITC,loss,5,left,15,ITC_choice,706,j,0,0,230,310519,1446956
4,18,female,Belgian,3,120,ITC,loss,5,left,15,ITC_wait,0,undefined,0,0,230,310515,1446960
4,18,female,Belgian,3,120,ITC,loss,5,left,15,ITC_collect,201,k,0,0,230,310312,1447163
4,18,female,Belgian,3,120,ITC,loss,5,left,15,ITC_outcome,0,undefined,0,0,245,309305,1448170
4,18,female,Belgian,3,121,guess,win,10,right,8,guess_start,364,space,0,0,245,308938,1448537
4,18,female,Belgian,3,121,guess,win,10,right,8,guess_choice,445,f,0,0,245,308491,1448984
4,18,female,Belgian,3,121,guess,win,10,right,8,guess_outcome,0,undefined,0,0,265,306935,1450540
4,18,female,Belgian,3,121,ITC,win,10,right,8,ITC_start,375,space,0,0,265,306558,1450917
4,18,female,Belgian,3,121,ITC,win,10,right,8,ITC_choice,1013,j,0,0,265,305545,1451930
4,18,female,Belgian,3,121,ITC,win,10,right,8,ITC_wait,0,undefined,0,0,265,295541,1461934
4,18,female,Belgian,3,121,ITC,win,10,right,8,ITC_collect,302,k,0,0,265,295236,1462239
4,18,female,Belgian,3,121,ITC,win,10,right,8,ITC_outcome,0,undefined,0,0,285,294223,1463252
4,18,female,Belgian,3,122,guess,loss,10,right,2,guess_start,434,space,0,0,285,293787,1463688
4,18,female,Belgian,3,122,guess,loss,10,right,2,guess_choice,898,f,0,0,285,292883,1464592
4,18,female,Belgian,3,122,guess,loss,10,right,2,guess_outcome,0,undefined,0,0,270,291312,1466163
4,18,female,Belgian,3,122,ITC,loss,10,right,2,ITC_start,475,space,0,0,270,290834,1466641
4,18,female,Belgian,3,122,ITC,loss,10,right,2,ITC_choice,1157,j,0,0,270,289676,1467799
4,18,female,Belgian,3,122,ITC,loss,10,right,2,ITC_outcome,0,undefined,0,0,290,277696,1479779
4,18,female,Belgian,3,123,guess,win,5,left,7,guess_start,468,space,0,0,290,277224,1480251
4,18,female,Belgian,3,122,ITC,loss,10,right,2,ITC_collect,953,k,0,0,270,278711,1478764
4,18,female,Belgian,3,122,ITC,loss,10,right,2,ITC_wait,0,undefined,0,0,270,279665,1477810
4,18,female,Belgian,3,123,guess,win,5,left,7,guess_outcome,0,undefined,0,0,310,274906,1482569
4,18,female,Belgian,3,123,guess,win,5,left,7,guess_choice,736,j,0,0,290,276482,1480993
4,18,female,Belgian,3,123,ITC,win,5,left,7,ITC_choice,679,j,0,0,310,273680,1483795
4,18,female,Belgian,3,123,ITC,win,5,left,7,ITC_wait,0,undefined,0,0,310,273675,1483800
4,18,female,Belgian,3,123,ITC,win,5,left,7,ITC_start,542,space,0,0,310,274362,1483113
4,18,female,Belgian,3,123,ITC,win,5,left,7,ITC_collect,242,k,0,0,310,273431,1484044
4,18,female,Belgian,3,123,ITC,win,5,left,7,ITC_outcome,0,undefined,0,0,317,272426,1485049
4,18,female,Belgian,3,124,guess,loss,10,left,5,guess_start,345,space,0,0,317,272077,1485398
4,18,female,Belgian,3,124,guess,loss,10,left,5,guess_choice,379,j,0,0,317,271692,1485783
4,18,female,Belgian,3,124,guess,loss,10,left,5,guess_outcome,0,undefined,0,0,302,270126,1487349
4,18,female,Belgian,3,124,ITC,loss,10,left,5,ITC_start,446,space,0,0,302,269679,1487796
4,18,female,Belgian,3,124,ITC,loss,10,left,5,ITC_choice,842,f,0,0,302,268834,1488641
4,18,female,Belgian,3,124,ITC,loss,10,left,5,ITC_wait,0,undefined,0,0,302,258819,1498656
4,18,female,Belgian,3,124,ITC,loss,10,left,5,ITC_collect,388,k,0,0,302,258429,1499046
4,18,female,Belgian,3,124,ITC,loss,10,left,5,ITC_outcome,0,undefined,0,0,322,257406,1500069
4,18,female,Belgian,3,125,guess,win,5,right,2,guess_start,849,space,0,0,322,256556,1500919
4,18,female,Belgian,3,125,guess,win,5,right,2,guess_choice,488,f,0,0,322,256067,1501408
4,18,female,Belgian,3,125,guess,win,5,right,2,guess_outcome,0,undefined,0,0,342,254498,1502977
4,18,female,Belgian,3,125,ITC,win,5,right,2,ITC_start,665,space,0,0,342,253832,1503643
4,18,female,Belgian,3,125,ITC,win,5,right,2,ITC_choice,1001,j,0,0,342,252830,1504645
4,18,female,Belgian,3,125,ITC,win,5,right,2,ITC_wait,0,undefined,0,0,342,247808,1509667
4,18,female,Belgian,3,125,ITC,win,5,right,2,ITC_collect,742,k,0,0,342,247064,1510411
4,18,female,Belgian,3,125,ITC,win,5,right,2,ITC_outcome,0,undefined,0,0,362,246047,1511428
4,18,female,Belgian,3,126,guess,win,5,left,16,guess_start,560,space,0,0,362,245484,1511991
4,18,female,Belgian,3,126,guess,win,5,left,16,guess_choice,539,f,0,0,362,244940,1512535
4,18,female,Belgian,3,126,guess,win,5,left,16,guess_outcome,0,undefined,0,0,382,243368,1514107
4,18,female,Belgian,3,126,ITC,win,5,left,16,ITC_start,441,space,0,0,382,242925,1514550
4,18,female,Belgian,3,126,ITC,win,5,left,16,ITC_choice,497,j,0,0,382,242427,1515048
4,18,female,Belgian,3,126,ITC,win,5,left,16,ITC_wait,0,undefined,0,0,382,242422,1515053
4,18,female,Belgian,3,126,ITC,win,5,left,16,ITC_collect,284,k,0,0,382,242137,1515338
4,18,female,Belgian,3,126,ITC,win,5,left,16,ITC_outcome,0,undefined,0,0,398,241127,1516348
4,18,female,Belgian,3,127,guess,loss,5,left,10,guess_start,352,space,0,0,398,240771,1516704
4,18,female,Belgian,3,127,guess,loss,5,left,10,guess_choice,497,j,0,0,398,240269,1517206
4,18,female,Belgian,3,127,guess,loss,5,left,10,guess_outcome,0,undefined,0,0,383,238708,1518767
4,18,female,Belgian,3,127,ITC,loss,5,left,10,ITC_start,603,space,0,0,383,238103,1519372
4,18,female,Belgian,3,127,ITC,loss,5,left,10,ITC_choice,600,j,0,0,383,237502,1519973
4,18,female,Belgian,3,127,ITC,loss,5,left,10,ITC_wait,0,undefined,0,0,383,237495,1519980
4,18,female,Belgian,3,127,ITC,loss,5,left,10,ITC_collect,189,k,0,0,383,237302,1520173
4,18,female,Belgian,3,127,ITC,loss,5,left,10,ITC_outcome,0,undefined,0,0,393,236288,1521187
4,18,female,Belgian,3,128,guess,win,5,right,13,guess_start,375,space,0,0,393,235910,1521565
4,18,female,Belgian,3,128,guess,win,5,right,13,guess_choice,506,j,0,0,393,235402,1522073
4,18,female,Belgian,3,128,guess,win,5,right,13,guess_outcome,0,undefined,0,0,413,233838,1523637
4,18,female,Belgian,3,128,ITC,win,5,right,13,ITC_start,703,space,0,0,413,233133,1524342
4,18,female,Belgian,3,128,ITC,win,5,right,13,ITC_choice,1141,f,0,0,413,231991,1525484
4,18,female,Belgian,3,128,ITC,win,5,right,13,ITC_wait,0,undefined,0,0,413,231986,1525489
4,18,female,Belgian,3,128,ITC,win,5,right,13,ITC_collect,233,k,0,0,413,231751,1525724
4,18,female,Belgian,3,128,ITC,win,5,right,13,ITC_outcome,0,undefined,0,0,426,230728,1526747
4,18,female,Belgian,3,129,guess,loss,5,left,11,guess_start,358,space,0,0,426,230366,1527109
4,18,female,Belgian,3,129,guess,loss,5,left,11,guess_choice,430,f,0,0,426,229930,1527545
4,18,female,Belgian,3,129,guess,loss,5,left,11,guess_outcome,0,undefined,0,0,411,228368,1529107
4,18,female,Belgian,3,129,ITC,loss,5,left,11,ITC_start,556,space,0,0,411,227809,1529666
4,18,female,Belgian,3,129,ITC,loss,5,left,11,ITC_choice,580,j,0,0,411,227228,1530247
4,18,female,Belgian,3,129,ITC,loss,5,left,11,ITC_wait,0,undefined,0,0,411,227223,1530252
4,18,female,Belgian,3,129,ITC,loss,5,left,11,ITC_collect,208,k,0,0,411,227012,1530463
4,18,female,Belgian,3,129,ITC,loss,5,left,11,ITC_outcome,0,undefined,0,0,422,225998,1531477
4,18,female,Belgian,3,130,guess,loss,5,right,16,guess_start,328,space,0,0,422,225667,1531808
4,18,female,Belgian,3,130,guess,loss,5,right,16,guess_choice,524,j,0,0,422,225138,1532337
4,18,female,Belgian,3,130,guess,loss,5,right,16,guess_outcome,0,undefined,0,0,407,223568,1533907
4,18,female,Belgian,3,130,ITC,loss,5,right,16,ITC_start,351,space,0,0,407,223214,1534261
4,18,female,Belgian,3,130,ITC,loss,5,right,16,ITC_choice,809,f,0,0,407,222404,1535071
4,18,female,Belgian,3,130,ITC,loss,5,right,16,ITC_wait,0,undefined,0,0,407,222400,1535075
4,18,female,Belgian,3,130,ITC,loss,5,right,16,ITC_collect,353,k,0,0,407,222046,1535429
4,18,female,Belgian,3,130,ITC,loss,5,right,16,ITC_outcome,0,undefined,0,0,423,221028,1536447
4,18,female,Belgian,3,131,guess,neutral,5,right,5,guess_start,303,space,0,0,423,220722,1536753
4,18,female,Belgian,3,131,guess,neutral,5,right,5,guess_choice,392,f,0,0,423,220324,1537151
4,18,female,Belgian,3,131,guess,neutral,5,right,5,guess_outcome,0,undefined,0,0,423,218768,1538707
4,18,female,Belgian,3,131,ITC,neutral,5,right,5,ITC_start,373,space,0,0,423,218393,1539082
4,18,female,Belgian,3,131,ITC,neutral,5,right,5,ITC_choice,1045,j,0,0,423,217345,1540130
4,18,female,Belgian,3,131,ITC,neutral,5,right,5,ITC_wait,0,undefined,0,0,423,212338,1545137
4,18,female,Belgian,3,131,ITC,neutral,5,right,5,ITC_collect,296,k,0,0,423,212039,1545436
4,18,female,Belgian,3,131,ITC,neutral,5,right,5,ITC_outcome,0,undefined,0,0,443,211018,1546457
4,18,female,Belgian,3,132,guess,win,10,right,3,guess_start,566,space,0,0,443,210448,1547027
4,18,female,Belgian,3,132,guess,win,10,right,3,guess_choice,450,j,0,0,443,209993,1547482
4,18,female,Belgian,3,132,guess,win,10,right,3,guess_outcome,0,undefined,0,0,463,208428,1549047
4,18,female,Belgian,3,132,ITC,win,10,right,3,ITC_start,705,space,0,0,463,207720,1549755
4,18,female,Belgian,3,132,ITC,win,10,right,3,ITC_choice,758,j,0,0,463,206960,1550515
4,18,female,Belgian,3,132,ITC,win,10,right,3,ITC_wait,0,undefined,0,0,463,196943,1560532
4,18,female,Belgian,3,132,ITC,win,10,right,3,ITC_collect,537,k,0,0,463,196414,1561061
4,18,female,Belgian,3,132,ITC,win,10,right,3,ITC_outcome,0,undefined,0,0,483,195404,1562071
4,18,female,Belgian,3,133,guess,win,5,right,4,guess_start,566,space,0,0,483,194835,1562640
4,18,female,Belgian,3,133,guess,win,5,right,4,guess_choice,449,j,0,0,483,194382,1563093
4,18,female,Belgian,3,133,guess,win,5,right,4,guess_outcome,0,undefined,0,0,503,192825,1564650
4,18,female,Belgian,3,133,ITC,win,5,right,4,ITC_start,572,space,0,0,503,192252,1565223
4,18,female,Belgian,3,133,ITC,win,5,right,4,ITC_choice,1059,f,0,0,503,191190,1566285
4,18,female,Belgian,3,133,ITC,win,5,right,4,ITC_wait,0,undefined,0,0,503,191186,1566289
4,18,female,Belgian,3,133,ITC,win,5,right,4,ITC_collect,271,k,0,0,503,190913,1566562
4,18,female,Belgian,3,133,ITC,win,5,right,4,ITC_outcome,0,undefined,0,0,507,189894,1567581
4,18,female,Belgian,3,134,guess,neutral,10,right,4,guess_start,383,space,0,0,507,189509,1567966
4,18,female,Belgian,3,134,guess,neutral,10,right,4,guess_choice,383,j,0,0,507,189120,1568355
4,18,female,Belgian,3,134,guess,neutral,10,right,4,guess_outcome,0,undefined,0,0,507,187554,1569921
4,18,female,Belgian,3,134,ITC,neutral,10,right,4,ITC_start,396,space,0,0,507,187156,1570319
4,18,female,Belgian,3,134,ITC,neutral,10,right,4,ITC_choice,622,j,0,0,507,186531,1570944
4,18,female,Belgian,3,134,ITC,neutral,10,right,4,ITC_wait,0,undefined,0,0,507,176516,1580959
4,18,female,Belgian,3,134,ITC,neutral,10,right,4,ITC_collect,1466,k,0,0,507,175046,1582429
4,18,female,Belgian,3,134,ITC,neutral,10,right,4,ITC_outcome,0,undefined,0,0,527,174028,1583447
4,18,female,Belgian,3,135,guess,neutral,5,left,10,guess_start,532,space,0,0,527,173493,1583982
4,18,female,Belgian,3,135,guess,neutral,5,left,10,guess_choice,736,j,0,0,527,172750,1584725
4,18,female,Belgian,3,135,guess,neutral,5,left,10,guess_outcome,0,undefined,0,0,527,171178,1586297
4,18,female,Belgian,3,135,ITC,neutral,5,left,10,ITC_start,425,space,0,0,527,170751,1586724
4,18,female,Belgian,3,135,ITC,neutral,5,left,10,ITC_choice,974,j,0,0,527,169774,1587701
4,18,female,Belgian,3,135,ITC,neutral,5,left,10,ITC_wait,0,undefined,0,0,527,169770,1587705
4,18,female,Belgian,3,135,ITC,neutral,5,left,10,ITC_collect,299,k,0,0,527,169470,1588005
4,18,female,Belgian,3,135,ITC,neutral,5,left,10,ITC_outcome,0,undefined,0,0,537,168458,1589017
4,18,female,Belgian,3,136,guess,neutral,5,left,2,guess_start,272,space,0,0,537,168183,1589292
4,18,female,Belgian,3,136,guess,neutral,5,left,2,guess_choice,1090,f,0,0,537,167091,1590384
4,18,female,Belgian,3,136,guess,neutral,5,left,2,guess_outcome,0,undefined,0,0,537,165529,1591946
4,18,female,Belgian,3,136,ITC,neutral,5,left,2,ITC_start,396,space,0,0,537,165130,1592345
4,18,female,Belgian,3,136,ITC,neutral,5,left,2,ITC_choice,841,f,0,0,537,164288,1593187
4,18,female,Belgian,3,136,ITC,neutral,5,left,2,ITC_wait,0,undefined,0,0,537,159279,1598196
4,18,female,Belgian,3,136,ITC,neutral,5,left,2,ITC_collect,338,k,0,0,537,158938,1598537
4,18,female,Belgian,3,136,ITC,neutral,5,left,2,ITC_outcome,0,undefined,0,0,557,157918,1599557
4,18,female,Belgian,3,137,guess,win,10,right,5,guess_start,307,space,0,0,557,157607,1599868
4,18,female,Belgian,3,137,guess,win,10,right,5,guess_choice,820,f,0,0,557,156782,1600693
4,18,female,Belgian,3,137,guess,win,10,right,5,guess_outcome,0,undefined,0,0,577,155208,1602267
4,18,female,Belgian,3,137,ITC,win,10,right,5,ITC_start,485,space,0,0,577,154721,1602754
4,18,female,Belgian,3,137,ITC,win,10,right,5,ITC_choice,1301,f,0,0,577,153416,1604059
4,18,female,Belgian,3,137,ITC,win,10,right,5,ITC_wait,0,undefined,0,0,577,153413,1604062
4,18,female,Belgian,3,137,ITC,win,10,right,5,ITC_collect,255,k,0,0,577,153158,1604317
4,18,female,Belgian,3,137,ITC,win,10,right,5,ITC_outcome,0,undefined,0,0,582,152148,1605327
4,18,female,Belgian,3,138,guess,neutral,5,left,9,guess_start,347,space,0,0,582,151798,1605677
4,18,female,Belgian,3,138,guess,neutral,5,left,9,guess_choice,575,f,0,0,582,151221,1606254
4,18,female,Belgian,3,138,guess,neutral,5,left,9,guess_outcome,0,undefined,0,0,582,149668,1607807
4,18,female,Belgian,3,138,ITC,neutral,5,left,9,ITC_start,901,space,0,0,582,148764,1608711
4,18,female,Belgian,3,138,ITC,neutral,5,left,9,ITC_choice,584,j,0,0,582,148178,1609297
4,18,female,Belgian,3,138,ITC,neutral,5,left,9,ITC_wait,0,undefined,0,0,582,148173,1609302
4,18,female,Belgian,3,138,ITC,neutral,5,left,9,ITC_collect,298,k,0,0,582,147873,1609602
4,18,female,Belgian,3,138,ITC,neutral,5,left,9,ITC_outcome,0,undefined,0,0,591,146858,1610617
4,18,female,Belgian,3,139,guess,win,5,left,8,guess_start,359,space,0,0,591,146497,1610978
4,18,female,Belgian,3,139,guess,win,5,left,8,guess_choice,414,j,0,0,591,146078,1611397
4,18,female,Belgian,3,139,guess,win,5,left,8,guess_outcome,0,undefined,0,0,611,144518,1612957
4,18,female,Belgian,3,139,ITC,win,5,left,8,ITC_start,576,space,0,0,611,143939,1613536
4,18,female,Belgian,3,139,ITC,win,5,left,8,ITC_choice,694,j,0,0,611,143243,1614232
4,18,female,Belgian,3,139,ITC,win,5,left,8,ITC_wait,0,undefined,0,0,611,143240,1614235
4,18,female,Belgian,3,139,ITC,win,5,left,8,ITC_collect,248,k,0,0,611,142991,1614484
4,18,female,Belgian,3,139,ITC,win,5,left,8,ITC_outcome,0,undefined,0,0,619,141978,1615497
4,18,female,Belgian,3,140,guess,win,10,right,6,guess_start,341,space,0,0,619,141634,1615841
4,18,female,Belgian,3,140,guess,win,10,right,6,guess_choice,459,f,0,0,619,141173,1616302
4,18,female,Belgian,3,140,guess,win,10,right,6,guess_outcome,0,undefined,0,0,639,139608,1617867
4,18,female,Belgian,3,140,ITC,win,10,right,6,ITC_start,80,space,0,0,639,139525,1617950
4,18,female,Belgian,3,140,ITC,win,10,right,6,ITC_choice,1288,f,0,0,639,138234,1619241
4,18,female,Belgian,3,140,ITC,win,10,right,6,ITC_wait,0,undefined,0,0,639,138228,1619247
4,18,female,Belgian,3,140,ITC,win,10,right,6,ITC_collect,388,k,0,0,639,137839,1619636
4,18,female,Belgian,3,140,ITC,win,10,right,6,ITC_outcome,0,undefined,0,0,645,136829,1620646
4,18,female,Belgian,3,141,guess,loss,5,left,7,guess_start,333,space,0,0,645,136495,1620980
4,18,female,Belgian,3,141,guess,loss,5,left,7,guess_choice,326,j,0,0,645,136150,1621325
4,18,female,Belgian,3,141,guess,loss,5,left,7,guess_outcome,0,undefined,0,0,630,134585,1622890
4,18,female,Belgian,3,141,ITC,loss,5,left,7,ITC_start,602,space,0,0,630,133980,1623495
4,18,female,Belgian,3,141,ITC,loss,5,left,7,ITC_choice,980,f,0,0,630,132998,1624477
4,18,female,Belgian,3,141,ITC,loss,5,left,7,ITC_wait,0,undefined,0,0,630,127995,1629480
4,18,female,Belgian,3,141,ITC,loss,5,left,7,ITC_collect,514,k,0,0,630,127479,1629996
4,18,female,Belgian,3,141,ITC,loss,5,left,7,ITC_outcome,0,undefined,0,0,650,126475,1631000
4,18,female,Belgian,3,142,guess,win,5,right,10,guess_start,307,space,0,0,650,126165,1631310
4,18,female,Belgian,3,142,guess,win,5,right,10,guess_choice,494,f,0,0,650,125665,1631810
