subjectID,age,gender,nationality,block_number,trial_number,trial_type,guess_outcome,delay_time,delay_pos,immediate_amount,stage,respRT,respKey,blur_count,focus_count,total_points,remaining_duration,time_elapsed
51,18,female,Belg,1,1,guess,win,10,left,5,guess_start,19576,space,0,0,0,460422,532150
51,18,female,Belg,1,1,guess,win,10,left,5,guess_choice,1567,f,0,0,0,458847,533725
51,18,female,Belg,1,1,guess,win,10,left,5,guess_outcome,0,undefined,0,0,20,457287,535285
51,18,female,Belg,1,1,ITC,win,10,left,5,ITC_start,4001,space,0,0,20,453283,539289
51,18,female,Belg,1,1,ITC,win,10,left,5,ITC_choice,2516,f,0,0,20,450763,541809
51,18,female,Belg,1,1,ITC,win,10,left,5,ITC_wait,0,undefined,0,0,20,440757,551815
51,18,female,Belg,1,1,ITC,win,10,left,5,ITC_collect,3282,k,0,0,20,437470,555102
51,18,female,Belg,1,1,ITC,win,10,left,5,ITC_outcome,0,undefined,0,0,40,436464,556108
51,18,female,Belg,1,2,guess,neutral,5,right,15,guess_start,1881,space,0,0,40,434578,557994
51,18,female,Belg,1,2,guess,neutral,5,right,15,guess_choice,1253,j,0,0,40,433318,559254
51,18,female,Belg,1,2,guess,neutral,5,right,15,guess_outcome,0,undefined,0,0,40,431761,560811
51,18,female,Belg,1,2,ITC,neutral,5,right,15,ITC_start,4442,space,0,0,40,427317,565255
51,18,female,Belg,1,2,ITC,neutral,5,right,15,ITC_choice,3640,j,0,0,40,423674,568898
51,18,female,Belg,1,2,ITC,neutral,5,right,15,ITC_wait,0,undefined,0,0,40,418670,573902
51,18,female,Belg,1,2,ITC,neutral,5,right,15,ITC_collect,1578,k,0,0,40,417089,575483
51,18,female,Belg,1,2,ITC,neutral,5,right,15,ITC_outcome,0,undefined,0,0,60,416082,576490
51,18,female,Belg,1,3,guess,win,5,left,9,guess_start,1633,space,0,0,60,414447,578125
51,18,female,Belg,1,3,guess,win,5,left,9,guess_choice,1598,j,0,0,60,412844,579728
51,18,female,Belg,1,3,guess,win,5,left,9,guess_outcome,0,undefined,0,0,80,411286,581286
51,18,female,Belg,1,3,ITC,win,5,left,9,ITC_start,3254,space,0,0,80,408029,584543
51,18,female,Belg,1,3,ITC,win,5,left,9,ITC_choice,1960,f,0,0,80,406066,586506
51,18,female,Belg,1,3,ITC,win,5,left,9,ITC_wait,0,undefined,0,0,80,401063,591509
51,18,female,Belg,1,3,ITC,win,5,left,9,ITC_collect,1584,k,0,0,80,399477,593095
51,18,female,Belg,1,3,ITC,win,5,left,9,ITC_outcome,0,undefined,0,0,100,398469,594103
51,18,female,Belg,1,4,guess,win,5,left,5,guess_start,1762,space,0,0,100,396704,595868
51,18,female,Belg,1,4,guess,win,5,left,5,guess_choice,1932,j,0,0,100,394768,597804
51,18,female,Belg,1,4,guess,win,5,left,5,guess_outcome,0,undefined,0,0,120,393211,599361
51,18,female,Belg,1,4,ITC,win,5,left,5,ITC_start,2669,space,0,0,120,390540,602032
51,18,female,Belg,1,4,ITC,win,5,left,5,ITC_choice,1751,f,0,0,120,388785,603787
51,18,female,Belg,1,4,ITC,win,5,left,5,ITC_wait,0,undefined,0,0,120,383782,608790
51,18,female,Belg,1,4,ITC,win,5,left,5,ITC_collect,1895,k,0,0,120,381884,610688
51,18,female,Belg,1,4,ITC,win,5,left,5,ITC_outcome,0,undefined,0,0,140,380880,611692
51,18,female,Belg,1,5,guess,win,5,right,13,guess_start,1048,space,0,0,140,379829,612743
51,18,female,Belg,1,5,guess,win,5,right,13,guess_choice,1661,f,0,0,140,378165,614407
51,18,female,Belg,1,5,guess,win,5,right,13,guess_outcome,0,undefined,0,0,160,376611,615961
51,18,female,Belg,1,5,ITC,win,5,right,13,ITC_start,1983,space,0,0,160,374625,617947
51,18,female,Belg,1,5,ITC,win,5,right,13,ITC_choice,1032,j,0,0,160,373591,618981
51,18,female,Belg,1,5,ITC,win,5,right,13,ITC_wait,0,undefined,0,0,160,368587,623985
51,18,female,Belg,1,5,ITC,win,5,right,13,ITC_collect,2255,k,0,0,160,366329,626243
51,18,female,Belg,1,5,ITC,win,5,right,13,ITC_outcome,0,undefined,0,0,180,365323,627249
51,18,female,Belg,1,6,guess,neutral,5,right,2,guess_start,1119,space,0,0,180,364200,628372
51,18,female,Belg,1,6,guess,neutral,5,right,2,guess_choice,971,f,0,0,180,363224,629348
51,18,female,Belg,1,6,guess,neutral,5,right,2,guess_outcome,0,undefined,0,0,180,361666,630906
51,18,female,Belg,1,6,ITC,neutral,5,right,2,ITC_start,1064,space,0,0,180,360599,631973
51,18,female,Belg,1,6,ITC,neutral,5,right,2,ITC_choice,926,j,0,0,180,359670,632902
51,18,female,Belg,1,6,ITC,neutral,5,right,2,ITC_wait,0,undefined,0,0,180,354665,637907
51,18,female,Belg,1,6,ITC,neutral,5,right,2,ITC_collect,708,k,0,0,180,353954,638618
51,18,female,Belg,1,6,ITC,neutral,5,right,2,ITC_outcome,0,undefined,0,0,200,352945,639627
51,18,female,Belg,1,7,guess,win,10,left,3,guess_start,967,space,0,0,200,351975,640597
51,18,female,Belg,1,7,guess,win,10,left,3,guess_choice,1466,j,0,0,200,350505,642067
51,18,female,Belg,1,7,guess,win,10,left,3,guess_outcome,0,undefined,0,0,220,348947,643625
51,18,female,Belg,1,7,ITC,win,10,left,3,ITC_start,2894,space,0,0,220,346051,646521
51,18,female,Belg,1,7,ITC,win,10,left,3,ITC_choice,807,f,0,0,220,345241,647331
51,18,female,Belg,1,7,ITC,win,10,left,3,ITC_wait,0,undefined,0,0,220,335236,657336
51,18,female,Belg,1,7,ITC,win,10,left,3,ITC_collect,462,k,0,0,220,334770,657802
51,18,female,Belg,1,7,ITC,win,10,left,3,ITC_outcome,0,undefined,0,0,240,333766,658806
51,18,female,Belg,1,8,guess,loss,10,left,3,guess_start,1332,space,0,0,240,332431,660141
51,18,female,Belg,1,8,guess,loss,10,left,3,guess_choice,1166,j,0,0,240,331260,661312
51,18,female,Belg,1,8,guess,loss,10,left,3,guess_outcome,0,undefined,0,0,225,329706,662866
51,18,female,Belg,1,8,ITC,loss,10,left,3,ITC_start,1982,space,0,0,225,327721,664851
51,18,female,Belg,1,8,ITC,loss,10,left,3,ITC_choice,1196,j,0,0,225,326522,666050
51,18,female,Belg,1,8,ITC,loss,10,left,3,ITC_wait,0,undefined,0,0,225,326517,666055
51,18,female,Belg,1,8,ITC,loss,10,left,3,ITC_collect,2470,k,0,0,225,324045,668527
51,18,female,Belg,1,8,ITC,loss,10,left,3,ITC_outcome,0,undefined,0,0,228,323039,669533
51,18,female,Belg,1,9,guess,loss,5,right,2,guess_start,670,space,0,0,228,322366,670206
51,18,female,Belg,1,9,guess,loss,5,right,2,guess_choice,985,j,0,0,228,321377,671195
51,18,female,Belg,1,9,guess,loss,5,right,2,guess_outcome,0,undefined,0,0,213,319819,672753
51,18,female,Belg,1,9,ITC,loss,5,right,2,ITC_start,1425,space,0,0,213,318391,674181
51,18,female,Belg,1,9,ITC,loss,5,right,2,ITC_choice,2772,j,0,0,213,315616,676956
51,18,female,Belg,1,9,ITC,loss,5,right,2,ITC_wait,0,undefined,0,0,213,310610,681962
51,18,female,Belg,1,9,ITC,loss,5,right,2,ITC_collect,387,k,0,0,213,310220,682352
51,18,female,Belg,1,9,ITC,loss,5,right,2,ITC_outcome,0,undefined,0,0,233,309214,683358
51,18,female,Belg,1,10,guess,loss,5,left,14,guess_start,778,space,0,0,233,308433,684139
51,18,female,Belg,1,10,guess,loss,5,left,14,guess_choice,1227,j,0,0,233,307201,685371
51,18,female,Belg,1,10,guess,loss,5,left,14,guess_outcome,0,undefined,0,0,218,305644,686928
51,18,female,Belg,1,10,ITC,loss,5,left,14,ITC_start,2668,space,0,0,218,302973,689599
51,18,female,Belg,1,10,ITC,loss,5,left,14,ITC_choice,928,f,0,0,218,302041,690531
51,18,female,Belg,1,10,ITC,loss,5,left,14,ITC_wait,0,undefined,0,0,218,297035,695537
51,18,female,Belg,1,10,ITC,loss,5,left,14,ITC_collect,1592,k,0,0,218,295439,697133
51,18,female,Belg,1,10,ITC,loss,5,left,14,ITC_outcome,0,undefined,0,0,238,294436,698136
51,18,female,Belg,1,11,guess,loss,5,left,12,guess_start,1122,space,0,0,238,293311,699261
51,18,female,Belg,1,11,guess,loss,5,left,12,guess_choice,1240,j,0,0,238,292066,700506
51,18,female,Belg,1,11,guess,loss,5,left,12,guess_outcome,0,undefined,0,0,223,290509,702063
51,18,female,Belg,1,11,ITC,loss,5,left,12,ITC_start,2504,space,0,0,223,288002,704570
51,18,female,Belg,1,11,ITC,loss,5,left,12,ITC_choice,1108,f,0,0,223,286891,705681
51,18,female,Belg,1,11,ITC,loss,5,left,12,ITC_wait,0,undefined,0,0,223,281884,710688
51,18,female,Belg,1,11,ITC,loss,5,left,12,ITC_collect,4589,k,0,0,223,277292,715280
51,18,female,Belg,1,11,ITC,loss,5,left,12,ITC_outcome,0,undefined,0,0,243,276285,716287
51,18,female,Belg,1,12,guess,neutral,5,right,16,guess_start,804,space,0,0,243,275477,717095
51,18,female,Belg,1,12,guess,neutral,5,right,16,guess_choice,852,j,0,0,243,274621,717951
51,18,female,Belg,1,12,guess,neutral,5,right,16,guess_outcome,0,undefined,0,0,243,273062,719510
51,18,female,Belg,1,12,ITC,neutral,5,right,16,ITC_start,1526,space,0,0,243,271533,721039
51,18,female,Belg,1,12,ITC,neutral,5,right,16,ITC_choice,1077,j,0,0,243,270452,722120
51,18,female,Belg,1,12,ITC,neutral,5,right,16,ITC_wait,0,undefined,0,0,243,265445,727127
51,18,female,Belg,1,12,ITC,neutral,5,right,16,ITC_collect,1215,k,0,0,243,264226,728346
51,18,female,Belg,1,12,ITC,neutral,5,right,16,ITC_outcome,0,undefined,0,0,263,263220,729352
51,18,female,Belg,1,13,guess,neutral,5,right,4,guess_start,2303,space,0,0,263,260913,731659
51,18,female,Belg,1,13,guess,neutral,5,right,4,guess_choice,957,f,0,0,263,259951,732621
51,18,female,Belg,1,13,guess,neutral,5,right,4,guess_outcome,0,undefined,0,0,263,258393,734179
51,18,female,Belg,1,13,ITC,neutral,5,right,4,ITC_start,748,space,0,0,263,257642,734930
51,18,female,Belg,1,13,ITC,neutral,5,right,4,ITC_choice,793,j,0,0,263,256846,735726
51,18,female,Belg,1,13,ITC,neutral,5,right,4,ITC_wait,0,undefined,0,0,263,251839,740733
51,18,female,Belg,1,13,ITC,neutral,5,right,4,ITC_collect,372,k,0,0,263,251463,741109
51,18,female,Belg,1,13,ITC,neutral,5,right,4,ITC_outcome,0,undefined,0,0,283,250460,742112
51,18,female,Belg,1,14,guess,loss,5,right,13,guess_start,719,space,0,0,283,249737,742835
51,18,female,Belg,1,14,guess,loss,5,right,13,guess_choice,1149,f,0,0,283,248583,743989
51,18,female,Belg,1,14,guess,loss,5,right,13,guess_outcome,0,undefined,0,0,268,247027,745545
51,18,female,Belg,1,14,ITC,loss,5,right,13,ITC_start,1216,space,0,0,268,245808,746764
51,18,female,Belg,1,14,ITC,loss,5,right,13,ITC_choice,1992,j,0,0,268,243813,748759
51,18,female,Belg,1,14,ITC,loss,5,right,13,ITC_wait,0,undefined,0,0,268,238808,753764
51,18,female,Belg,1,14,ITC,loss,5,right,13,ITC_collect,1698,k,0,0,268,237107,755465
51,18,female,Belg,1,14,ITC,loss,5,right,13,ITC_outcome,0,undefined,0,0,288,236100,756472
51,18,female,Belg,1,15,guess,loss,5,left,16,guess_start,624,space,0,0,288,235474,757098
51,18,female,Belg,1,15,guess,loss,5,left,16,guess_choice,1870,f,0,0,288,233598,758974
51,18,female,Belg,1,15,guess,loss,5,left,16,guess_outcome,0,undefined,0,0,273,232042,760530
51,18,female,Belg,1,15,ITC,loss,5,left,16,ITC_start,3751,space,0,0,273,228288,764284
51,18,female,Belg,1,15,ITC,loss,5,left,16,ITC_choice,881,f,0,0,273,227404,765168
51,18,female,Belg,1,15,ITC,loss,5,left,16,ITC_wait,0,undefined,0,0,273,222399,770173
51,18,female,Belg,1,15,ITC,loss,5,left,16,ITC_collect,2030,k,0,0,273,220366,772206
51,18,female,Belg,1,15,ITC,loss,5,left,16,ITC_outcome,0,undefined,0,0,293,219360,773212
51,18,female,Belg,1,16,guess,loss,5,right,7,guess_start,775,space,0,0,293,218582,773990
51,18,female,Belg,1,16,guess,loss,5,right,7,guess_choice,1089,j,0,0,293,217488,775084
51,18,female,Belg,1,16,guess,loss,5,right,7,guess_outcome,0,undefined,0,0,278,215932,776640
51,18,female,Belg,1,16,ITC,loss,5,right,7,ITC_start,1500,space,0,0,278,214429,778143
51,18,female,Belg,1,16,ITC,loss,5,right,7,ITC_choice,1467,j,0,0,278,212959,779613
51,18,female,Belg,1,16,ITC,loss,5,right,7,ITC_wait,0,undefined,0,0,278,207951,784621
51,18,female,Belg,1,16,ITC,loss,5,right,7,ITC_collect,615,k,0,0,278,207333,785239
51,18,female,Belg,1,16,ITC,loss,5,right,7,ITC_outcome,0,undefined,0,0,298,206327,786245
51,18,female,Belg,1,17,guess,neutral,5,right,10,guess_start,686,space,0,0,298,205638,786934
51,18,female,Belg,1,17,guess,neutral,5,right,10,guess_choice,789,f,0,0,298,204844,787728
51,18,female,Belg,1,17,guess,neutral,5,right,10,guess_outcome,0,undefined,0,0,298,203285,789287
51,18,female,Belg,1,17,ITC,neutral,5,right,10,ITC_start,1212,space,0,0,298,202071,790501
51,18,female,Belg,1,17,ITC,neutral,5,right,10,ITC_choice,1155,j,0,0,298,200914,791658
51,18,female,Belg,1,17,ITC,neutral,5,right,10,ITC_wait,0,undefined,0,0,298,195910,796662
51,18,female,Belg,1,17,ITC,neutral,5,right,10,ITC_collect,633,k,0,0,298,195273,797299
51,18,female,Belg,1,17,ITC,neutral,5,right,10,ITC_outcome,0,undefined,0,0,318,194268,798304
51,18,female,Belg,1,18,guess,win,10,left,2,guess_start,611,space,0,0,318,193655,798917
51,18,female,Belg,1,18,guess,win,10,left,2,guess_choice,1946,j,0,0,318,191704,800868
51,18,female,Belg,1,18,guess,win,10,left,2,guess_outcome,0,undefined,0,0,338,190145,802427
51,18,female,Belg,1,18,ITC,win,10,left,2,ITC_start,1078,space,0,0,338,189064,803508
51,18,female,Belg,1,18,ITC,win,10,left,2,ITC_choice,1827,f,0,0,338,187234,805338
51,18,female,Belg,1,18,ITC,win,10,left,2,ITC_wait,0,undefined,0,0,338,177229,815343
51,18,female,Belg,1,18,ITC,win,10,left,2,ITC_collect,1392,k,0,0,338,175834,816738
51,18,female,Belg,1,18,ITC,win,10,left,2,ITC_outcome,0,undefined,0,0,358,174827,817745
51,18,female,Belg,1,19,guess,win,10,left,8,guess_start,1209,space,0,0,358,173615,818957
51,18,female,Belg,1,19,guess,win,10,left,8,guess_choice,1272,j,0,0,358,172339,820233
51,18,female,Belg,1,19,guess,win,10,left,8,guess_outcome,0,undefined,0,0,378,170785,821787
51,18,female,Belg,1,19,ITC,win,10,left,8,ITC_start,2238,space,0,0,378,168544,824028
51,18,female,Belg,1,19,ITC,win,10,left,8,ITC_choice,1737,f,0,0,378,166805,825767
51,18,female,Belg,1,19,ITC,win,10,left,8,ITC_wait,0,undefined,0,0,378,156801,835771
51,18,female,Belg,1,19,ITC,win,10,left,8,ITC_collect,1333,k,0,0,378,155464,837108
51,18,female,Belg,1,19,ITC,win,10,left,8,ITC_outcome,0,undefined,0,0,398,154457,838115
51,18,female,Belg,1,20,guess,loss,10,right,5,guess_start,804,space,0,0,398,153650,838922
51,18,female,Belg,1,20,guess,loss,10,right,5,guess_choice,1195,f,0,0,398,152450,840122
51,18,female,Belg,1,20,guess,loss,10,right,5,guess_outcome,0,undefined,0,0,383,150893,841679
51,18,female,Belg,1,20,ITC,loss,10,right,5,ITC_start,753,space,0,0,383,150138,842434
51,18,female,Belg,1,20,ITC,loss,10,right,5,ITC_choice,1406,f,0,0,383,148730,843842
51,18,female,Belg,1,20,ITC,loss,10,right,5,ITC_wait,0,undefined,0,0,383,148726,843846
51,18,female,Belg,1,20,ITC,loss,10,right,5,ITC_collect,1900,k,0,0,383,146824,845748
51,18,female,Belg,1,20,ITC,loss,10,right,5,ITC_outcome,0,undefined,0,0,388,145820,846752
51,18,female,Belg,1,21,guess,win,5,left,1,guess_start,582,space,0,0,388,145234,847338
51,18,female,Belg,1,21,guess,win,5,left,1,guess_choice,940,f,0,0,388,144290,848282
51,18,female,Belg,1,21,guess,win,5,left,1,guess_outcome,0,undefined,0,0,408,142732,849840
51,18,female,Belg,1,21,ITC,win,5,left,1,ITC_start,1109,space,0,0,408,141620,850952
51,18,female,Belg,1,21,ITC,win,5,left,1,ITC_choice,1063,f,0,0,408,140554,852018
51,18,female,Belg,1,21,ITC,win,5,left,1,ITC_wait,0,undefined,0,0,408,135548,857024
51,18,female,Belg,1,21,ITC,win,5,left,1,ITC_collect,1005,k,0,0,408,134541,858031
51,18,female,Belg,1,21,ITC,win,5,left,1,ITC_outcome,0,undefined,0,0,428,133536,859036
51,18,female,Belg,1,22,guess,loss,5,right,6,guess_start,583,space,0,0,428,132950,859622
51,18,female,Belg,1,22,guess,loss,5,right,6,guess_choice,1107,f,0,0,428,131840,860732
51,18,female,Belg,1,22,guess,loss,5,right,6,guess_outcome,0,undefined,0,0,413,130284,862288
51,18,female,Belg,1,22,ITC,loss,5,right,6,ITC_start,556,space,0,0,413,129727,862845
51,18,female,Belg,1,22,ITC,loss,5,right,6,ITC_choice,1017,j,0,0,413,128708,863864
51,18,female,Belg,1,22,ITC,loss,5,right,6,ITC_wait,0,undefined,0,0,413,123704,868868
51,18,female,Belg,1,22,ITC,loss,5,right,6,ITC_collect,471,k,0,0,413,123230,869342
51,18,female,Belg,1,22,ITC,loss,5,right,6,ITC_outcome,0,undefined,0,0,433,122226,870346
51,18,female,Belg,1,23,guess,loss,10,right,2,guess_start,761,space,0,0,433,121461,871111
51,18,female,Belg,1,23,guess,loss,10,right,2,guess_choice,1200,j,0,0,433,120257,872315
51,18,female,Belg,1,23,guess,loss,10,right,2,guess_outcome,0,undefined,0,0,418,118701,873871
51,18,female,Belg,1,23,ITC,loss,10,right,2,ITC_start,717,space,0,0,418,117983,874589
51,18,female,Belg,1,23,ITC,loss,10,right,2,ITC_choice,1005,f,0,0,418,116976,875596
51,18,female,Belg,1,23,ITC,loss,10,right,2,ITC_wait,0,undefined,0,0,418,116972,875600
51,18,female,Belg,1,23,ITC,loss,10,right,2,ITC_collect,1148,k,0,0,418,115823,876749
51,18,female,Belg,1,23,ITC,loss,10,right,2,ITC_outcome,0,undefined,0,0,420,114819,877753
51,18,female,Belg,1,24,guess,win,10,left,6,guess_start,569,space,0,0,420,114247,878325
51,18,female,Belg,1,24,guess,win,10,left,6,guess_choice,972,f,0,0,420,113270,879302
51,18,female,Belg,1,24,guess,win,10,left,6,guess_outcome,0,undefined,0,0,440,111714,880858
51,18,female,Belg,1,24,ITC,win,10,left,6,ITC_start,660,space,0,0,440,111051,881521
51,18,female,Belg,1,24,ITC,win,10,left,6,ITC_choice,1062,j,0,0,440,109985,882587
51,18,female,Belg,1,24,ITC,win,10,left,6,ITC_wait,0,undefined,0,0,440,109981,882591
51,18,female,Belg,1,24,ITC,win,10,left,6,ITC_collect,1269,k,0,0,440,108711,883861
51,18,female,Belg,1,24,ITC,win,10,left,6,ITC_outcome,0,undefined,0,0,446,107707,884865
51,18,female,Belg,1,25,guess,loss,5,right,3,guess_start,1078,space,0,0,446,106626,885946
51,18,female,Belg,1,25,guess,loss,5,right,3,guess_choice,1211,j,0,0,446,105411,887161
51,18,female,Belg,1,25,guess,loss,5,right,3,guess_outcome,0,undefined,0,0,431,103854,888718
51,18,female,Belg,1,25,ITC,loss,5,right,3,ITC_start,764,space,0,0,431,103087,889485
51,18,female,Belg,1,25,ITC,loss,5,right,3,ITC_choice,1963,j,0,0,431,101122,891450
51,18,female,Belg,1,25,ITC,loss,5,right,3,ITC_wait,0,undefined,0,0,431,96115,896457
51,18,female,Belg,1,25,ITC,loss,5,right,3,ITC_collect,1562,k,0,0,431,94550,898022
51,18,female,Belg,1,25,ITC,loss,5,right,3,ITC_outcome,0,undefined,0,0,451,93542,899030
51,18,female,Belg,1,26,guess,win,5,left,11,guess_start,650,space,0,0,451,92887,899685
51,18,female,Belg,1,26,guess,win,5,left,11,guess_choice,1091,j,0,0,451,91791,900781
51,18,female,Belg,1,26,guess,win,5,left,11,guess_outcome,0,undefined,0,0,471,90233,902339
51,18,female,Belg,1,26,ITC,win,5,left,11,ITC_start,3268,space,0,0,471,86962,905610
51,18,female,Belg,1,26,ITC,win,5,left,11,ITC_choice,1152,f,0,0,471,85807,906765
51,18,female,Belg,1,26,ITC,win,5,left,11,ITC_wait,0,undefined,0,0,471,80804,911768
51,18,female,Belg,1,26,ITC,win,5,left,11,ITC_collect,645,k,0,0,471,80156,912416
51,18,female,Belg,1,26,ITC,win,5,left,11,ITC_outcome,0,undefined,0,0,491,79150,913422
51,18,female,Belg,1,27,guess,loss,5,left,5,guess_start,629,space,0,0,491,78517,914055
51,18,female,Belg,1,27,guess,loss,5,left,5,guess_choice,1091,f,0,0,491,77422,915150
51,18,female,Belg,1,27,guess,loss,5,left,5,guess_outcome,0,undefined,0,0,476,75864,916708
51,18,female,Belg,1,27,ITC,loss,5,left,5,ITC_start,1364,space,0,0,476,74497,918075
51,18,female,Belg,1,27,ITC,loss,5,left,5,ITC_choice,1032,f,0,0,476,73463,919109
51,18,female,Belg,1,27,ITC,loss,5,left,5,ITC_wait,0,undefined,0,0,476,68459,924113
51,18,female,Belg,1,27,ITC,loss,5,left,5,ITC_collect,785,k,0,0,476,67671,924901
51,18,female,Belg,1,27,ITC,loss,5,left,5,ITC_outcome,0,undefined,0,0,496,66665,925907
51,18,female,Belg,1,28,guess,loss,10,right,7,guess_start,699,space,0,0,496,65963,926609
51,18,female,Belg,1,28,guess,loss,10,right,7,guess_choice,807,f,0,0,496,65151,927421
51,18,female,Belg,1,28,guess,loss,10,right,7,guess_outcome,0,undefined,0,0,481,63597,928975
51,18,female,Belg,1,28,ITC,loss,10,right,7,ITC_start,1128,space,0,0,481,62466,930106
51,18,female,Belg,1,28,ITC,loss,10,right,7,ITC_choice,1169,f,0,0,481,61296,931276
51,18,female,Belg,1,28,ITC,loss,10,right,7,ITC_wait,0,undefined,0,0,481,61292,931280
51,18,female,Belg,1,28,ITC,loss,10,right,7,ITC_collect,1129,k,0,0,481,60161,932411
51,18,female,Belg,1,28,ITC,loss,10,right,7,ITC_outcome,0,undefined,0,0,488,59157,933415
51,18,female,Belg,1,29,guess,neutral,10,left,4,guess_start,721,space,0,0,488,58432,934140
51,18,female,Belg,1,29,guess,neutral,10,left,4,guess_choice,806,f,0,0,488,57622,934950
51,18,female,Belg,1,29,guess,neutral,10,left,4,guess_outcome,0,undefined,0,0,488,56064,936508
51,18,female,Belg,1,29,ITC,neutral,10,left,4,ITC_start,659,space,0,0,488,55402,937170
51,18,female,Belg,1,29,ITC,neutral,10,left,4,ITC_choice,942,j,0,0,488,54457,938115
51,18,female,Belg,1,29,ITC,neutral,10,left,4,ITC_wait,0,undefined,0,0,488,54453,938119
51,18,female,Belg,1,29,ITC,neutral,10,left,4,ITC_collect,1000,k,0,0,488,53452,939120
51,18,female,Belg,1,29,ITC,neutral,10,left,4,ITC_outcome,0,undefined,0,0,492,52444,940128
51,18,female,Belg,1,30,guess,neutral,5,right,9,guess_start,715,space,0,0,492,51726,940846
51,18,female,Belg,1,30,guess,neutral,5,right,9,guess_choice,668,f,0,0,492,51053,941519
51,18,female,Belg,1,30,guess,neutral,5,right,9,guess_outcome,0,undefined,0,0,492,49495,943077
51,18,female,Belg,1,30,ITC,neutral,5,right,9,ITC_start,768,space,0,0,492,48724,943848
51,18,female,Belg,1,30,ITC,neutral,5,right,9,ITC_choice,971,j,0,0,492,47750,944822
51,18,female,Belg,1,30,ITC,neutral,5,right,9,ITC_wait,0,undefined,0,0,492,42747,949825
51,18,female,Belg,1,30,ITC,neutral,5,right,9,ITC_collect,391,k,0,0,492,42353,950219
51,18,female,Belg,1,30,ITC,neutral,5,right,9,ITC_outcome,0,undefined,0,0,512,41348,951224
51,18,female,Belg,1,31,guess,loss,10,left,4,guess_start,793,space,0,0,512,40552,952020
51,18,female,Belg,1,31,guess,loss,10,left,4,guess_choice,895,j,0,0,512,39653,952919
51,18,female,Belg,1,31,guess,loss,10,left,4,guess_outcome,0,undefined,0,0,497,38094,954478
51,18,female,Belg,1,31,ITC,loss,10,left,4,ITC_start,1064,space,0,0,497,37027,955545
51,18,female,Belg,1,31,ITC,loss,10,left,4,ITC_choice,901,j,0,0,497,36124,956448
51,18,female,Belg,1,31,ITC,loss,10,left,4,ITC_wait,0,undefined,0,0,497,36119,956453
51,18,female,Belg,1,31,ITC,loss,10,left,4,ITC_collect,845,k,0,0,497,35274,957298
51,18,female,Belg,1,31,ITC,loss,10,left,4,ITC_outcome,0,undefined,0,0,501,34269,958303
51,18,female,Belg,1,32,guess,neutral,10,right,6,guess_start,673,space,0,0,501,33592,958980
51,18,female,Belg,1,32,guess,neutral,10,right,6,guess_choice,970,j,0,0,501,32617,959955
51,18,female,Belg,1,32,guess,neutral,10,right,6,guess_outcome,0,undefined,0,0,501,31059,961513
51,18,female,Belg,1,32,ITC,neutral,10,right,6,ITC_start,802,space,0,0,501,30254,962318
51,18,female,Belg,1,32,ITC,neutral,10,right,6,ITC_wait,0,undefined,0,0,501,28771,963801
51,18,female,Belg,1,32,ITC,neutral,10,right,6,ITC_choice,1476,f,0,0,501,28775,963797
51,18,female,Belg,1,32,ITC,neutral,10,right,6,ITC_collect,877,k,0,0,501,27893,964679
51,18,female,Belg,1,32,ITC,neutral,10,right,6,ITC_outcome,0,undefined,0,0,507,26888,965684
51,18,female,Belg,1,33,guess,neutral,10,right,5,guess_start,911,space,0,0,507,25974,966598
51,18,female,Belg,1,33,guess,neutral,10,right,5,guess_choice,867,f,0,0,507,25103,967469
51,18,female,Belg,1,33,guess,neutral,10,right,5,guess_outcome,0,undefined,0,0,507,23545,969027
51,18,female,Belg,1,33,ITC,neutral,10,right,5,ITC_start,748,space,0,0,507,22793,969779
51,18,female,Belg,1,33,ITC,neutral,10,right,5,ITC_choice,1272,f,0,0,507,21518,971054
51,18,female,Belg,1,33,ITC,neutral,10,right,5,ITC_wait,0,undefined,0,0,507,21515,971057
51,18,female,Belg,1,33,ITC,neutral,10,right,5,ITC_collect,940,k,0,0,507,20574,971998
51,18,female,Belg,1,33,ITC,neutral,10,right,5,ITC_outcome,0,undefined,0,0,512,19570,973002
51,18,female,Belg,1,34,guess,neutral,5,left,14,guess_start,585,space,0,0,512,18982,973590
51,18,female,Belg,1,34,guess,neutral,5,left,14,guess_choice,669,f,0,0,512,18307,974265
51,18,female,Belg,1,34,guess,neutral,5,left,14,guess_outcome,0,undefined,0,0,512,16751,975821
51,18,female,Belg,1,34,ITC,neutral,5,left,14,ITC_start,568,space,0,0,512,16179,976393
51,18,female,Belg,1,34,ITC,neutral,5,left,14,ITC_choice,1123,f,0,0,512,15053,977519
51,18,female,Belg,1,34,ITC,neutral,5,left,14,ITC_wait,0,undefined,0,0,512,10047,982525
51,18,female,Belg,1,34,ITC,neutral,5,left,14,ITC_collect,869,k,0,0,512,9174,983398
51,18,female,Belg,1,34,ITC,neutral,5,left,14,ITC_outcome,0,undefined,0,0,532,8167,984405
51,18,female,Belg,1,35,guess,loss,5,right,10,guess_start,640,space,0,0,532,7523,985049
51,18,female,Belg,1,35,guess,loss,5,right,10,guess_choice,1060,f,0,0,532,6459,986113
51,18,female,Belg,1,35,guess,loss,5,right,10,guess_outcome,0,undefined,0,0,517,4903,987669
51,18,female,Belg,1,35,ITC,loss,5,right,10,ITC_start,738,space,0,0,517,4163,988409
51,18,female,Belg,1,35,ITC,loss,5,right,10,ITC_choice,852,j,0,0,517,3308,989264
51,18,female,Belg,1,35,ITC,loss,5,right,10,ITC_wait,0,undefined,0,0,517,-7,992579
51,18,female,Belg,2,36,guess,loss,5,right,15,guess_start,931,space,0,0,0,479067,1005867
51,18,female,Belg,2,36,guess,loss,5,right,15,guess_choice,1107,j,0,0,0,477955,1006979
51,18,female,Belg,2,36,guess,loss,5,right,15,guess_outcome,0,undefined,0,0,-15,476400,1008534
51,18,female,Belg,2,36,ITC,loss,5,right,15,ITC_start,977,space,0,0,-15,475419,1009515
51,18,female,Belg,2,36,ITC,loss,5,right,15,ITC_choice,1524,j,0,0,-15,473892,1011042
51,18,female,Belg,2,36,ITC,loss,5,right,15,ITC_wait,0,undefined,0,0,-15,468885,1016049
51,18,female,Belg,2,36,ITC,loss,5,right,15,ITC_collect,375,k,0,0,-15,468507,1016427
51,18,female,Belg,2,36,ITC,loss,5,right,15,ITC_outcome,0,undefined,0,0,5,467500,1017434
51,18,female,Belg,2,37,guess,win,5,left,4,guess_start,1015,space,0,0,5,466481,1018453
51,18,female,Belg,2,37,guess,win,5,left,4,guess_choice,850,f,0,0,5,465625,1019309
51,18,female,Belg,2,37,guess,win,5,left,4,guess_outcome,0,undefined,0,0,25,464066,1020868
51,18,female,Belg,2,37,ITC,win,5,left,4,ITC_start,1258,space,0,0,25,462805,1022129
51,18,female,Belg,2,37,ITC,win,5,left,4,ITC_choice,926,f,0,0,25,461876,1023058
51,18,female,Belg,2,37,ITC,win,5,left,4,ITC_wait,0,undefined,0,0,25,456873,1028061
51,18,female,Belg,2,37,ITC,win,5,left,4,ITC_collect,1174,k,0,0,25,455696,1029238
51,18,female,Belg,2,37,ITC,win,5,left,4,ITC_outcome,0,undefined,0,0,45,454689,1030245
51,18,female,Belg,2,38,guess,neutral,5,right,13,guess_start,716,space,0,0,45,453970,1030964
51,18,female,Belg,2,38,guess,neutral,5,right,13,guess_choice,729,f,0,0,45,453236,1031698
51,18,female,Belg,2,38,guess,neutral,5,right,13,guess_outcome,0,undefined,0,0,45,451677,1033257
51,18,female,Belg,2,38,ITC,neutral,5,right,13,ITC_start,612,space,0,0,45,451062,1033872
51,18,female,Belg,2,38,ITC,neutral,5,right,13,ITC_choice,1228,j,0,0,45,449831,1035103
51,18,female,Belg,2,38,ITC,neutral,5,right,13,ITC_wait,0,undefined,0,0,45,444826,1040108
51,18,female,Belg,2,38,ITC,neutral,5,right,13,ITC_collect,2026,k,0,0,45,442796,1042138
51,18,female,Belg,2,38,ITC,neutral,5,right,13,ITC_outcome,0,undefined,0,0,65,441791,1043143
51,18,female,Belg,2,39,guess,neutral,5,right,6,guess_start,686,space,0,0,65,441102,1043832
51,18,female,Belg,2,39,guess,neutral,5,right,6,guess_choice,850,f,0,0,65,440247,1044687
51,18,female,Belg,2,39,guess,neutral,5,right,6,guess_outcome,0,undefined,0,0,65,438689,1046245
51,18,female,Belg,2,39,ITC,neutral,5,right,6,ITC_start,1349,space,0,0,65,437337,1047597
51,18,female,Belg,2,39,ITC,neutral,5,right,6,ITC_choice,1723,j,0,0,65,435612,1049322
51,18,female,Belg,2,39,ITC,neutral,5,right,6,ITC_wait,0,undefined,0,0,65,430604,1054330
51,18,female,Belg,2,39,ITC,neutral,5,right,6,ITC_collect,1063,k,0,0,65,429537,1055397
51,18,female,Belg,2,39,ITC,neutral,5,right,6,ITC_outcome,0,undefined,0,0,85,428531,1056403
51,18,female,Belg,2,40,guess,neutral,5,right,3,guess_start,716,space,0,0,85,427812,1057122
51,18,female,Belg,2,40,guess,neutral,5,right,3,guess_choice,671,j,0,0,85,427135,1057799
51,18,female,Belg,2,40,guess,neutral,5,right,3,guess_outcome,0,undefined,0,0,85,425579,1059355
51,18,female,Belg,2,40,ITC,neutral,5,right,3,ITC_start,583,space,0,0,85,424992,1059942
51,18,female,Belg,2,40,ITC,neutral,5,right,3,ITC_choice,1017,j,0,0,85,423972,1060962
51,18,female,Belg,2,40,ITC,neutral,5,right,3,ITC_wait,0,undefined,0,0,85,418965,1065969
51,18,female,Belg,2,40,ITC,neutral,5,right,3,ITC_collect,765,k,0,0,85,418196,1066738
51,18,female,Belg,2,40,ITC,neutral,5,right,3,ITC_outcome,0,undefined,0,0,105,417189,1067745
51,18,female,Belg,2,41,guess,neutral,10,right,1,guess_start,578,space,0,0,105,416608,1068326
51,18,female,Belg,2,41,guess,neutral,10,right,1,guess_choice,627,j,0,0,105,415977,1068957
51,18,female,Belg,2,41,guess,neutral,10,right,1,guess_outcome,0,undefined,0,0,105,414422,1070512
51,18,female,Belg,2,41,ITC,neutral,10,right,1,ITC_start,661,space,0,0,105,413757,1071177
51,18,female,Belg,2,41,ITC,neutral,10,right,1,ITC_choice,1003,f,0,0,105,412751,1072183
51,18,female,Belg,2,41,ITC,neutral,10,right,1,ITC_wait,0,undefined,0,0,105,412747,1072187
51,18,female,Belg,2,41,ITC,neutral,10,right,1,ITC_collect,1118,k,0,0,105,411628,1073306
51,18,female,Belg,2,41,ITC,neutral,10,right,1,ITC_outcome,0,undefined,0,0,106,410621,1074313
51,18,female,Belg,2,42,guess,win,5,left,10,guess_start,1015,space,0,0,106,409603,1075331
51,18,female,Belg,2,42,guess,win,5,left,10,guess_choice,1421,f,0,0,106,408176,1076758
51,18,female,Belg,2,42,guess,win,5,left,10,guess_outcome,0,undefined,0,0,126,406621,1078313
51,18,female,Belg,2,42,ITC,win,5,left,10,ITC_start,720,space,0,0,126,405898,1079036
51,18,female,Belg,2,42,ITC,win,5,left,10,ITC_choice,973,f,0,0,126,404921,1080013
51,18,female,Belg,2,42,ITC,win,5,left,10,ITC_wait,0,undefined,0,0,126,399916,1085018
51,18,female,Belg,2,42,ITC,win,5,left,10,ITC_collect,1431,k,0,0,126,398482,1086452
51,18,female,Belg,2,42,ITC,win,5,left,10,ITC_outcome,0,undefined,0,0,146,397475,1087459
51,18,female,Belg,2,43,guess,win,5,left,3,guess_start,678,space,0,0,146,396793,1088141
51,18,female,Belg,2,43,guess,win,5,left,3,guess_choice,805,f,0,0,146,395983,1088951
51,18,female,Belg,2,43,guess,win,5,left,3,guess_outcome,0,undefined,0,0,166,394424,1090510
51,18,female,Belg,2,43,ITC,win,5,left,3,ITC_start,673,space,0,0,166,393748,1091186
51,18,female,Belg,2,43,ITC,win,5,left,3,ITC_choice,972,f,0,0,166,392773,1092161
51,18,female,Belg,2,43,ITC,win,5,left,3,ITC_wait,0,undefined,0,0,166,387766,1097168
51,18,female,Belg,2,43,ITC,win,5,left,3,ITC_collect,389,k,0,0,166,387374,1097560
51,18,female,Belg,2,43,ITC,win,5,left,3,ITC_outcome,0,undefined,0,0,186,386366,1098568
51,18,female,Belg,2,44,guess,win,5,left,15,guess_start,700,space,0,0,186,385662,1099272
51,18,female,Belg,2,44,guess,win,5,left,15,guess_choice,999,j,0,0,186,384658,1100276
51,18,female,Belg,2,44,guess,win,5,left,15,guess_outcome,0,undefined,0,0,206,383098,1101836
51,18,female,Belg,2,44,ITC,win,5,left,15,ITC_start,597,space,0,0,206,382498,1102436
51,18,female,Belg,2,44,ITC,win,5,left,15,ITC_choice,791,f,0,0,206,381703,1103231
51,18,female,Belg,2,44,ITC,win,5,left,15,ITC_wait,0,undefined,0,0,206,376696,1108238
51,18,female,Belg,2,44,ITC,win,5,left,15,ITC_collect,329,k,0,0,206,376363,1108571
51,18,female,Belg,2,44,ITC,win,5,left,15,ITC_outcome,0,undefined,0,0,226,375355,1109579
51,18,female,Belg,2,45,guess,win,5,right,8,guess_start,339,space,0,0,226,375012,1109922
51,18,female,Belg,2,45,guess,win,5,right,8,guess_choice,970,f,0,0,226,374037,1110897
51,18,female,Belg,2,45,guess,win,5,right,8,guess_outcome,0,undefined,0,0,246,372479,1112455
51,18,female,Belg,2,45,ITC,win,5,right,8,ITC_start,3088,space,0,0,246,369388,1115546
51,18,female,Belg,2,45,ITC,win,5,right,8,ITC_choice,955,j,0,0,246,368429,1116505
51,18,female,Belg,2,45,ITC,win,5,right,8,ITC_wait,0,undefined,0,0,246,363423,1121511
51,18,female,Belg,2,45,ITC,win,5,right,8,ITC_collect,10429,k,0,0,246,352990,1131944
51,18,female,Belg,2,45,ITC,win,5,right,8,ITC_outcome,0,undefined,0,0,266,351983,1132951
51,18,female,Belg,2,46,guess,neutral,5,right,12,guess_start,4266,space,0,0,266,347713,1137221
51,18,female,Belg,2,46,guess,neutral,5,right,12,guess_choice,1105,j,0,0,266,346603,1138331
51,18,female,Belg,2,46,guess,neutral,5,right,12,guess_outcome,0,undefined,0,0,266,345045,1139889
51,18,female,Belg,2,46,ITC,neutral,5,right,12,ITC_start,808,space,0,0,266,344234,1140700
51,18,female,Belg,2,46,ITC,neutral,5,right,12,ITC_choice,1605,j,0,0,266,342625,1142309
51,18,female,Belg,2,46,ITC,neutral,5,right,12,ITC_wait,0,undefined,0,0,266,337619,1147315
51,18,female,Belg,2,46,ITC,neutral,5,right,12,ITC_collect,1227,k,0,0,266,336389,1148545
51,18,female,Belg,2,46,ITC,neutral,5,right,12,ITC_outcome,0,undefined,0,0,286,335381,1149553
51,18,female,Belg,2,47,guess,loss,10,right,1,guess_start,787,space,0,0,286,334590,1150344
51,18,female,Belg,2,47,guess,loss,10,right,1,guess_choice,1138,j,0,0,286,333448,1151486
51,18,female,Belg,2,47,guess,loss,10,right,1,guess_outcome,0,undefined,0,0,271,331889,1153045
51,18,female,Belg,2,47,ITC,loss,10,right,1,ITC_start,1017,space,0,0,271,330869,1154065
51,18,female,Belg,2,47,ITC,loss,10,right,1,ITC_choice,1767,f,0,0,271,329099,1155835
51,18,female,Belg,2,47,ITC,loss,10,right,1,ITC_wait,0,undefined,0,0,271,329095,1155839
51,18,female,Belg,2,47,ITC,loss,10,right,1,ITC_collect,923,k,0,0,271,328170,1156764
51,18,female,Belg,2,47,ITC,loss,10,right,1,ITC_outcome,0,undefined,0,0,272,327162,1157772
51,18,female,Belg,2,48,guess,win,10,left,1,guess_start,595,space,0,0,272,326564,1158370
51,18,female,Belg,2,48,guess,win,10,left,1,guess_choice,986,f,0,0,272,325574,1159360
51,18,female,Belg,2,48,guess,win,10,left,1,guess_outcome,0,undefined,0,0,292,324016,1160918
51,18,female,Belg,2,48,ITC,win,10,left,1,ITC_start,2863,space,0,0,292,321150,1163784
51,18,female,Belg,2,48,ITC,win,10,left,1,ITC_choice,839,j,0,0,292,320308,1164626
51,18,female,Belg,2,48,ITC,win,10,left,1,ITC_wait,0,undefined,0,0,292,320305,1164629
51,18,female,Belg,2,48,ITC,win,10,left,1,ITC_collect,564,k,0,0,292,319739,1165195
51,18,female,Belg,2,48,ITC,win,10,left,1,ITC_outcome,0,undefined,0,0,293,318732,1166202
51,18,female,Belg,2,49,guess,win,5,left,2,guess_start,639,space,0,0,293,318089,1166845
51,18,female,Belg,2,49,guess,win,5,left,2,guess_choice,686,f,0,0,293,317399,1167535
51,18,female,Belg,2,49,guess,win,5,left,2,guess_outcome,0,undefined,0,0,313,315840,1169094
51,18,female,Belg,2,49,ITC,win,5,left,2,ITC_start,792,space,0,0,313,315045,1169889
51,18,female,Belg,2,49,ITC,win,5,left,2,ITC_choice,838,f,0,0,313,314205,1170729
51,18,female,Belg,2,49,ITC,win,5,left,2,ITC_wait,0,undefined,0,0,313,309197,1175737
51,18,female,Belg,2,49,ITC,win,5,left,2,ITC_collect,7440,k,0,0,313,301754,1183180
51,18,female,Belg,2,49,ITC,win,5,left,2,ITC_outcome,0,undefined,0,0,333,300750,1184184
51,18,female,Belg,2,50,guess,neutral,5,right,1,guess_start,2907,space,0,0,333,297840,1187094
51,18,female,Belg,2,50,guess,neutral,5,right,1,guess_choice,1450,f,0,0,333,296385,1188549
51,18,female,Belg,2,50,guess,neutral,5,right,1,guess_outcome,0,undefined,0,0,333,294830,1190104
51,18,female,Belg,2,50,ITC,neutral,5,right,1,ITC_start,798,space,0,0,333,294030,1190904
51,18,female,Belg,2,50,ITC,neutral,5,right,1,ITC_choice,761,j,0,0,333,293266,1191668
51,18,female,Belg,2,50,ITC,neutral,5,right,1,ITC_wait,0,undefined,0,0,333,288261,1196673
51,18,female,Belg,2,50,ITC,neutral,5,right,1,ITC_collect,603,k,0,0,333,287655,1197279
51,18,female,Belg,2,50,ITC,neutral,5,right,1,ITC_outcome,0,undefined,0,0,353,286649,1198285
51,18,female,Belg,2,51,guess,loss,5,left,8,guess_start,730,space,0,0,353,285916,1199018
51,18,female,Belg,2,51,guess,loss,5,left,8,guess_choice,1228,j,0,0,353,284684,1200250
51,18,female,Belg,2,51,guess,loss,5,left,8,guess_outcome,0,undefined,0,0,338,283125,1201809
51,18,female,Belg,2,51,ITC,loss,5,left,8,ITC_start,807,space,0,0,338,282315,1202619
51,18,female,Belg,2,51,ITC,loss,5,left,8,ITC_choice,882,f,0,0,338,281430,1203504
51,18,female,Belg,2,51,ITC,loss,5,left,8,ITC_wait,0,undefined,0,0,338,276425,1208509
51,18,female,Belg,2,51,ITC,loss,5,left,8,ITC_collect,331,k,0,0,338,276091,1208843
51,18,female,Belg,2,51,ITC,loss,5,left,8,ITC_outcome,0,undefined,0,0,358,275084,1209850
51,18,female,Belg,2,52,guess,win,5,right,14,guess_start,370,space,0,0,358,274710,1210224
51,18,female,Belg,2,52,guess,win,5,right,14,guess_choice,791,f,0,0,358,273915,1211019
51,18,female,Belg,2,52,guess,win,5,right,14,guess_outcome,0,undefined,0,0,378,272358,1212576
51,18,female,Belg,2,52,ITC,win,5,right,14,ITC_start,1380,space,0,0,378,270975,1213959
51,18,female,Belg,2,52,ITC,win,5,right,14,ITC_choice,795,j,0,0,378,270178,1214756
51,18,female,Belg,2,52,ITC,win,5,right,14,ITC_wait,0,undefined,0,0,378,265175,1219759
51,18,female,Belg,2,52,ITC,win,5,right,14,ITC_collect,2088,k,0,0,378,263084,1221850
51,18,female,Belg,2,52,ITC,win,5,right,14,ITC_outcome,0,undefined,0,0,398,262077,1222857
51,18,female,Belg,2,53,guess,neutral,5,left,11,guess_start,2529,space,0,0,398,259544,1225390
51,18,female,Belg,2,53,guess,neutral,5,left,11,guess_choice,1133,f,0,0,398,258406,1226528
51,18,female,Belg,2,53,guess,neutral,5,left,11,guess_outcome,0,undefined,0,0,398,256852,1228082
51,18,female,Belg,2,53,ITC,neutral,5,left,11,ITC_start,872,space,0,0,398,255977,1228957
51,18,female,Belg,2,53,ITC,neutral,5,left,11,ITC_choice,1108,f,0,0,398,254867,1230067
51,18,female,Belg,2,53,ITC,neutral,5,left,11,ITC_wait,0,undefined,0,0,398,249861,1235073
51,18,female,Belg,2,53,ITC,neutral,5,left,11,ITC_collect,649,k,0,0,398,249209,1235725
51,18,female,Belg,2,53,ITC,neutral,5,left,11,ITC_outcome,0,undefined,0,0,418,248201,1236733
51,18,female,Belg,2,54,guess,win,5,left,12,guess_start,577,space,0,0,418,247621,1237313
51,18,female,Belg,2,54,guess,win,5,left,12,guess_choice,1348,j,0,0,418,246269,1238665
51,18,female,Belg,2,54,guess,win,5,left,12,guess_outcome,0,undefined,0,0,438,244713,1240221
51,18,female,Belg,2,54,ITC,win,5,left,12,ITC_start,854,space,0,0,438,243856,1241078
51,18,female,Belg,2,54,ITC,win,5,left,12,ITC_choice,851,f,0,0,438,243002,1241932
51,18,female,Belg,2,54,ITC,win,5,left,12,ITC_wait,0,undefined,0,0,438,237995,1246939
51,18,female,Belg,2,54,ITC,win,5,left,12,ITC_collect,2116,k,0,0,438,235876,1249058
51,18,female,Belg,2,54,ITC,win,5,left,12,ITC_outcome,0,undefined,0,0,458,234869,1250065
51,18,female,Belg,2,55,guess,win,5,left,16,guess_start,1316,space,0,0,458,233550,1251384
51,18,female,Belg,2,55,guess,win,5,left,16,guess_choice,1004,f,0,0,458,232541,1252393
51,18,female,Belg,2,55,guess,win,5,left,16,guess_outcome,0,undefined,0,0,478,230983,1253951
51,18,female,Belg,2,55,ITC,win,5,left,16,ITC_start,924,space,0,0,478,230056,1254878
51,18,female,Belg,2,55,ITC,win,5,left,16,ITC_choice,881,f,0,0,478,229171,1255763
51,18,female,Belg,2,55,ITC,win,5,left,16,ITC_wait,0,undefined,0,0,478,224166,1260768
51,18,female,Belg,2,55,ITC,win,5,left,16,ITC_collect,452,k,0,0,478,223710,1261224
51,18,female,Belg,2,55,ITC,win,5,left,16,ITC_outcome,0,undefined,0,0,498,222703,1262231
51,18,female,Belg,2,56,guess,loss,5,right,11,guess_start,817,space,0,0,498,221882,1263052
51,18,female,Belg,2,56,guess,loss,5,right,11,guess_choice,716,f,0,0,498,221161,1263773
51,18,female,Belg,2,56,guess,loss,5,right,11,guess_outcome,0,undefined,0,0,483,219602,1265332
51,18,female,Belg,2,56,ITC,loss,5,right,11,ITC_start,688,space,0,0,483,218911,1266023
51,18,female,Belg,2,56,ITC,loss,5,right,11,ITC_choice,987,j,0,0,483,217921,1267013
51,18,female,Belg,2,56,ITC,loss,5,right,11,ITC_wait,0,undefined,0,0,483,212915,1272019
51,18,female,Belg,2,56,ITC,loss,5,right,11,ITC_collect,1291,k,0,0,483,211620,1273314
51,18,female,Belg,2,56,ITC,loss,5,right,11,ITC_outcome,0,undefined,0,0,503,210613,1274321
51,18,female,Belg,2,57,guess,neutral,10,right,8,guess_start,610,space,0,0,503,209999,1274935
51,18,female,Belg,2,57,guess,neutral,10,right,8,guess_choice,1388,j,0,0,503,208607,1276327
51,18,female,Belg,2,57,guess,neutral,10,right,8,guess_outcome,0,undefined,0,0,503,207049,1277885
51,18,female,Belg,2,57,ITC,neutral,10,right,8,ITC_start,718,space,0,0,503,206328,1278606
51,18,female,Belg,2,57,ITC,neutral,10,right,8,ITC_choice,1737,f,0,0,503,204588,1280346
51,18,female,Belg,2,57,ITC,neutral,10,right,8,ITC_wait,0,undefined,0,0,503,204584,1280350
51,18,female,Belg,2,57,ITC,neutral,10,right,8,ITC_collect,670,k,0,0,503,203913,1281021
51,18,female,Belg,2,57,ITC,neutral,10,right,8,ITC_outcome,0,undefined,0,0,511,202906,1282028
51,18,female,Belg,2,58,guess,loss,10,right,6,guess_start,655,space,0,0,511,202247,1282687
51,18,female,Belg,2,58,guess,loss,10,right,6,guess_choice,911,f,0,0,511,201332,1283602
51,18,female,Belg,2,58,guess,loss,10,right,6,guess_outcome,0,undefined,0,0,496,199775,1285159
51,18,female,Belg,2,58,ITC,loss,10,right,6,ITC_start,570,space,0,0,496,199202,1285732
51,18,female,Belg,2,58,ITC,loss,10,right,6,ITC_choice,1257,f,0,0,496,197942,1286992
51,18,female,Belg,2,58,ITC,loss,10,right,6,ITC_wait,0,undefined,0,0,496,197938,1286996
51,18,female,Belg,2,58,ITC,loss,10,right,6,ITC_collect,565,k,0,0,496,197372,1287562
51,18,female,Belg,2,58,ITC,loss,10,right,6,ITC_outcome,0,undefined,0,0,502,196367,1288567
51,18,female,Belg,2,59,guess,neutral,5,right,8,guess_start,597,space,0,0,502,195767,1289167
51,18,female,Belg,2,59,guess,neutral,5,right,8,guess_choice,1256,j,0,0,502,194507,1290427
51,18,female,Belg,2,59,guess,neutral,5,right,8,guess_outcome,0,undefined,0,0,502,192950,1291984
51,18,female,Belg,2,59,ITC,neutral,5,right,8,ITC_start,675,space,0,0,502,192272,1292662
51,18,female,Belg,2,59,ITC,neutral,5,right,8,ITC_choice,1242,j,0,0,502,191027,1293907
51,18,female,Belg,2,59,ITC,neutral,5,right,8,ITC_wait,0,undefined,0,0,502,186020,1298914
51,18,female,Belg,2,59,ITC,neutral,5,right,8,ITC_collect,914,k,0,0,502,185103,1299831
51,18,female,Belg,2,59,ITC,neutral,5,right,8,ITC_outcome,0,undefined,0,0,522,184098,1300836
51,18,female,Belg,2,60,guess,neutral,10,right,7,guess_start,731,space,0,0,522,183363,1301571
51,18,female,Belg,2,60,guess,neutral,10,right,7,guess_choice,729,f,0,0,522,182630,1302304
51,18,female,Belg,2,60,guess,neutral,10,right,7,guess_outcome,0,undefined,0,0,522,181074,1303860
51,18,female,Belg,2,60,ITC,neutral,10,right,7,ITC_start,844,space,0,0,522,180227,1304707
51,18,female,Belg,2,60,ITC,neutral,10,right,7,ITC_choice,866,f,0,0,522,179358,1305576
51,18,female,Belg,2,60,ITC,neutral,10,right,7,ITC_wait,0,undefined,0,0,522,179354,1305580
51,18,female,Belg,2,60,ITC,neutral,10,right,7,ITC_collect,431,k,0,0,522,178922,1306012
51,18,female,Belg,2,60,ITC,neutral,10,right,7,ITC_outcome,0,undefined,0,0,529,177916,1307018
51,18,female,Belg,2,61,guess,loss,10,right,8,guess_start,594,space,0,0,529,177318,1307616
51,18,female,Belg,2,61,guess,loss,10,right,8,guess_choice,793,f,0,0,529,176520,1308414
51,18,female,Belg,2,61,guess,loss,10,right,8,guess_outcome,0,undefined,0,0,514,174965,1309969
51,18,female,Belg,2,61,ITC,loss,10,right,8,ITC_start,554,space,0,0,514,174407,1310527
51,18,female,Belg,2,61,ITC,loss,10,right,8,ITC_choice,1152,f,0,0,514,173253,1311681
51,18,female,Belg,2,61,ITC,loss,10,right,8,ITC_wait,0,undefined,0,0,514,173248,1311686
51,18,female,Belg,2,61,ITC,loss,10,right,8,ITC_collect,444,k,0,0,514,172803,1312131
51,18,female,Belg,2,61,ITC,loss,10,right,8,ITC_outcome,0,undefined,0,0,522,171796,1313138
51,18,female,Belg,2,62,guess,loss,5,left,9,guess_start,595,space,0,0,522,171197,1313737
51,18,female,Belg,2,62,guess,loss,5,left,9,guess_choice,1451,j,0,0,522,169742,1315192
51,18,female,Belg,2,62,guess,loss,5,left,9,guess_outcome,0,undefined,0,0,507,168184,1316750
51,18,female,Belg,2,62,ITC,loss,5,left,9,ITC_start,763,space,0,0,507,167418,1317516
51,18,female,Belg,2,62,ITC,loss,5,left,9,ITC_choice,1167,f,0,0,507,166247,1318687
51,18,female,Belg,2,62,ITC,loss,5,left,9,ITC_wait,0,undefined,0,0,507,161241,1323693
51,18,female,Belg,2,62,ITC,loss,5,left,9,ITC_collect,1695,k,0,0,507,159542,1325392
51,18,female,Belg,2,62,ITC,loss,5,left,9,ITC_outcome,0,undefined,0,0,527,158538,1326396
51,18,female,Belg,2,63,guess,neutral,10,left,2,guess_start,640,space,0,0,527,157894,1327040
51,18,female,Belg,2,63,guess,neutral,10,left,2,guess_choice,1347,f,0,0,527,156542,1328392
51,18,female,Belg,2,63,guess,neutral,10,left,2,guess_outcome,0,undefined,0,0,527,154988,1329946
51,18,female,Belg,2,63,ITC,neutral,10,left,2,ITC_start,827,space,0,0,527,154158,1330776
51,18,female,Belg,2,63,ITC,neutral,10,left,2,ITC_choice,1212,j,0,0,527,152943,1331991
51,18,female,Belg,2,63,ITC,neutral,10,left,2,ITC_wait,0,undefined,0,0,527,152939,1331995
51,18,female,Belg,2,63,ITC,neutral,10,left,2,ITC_collect,639,k,0,0,527,152298,1332636
51,18,female,Belg,2,63,ITC,neutral,10,left,2,ITC_outcome,0,undefined,0,0,529,151291,1333643
51,18,female,Belg,2,64,guess,win,10,right,7,guess_start,775,space,0,0,529,150513,1334421
51,18,female,Belg,2,64,guess,win,10,right,7,guess_choice,718,j,0,0,529,149790,1335144
51,18,female,Belg,2,64,guess,win,10,right,7,guess_outcome,0,undefined,0,0,549,148232,1336702
51,18,female,Belg,2,64,ITC,win,10,right,7,ITC_start,2291,space,0,0,549,145938,1338996
51,18,female,Belg,2,64,ITC,win,10,right,7,ITC_choice,1633,f,0,0,549,144303,1340631
51,18,female,Belg,2,64,ITC,win,10,right,7,ITC_wait,0,undefined,0,0,549,144299,1340635
51,18,female,Belg,2,64,ITC,win,10,right,7,ITC_collect,534,k,0,0,549,143764,1341170
51,18,female,Belg,2,64,ITC,win,10,right,7,ITC_outcome,0,undefined,0,0,556,142758,1342176
51,18,female,Belg,2,65,guess,neutral,5,right,5,guess_start,685,space,0,0,556,142069,1342865
51,18,female,Belg,2,65,guess,neutral,5,right,5,guess_choice,612,j,0,0,556,141453,1343481
51,18,female,Belg,2,65,guess,neutral,5,right,5,guess_outcome,0,undefined,0,0,556,139898,1345036
51,18,female,Belg,2,65,ITC,neutral,5,right,5,ITC_start,1037,space,0,0,556,138858,1346076
51,18,female,Belg,2,65,ITC,neutral,5,right,5,ITC_choice,1422,f,0,0,556,137434,1347500
51,18,female,Belg,2,65,ITC,neutral,5,right,5,ITC_wait,0,undefined,0,0,556,137428,1347506
51,18,female,Belg,2,65,ITC,neutral,5,right,5,ITC_collect,637,k,0,0,556,136790,1348144
51,18,female,Belg,2,65,ITC,neutral,5,right,5,ITC_outcome,0,undefined,0,0,561,135785,1349149
51,18,female,Belg,2,66,guess,loss,5,right,4,guess_start,509,space,0,0,561,135272,1349662
51,18,female,Belg,2,66,guess,loss,5,right,4,guess_choice,1092,f,0,0,561,134176,1350758
51,18,female,Belg,2,66,guess,loss,5,right,4,guess_outcome,0,undefined,0,0,546,132621,1352313
51,18,female,Belg,2,66,ITC,loss,5,right,4,ITC_start,540,space,0,0,546,132078,1352856
51,18,female,Belg,2,66,ITC,loss,5,right,4,ITC_choice,1362,j,0,0,546,130713,1354221
51,18,female,Belg,2,66,ITC,loss,5,right,4,ITC_wait,0,undefined,0,0,546,125707,1359227
51,18,female,Belg,2,66,ITC,loss,5,right,4,ITC_collect,330,k,0,0,546,125373,1359561
51,18,female,Belg,2,66,ITC,loss,5,right,4,ITC_outcome,0,undefined,0,0,566,124367,1360567
51,18,female,Belg,2,67,guess,neutral,10,right,3,guess_start,836,space,0,0,566,123527,1361407
51,18,female,Belg,2,67,guess,neutral,10,right,3,guess_choice,699,f,0,0,566,122824,1362110
51,18,female,Belg,2,67,guess,neutral,10,right,3,guess_outcome,0,undefined,0,0,566,121265,1363669
51,18,female,Belg,2,67,ITC,neutral,10,right,3,ITC_start,793,space,0,0,566,120469,1364465
51,18,female,Belg,2,67,ITC,neutral,10,right,3,ITC_choice,1647,f,0,0,566,118820,1366114
51,18,female,Belg,2,67,ITC,neutral,10,right,3,ITC_wait,0,undefined,0,0,566,118816,1366118
51,18,female,Belg,2,67,ITC,neutral,10,right,3,ITC_collect,792,k,0,0,566,118023,1366911
51,18,female,Belg,2,67,ITC,neutral,10,right,3,ITC_outcome,0,undefined,0,0,569,117016,1367918
51,18,female,Belg,2,68,guess,loss,5,right,1,guess_start,473,space,0,0,569,116539,1368395
51,18,female,Belg,2,68,guess,loss,5,right,1,guess_choice,700,f,0,0,569,115833,1369101
51,18,female,Belg,2,68,guess,loss,5,right,1,guess_outcome,0,undefined,0,0,554,114275,1370659
51,18,female,Belg,2,68,ITC,loss,5,right,1,ITC_start,627,space,0,0,554,113645,1371289
51,18,female,Belg,2,68,ITC,loss,5,right,1,ITC_choice,899,j,0,0,554,112744,1372190
51,18,female,Belg,2,68,ITC,loss,5,right,1,ITC_wait,0,undefined,0,0,554,107742,1377192
51,18,female,Belg,2,68,ITC,loss,5,right,1,ITC_collect,2209,k,0,0,554,105529,1379405
51,18,female,Belg,2,68,ITC,loss,5,right,1,ITC_outcome,0,undefined,0,0,574,104524,1380410
51,18,female,Belg,2,69,guess,win,10,right,4,guess_start,537,space,0,0,574,103984,1380950
51,18,female,Belg,2,69,guess,win,10,right,4,guess_choice,820,f,0,0,574,103159,1381775
51,18,female,Belg,2,69,guess,win,10,right,4,guess_outcome,0,undefined,0,0,594,101602,1383332
51,18,female,Belg,2,69,ITC,win,10,right,4,ITC_start,1395,space,0,0,594,100204,1384730
51,18,female,Belg,2,69,ITC,win,10,right,4,ITC_wait,0,undefined,0,0,594,98492,1386442
51,18,female,Belg,2,69,ITC,win,10,right,4,ITC_choice,1705,f,0,0,594,98496,1386438
51,18,female,Belg,2,69,ITC,win,10,right,4,ITC_collect,581,k,0,0,594,97910,1387024
51,18,female,Belg,2,69,ITC,win,10,right,4,ITC_outcome,0,undefined,0,0,598,96905,1388029
51,18,female,Belg,2,70,guess,win,5,left,6,guess_start,537,space,0,0,598,96364,1388570
51,18,female,Belg,2,70,guess,win,5,left,6,guess_choice,1150,j,0,0,598,95209,1389725
51,18,female,Belg,2,70,guess,win,5,left,6,guess_outcome,0,undefined,0,0,618,93651,1391283
51,18,female,Belg,2,70,ITC,win,5,left,6,ITC_start,1021,space,0,0,618,92627,1392307
51,18,female,Belg,2,70,ITC,win,5,left,6,ITC_choice,1045,f,0,0,618,91579,1393355
51,18,female,Belg,2,70,ITC,win,5,left,6,ITC_wait,0,undefined,0,0,618,86575,1398359
51,18,female,Belg,2,70,ITC,win,5,left,6,ITC_collect,2057,k,0,0,618,84514,1400420
51,18,female,Belg,2,70,ITC,win,5,left,6,ITC_outcome,0,undefined,0,0,638,83506,1401428
51,18,female,Belg,2,71,guess,win,5,left,7,guess_start,578,space,0,0,638,82924,1402010
51,18,female,Belg,2,71,guess,win,5,left,7,guess_choice,776,j,0,0,638,82143,1402791
51,18,female,Belg,2,71,guess,win,5,left,7,guess_outcome,0,undefined,0,0,658,80586,1404348
51,18,female,Belg,2,71,ITC,win,5,left,7,ITC_start,658,space,0,0,658,79925,1405009
51,18,female,Belg,2,71,ITC,win,5,left,7,ITC_choice,1153,f,0,0,658,78769,1406165
51,18,female,Belg,2,71,ITC,win,5,left,7,ITC_wait,0,undefined,0,0,658,73766,1411168
51,18,female,Belg,2,71,ITC,win,5,left,7,ITC_collect,1133,k,0,0,658,72629,1412305
51,18,female,Belg,2,71,ITC,win,5,left,7,ITC_outcome,0,undefined,0,0,678,71622,1413312
51,18,female,Belg,2,72,guess,neutral,5,right,7,guess_start,679,space,0,0,678,70940,1413994
51,18,female,Belg,2,72,guess,neutral,5,right,7,guess_choice,881,f,0,0,678,70054,1414880
51,18,female,Belg,2,72,guess,neutral,5,right,7,guess_outcome,0,undefined,0,0,678,68495,1416439
51,18,female,Belg,2,72,ITC,neutral,5,right,7,ITC_start,702,space,0,0,678,67790,1417144
51,18,female,Belg,2,72,ITC,neutral,5,right,7,ITC_choice,988,j,0,0,678,66800,1418134
51,18,female,Belg,2,72,ITC,neutral,5,right,7,ITC_wait,0,undefined,0,0,678,61794,1423140
51,18,female,Belg,2,72,ITC,neutral,5,right,7,ITC_collect,915,k,0,0,678,60876,1424058
51,18,female,Belg,2,72,ITC,neutral,5,right,7,ITC_outcome,0,undefined,0,0,698,59869,1425065
51,18,female,Belg,2,73,guess,loss,5,left,6,guess_start,551,space,0,0,698,59315,1425619
51,18,female,Belg,2,73,guess,loss,5,left,6,guess_choice,805,f,0,0,698,58505,1426429
51,18,female,Belg,2,73,guess,loss,5,left,6,guess_outcome,0,undefined,0,0,683,56947,1427987
51,18,female,Belg,2,73,ITC,loss,5,left,6,ITC_start,569,space,0,0,683,56375,1428559
51,18,female,Belg,2,73,ITC,loss,5,left,6,ITC_choice,851,f,0,0,683,55520,1429414
51,18,female,Belg,2,73,ITC,loss,5,left,6,ITC_wait,0,undefined,0,0,683,50514,1434420
51,18,female,Belg,2,73,ITC,loss,5,left,6,ITC_collect,378,k,0,0,683,50133,1434801
51,18,female,Belg,2,73,ITC,loss,5,left,6,ITC_outcome,0,undefined,0,0,703,49129,1435805
51,18,female,Belg,2,74,guess,win,5,right,13,guess_start,564,space,0,0,703,48561,1436373
51,18,female,Belg,2,74,guess,win,5,right,13,guess_choice,715,j,0,0,703,47841,1437093
51,18,female,Belg,2,74,guess,win,5,right,13,guess_outcome,0,undefined,0,0,723,46284,1438650
51,18,female,Belg,2,74,ITC,win,5,right,13,ITC_start,512,space,0,0,723,45770,1439164
51,18,female,Belg,2,74,ITC,win,5,right,13,ITC_choice,1902,j,0,0,723,43865,1441069
51,18,female,Belg,2,74,ITC,win,5,right,13,ITC_wait,0,undefined,0,0,723,38859,1446075
51,18,female,Belg,2,74,ITC,win,5,right,13,ITC_collect,886,k,0,0,723,37971,1446963
51,18,female,Belg,2,74,ITC,win,5,right,13,ITC_outcome,0,undefined,0,0,743,36968,1447966
51,18,female,Belg,2,75,guess,neutral,10,left,6,guess_start,1335,space,0,0,743,35631,1449303
51,18,female,Belg,2,75,guess,neutral,10,left,6,guess_choice,670,f,0,0,743,34955,1449979
51,18,female,Belg,2,75,guess,neutral,10,left,6,guess_outcome,0,undefined,0,0,743,33398,1451536
51,18,female,Belg,2,75,ITC,neutral,10,left,6,ITC_start,1005,space,0,0,743,32391,1452543
51,18,female,Belg,2,75,ITC,neutral,10,left,6,ITC_choice,1437,j,0,0,743,30951,1453983
51,18,female,Belg,2,75,ITC,neutral,10,left,6,ITC_wait,0,undefined,0,0,743,30945,1453989
51,18,female,Belg,2,75,ITC,neutral,10,left,6,ITC_collect,728,k,0,0,743,30215,1454719
51,18,female,Belg,2,75,ITC,neutral,10,left,6,ITC_outcome,0,undefined,0,0,749,29209,1455725
51,18,female,Belg,2,76,guess,loss,10,right,6,guess_start,549,space,0,0,749,28657,1456277
51,18,female,Belg,2,76,guess,loss,10,right,6,guess_choice,687,j,0,0,749,27965,1456969
51,18,female,Belg,2,76,guess,loss,10,right,6,guess_outcome,0,undefined,0,0,734,26407,1458527
51,18,female,Belg,2,76,ITC,loss,10,right,6,ITC_start,418,space,0,0,734,25987,1458947
51,18,female,Belg,2,76,ITC,loss,10,right,6,ITC_choice,1618,j,0,0,734,24366,1460568
51,18,female,Belg,2,76,ITC,loss,10,right,6,ITC_wait,0,undefined,0,0,734,14362,1470572
51,18,female,Belg,2,76,ITC,loss,10,right,6,ITC_collect,1558,k,0,0,734,12801,1472133
51,18,female,Belg,2,76,ITC,loss,10,right,6,ITC_outcome,0,undefined,0,0,754,11796,1473138
51,18,female,Belg,2,77,guess,neutral,5,left,2,guess_start,609,space,0,0,754,11184,1473750
51,18,female,Belg,2,77,guess,neutral,5,left,2,guess_choice,584,f,0,0,754,10596,1474338
51,18,female,Belg,2,77,guess,neutral,5,left,2,guess_outcome,0,undefined,0,0,754,9037,1475897
51,18,female,Belg,2,77,ITC,neutral,5,left,2,ITC_start,551,space,0,0,754,8483,1476451
51,18,female,Belg,2,77,ITC,neutral,5,left,2,ITC_choice,958,f,0,0,754,7522,1477412
51,18,female,Belg,2,77,ITC,neutral,5,left,2,ITC_wait,0,undefined,0,0,754,2520,1482414
51,18,female,Belg,2,77,ITC,neutral,5,left,2,ITC_collect,741,k,0,0,754,1775,1483159
51,18,female,Belg,2,77,ITC,neutral,5,left,2,ITC_outcome,0,undefined,0,0,774,771,1484163
51,18,female,Belg,2,78,guess,neutral,5,right,5,guess_start,0,undefined,0,0,774,-5,1484939
51,18,female,Belg,3,79,guess,loss,10,left,4,guess_start,1620,space,0,0,0,478377,1501307
51,18,female,Belg,3,79,guess,loss,10,left,4,guess_choice,730,j,0,0,0,477642,1502042
51,18,female,Belg,3,79,guess,loss,10,left,4,guess_outcome,0,undefined,0,0,-15,476083,1503601
51,18,female,Belg,3,79,ITC,loss,10,left,4,ITC_start,599,space,0,0,-15,475481,1504203
51,18,female,Belg,3,79,ITC,loss,10,left,4,ITC_choice,1031,j,0,0,-15,474447,1505237
51,18,female,Belg,3,79,ITC,loss,10,left,4,ITC_wait,0,undefined,0,0,-15,474443,1505241
51,18,female,Belg,3,79,ITC,loss,10,left,4,ITC_collect,684,k,0,0,-15,473757,1505927
51,18,female,Belg,3,79,ITC,loss,10,left,4,ITC_outcome,0,undefined,0,0,-11,472751,1506933
51,18,female,Belg,3,80,guess,win,5,left,15,guess_start,2275,space,0,0,-11,470473,1509211
51,18,female,Belg,3,80,guess,win,5,left,15,guess_choice,882,j,0,0,-11,469587,1510097
51,18,female,Belg,3,80,guess,win,5,left,15,guess_outcome,0,undefined,0,0,9,468032,1511652
51,18,female,Belg,3,80,ITC,win,5,left,15,ITC_start,482,space,0,0,9,467547,1512137
51,18,female,Belg,3,80,ITC,win,5,left,15,ITC_choice,792,f,0,0,9,466752,1512932
51,18,female,Belg,3,80,ITC,win,5,left,15,ITC_wait,0,undefined,0,0,9,461746,1517938
51,18,female,Belg,3,80,ITC,win,5,left,15,ITC_collect,1351,k,0,0,9,460391,1519293
51,18,female,Belg,3,80,ITC,win,5,left,15,ITC_outcome,0,undefined,0,0,29,459384,1520300
51,18,female,Belg,3,81,guess,loss,10,left,1,guess_start,924,space,0,0,29,458456,1521228
51,18,female,Belg,3,81,guess,loss,10,left,1,guess_choice,879,f,0,0,29,457573,1522111
51,18,female,Belg,3,81,guess,loss,10,left,1,guess_outcome,0,undefined,0,0,14,456014,1523670
51,18,female,Belg,3,81,ITC,loss,10,left,1,ITC_start,493,space,0,0,14,455518,1524166
51,18,female,Belg,3,81,ITC,loss,10,left,1,ITC_choice,973,j,0,0,14,454543,1525141
51,18,female,Belg,3,81,ITC,loss,10,left,1,ITC_wait,0,undefined,0,0,14,454538,1525146
51,18,female,Belg,3,81,ITC,loss,10,left,1,ITC_collect,669,k,0,0,14,453868,1525816
51,18,female,Belg,3,81,ITC,loss,10,left,1,ITC_outcome,0,undefined,0,0,15,452861,1526823
51,18,female,Belg,3,82,guess,neutral,5,right,6,guess_start,594,space,0,0,15,452263,1527421
51,18,female,Belg,3,82,guess,neutral,5,right,6,guess_choice,686,f,0,0,15,451571,1528113
51,18,female,Belg,3,82,guess,neutral,5,right,6,guess_outcome,0,undefined,0,0,15,450012,1529672
51,18,female,Belg,3,82,ITC,neutral,5,right,6,ITC_start,731,space,0,0,15,449278,1530406
51,18,female,Belg,3,82,ITC,neutral,5,right,6,ITC_choice,943,j,0,0,15,448332,1531352
51,18,female,Belg,3,82,ITC,neutral,5,right,6,ITC_wait,0,undefined,0,0,15,443327,1536357
51,18,female,Belg,3,82,ITC,neutral,5,right,6,ITC_collect,736,k,0,0,15,442587,1537097
51,18,female,Belg,3,82,ITC,neutral,5,right,6,ITC_outcome,0,undefined,0,0,35,441584,1538100
51,18,female,Belg,3,83,guess,loss,5,left,9,guess_start,627,space,0,0,35,440953,1538731
51,18,female,Belg,3,83,guess,loss,5,left,9,guess_choice,715,f,0,0,35,440233,1539451
51,18,female,Belg,3,83,guess,loss,5,left,9,guess_outcome,0,undefined,0,0,20,438675,1541009
51,18,female,Belg,3,83,ITC,loss,5,left,9,ITC_start,438,space,0,0,20,438234,1541450
51,18,female,Belg,3,83,ITC,loss,5,left,9,ITC_choice,1043,f,0,0,20,437189,1542495
51,18,female,Belg,3,83,ITC,loss,5,left,9,ITC_wait,0,undefined,0,0,20,432182,1547502
51,18,female,Belg,3,83,ITC,loss,5,left,9,ITC_collect,2596,k,0,0,20,429583,1550101
51,18,female,Belg,3,83,ITC,loss,5,left,9,ITC_outcome,0,undefined,0,0,40,428577,1551107
51,18,female,Belg,3,84,guess,win,5,right,8,guess_start,521,space,0,0,40,428052,1551632
51,18,female,Belg,3,84,guess,win,5,right,8,guess_choice,757,j,0,0,40,427290,1552394
51,18,female,Belg,3,84,guess,win,5,right,8,guess_outcome,0,undefined,0,0,60,425732,1553952
51,18,female,Belg,3,84,ITC,win,5,right,8,ITC_start,466,space,0,0,60,425263,1554421
51,18,female,Belg,3,84,ITC,win,5,right,8,ITC_choice,1091,j,0,0,60,424168,1555516
51,18,female,Belg,3,84,ITC,win,5,right,8,ITC_wait,0,undefined,0,0,60,419163,1560521
51,18,female,Belg,3,84,ITC,win,5,right,8,ITC_collect,2387,k,0,0,60,416773,1562911
51,18,female,Belg,3,84,ITC,win,5,right,8,ITC_outcome,0,undefined,0,0,80,415766,1563918
51,18,female,Belg,3,85,guess,neutral,5,left,1,guess_start,1689,space,0,0,80,414073,1565611
51,18,female,Belg,3,85,guess,neutral,5,left,1,guess_choice,760,f,0,0,80,413309,1566375
51,18,female,Belg,3,85,guess,neutral,5,left,1,guess_outcome,0,undefined,0,0,80,411750,1567934
51,18,female,Belg,3,85,ITC,neutral,5,left,1,ITC_start,4048,space,0,0,80,407700,1571984
51,18,female,Belg,3,85,ITC,neutral,5,left,1,ITC_choice,868,f,0,0,80,406829,1572855
51,18,female,Belg,3,85,ITC,neutral,5,left,1,ITC_wait,0,undefined,0,0,80,401825,1577859
51,18,female,Belg,3,85,ITC,neutral,5,left,1,ITC_collect,1369,k,0,0,80,400453,1579231
51,18,female,Belg,3,85,ITC,neutral,5,left,1,ITC_outcome,0,undefined,0,0,100,399449,1580235
51,18,female,Belg,3,86,guess,loss,10,right,7,guess_start,761,space,0,0,100,398684,1581000
51,18,female,Belg,3,86,guess,loss,10,right,7,guess_choice,731,j,0,0,100,397949,1581735
51,18,female,Belg,3,86,guess,loss,10,right,7,guess_outcome,0,undefined,0,0,85,396390,1583294
51,18,female,Belg,3,86,ITC,loss,10,right,7,ITC_start,417,space,0,0,85,395970,1583714
51,18,female,Belg,3,86,ITC,loss,10,right,7,ITC_choice,972,f,0,0,85,394995,1584689
51,18,female,Belg,3,86,ITC,loss,10,right,7,ITC_wait,0,undefined,0,0,85,394991,1584693
51,18,female,Belg,3,86,ITC,loss,10,right,7,ITC_collect,565,k,0,0,85,394424,1585260
51,18,female,Belg,3,86,ITC,loss,10,right,7,ITC_outcome,0,undefined,0,0,92,393419,1586265
51,18,female,Belg,3,87,guess,loss,10,right,3,guess_start,671,space,0,0,92,392744,1586940
51,18,female,Belg,3,87,guess,loss,10,right,3,guess_choice,641,j,0,0,92,392098,1587586
51,18,female,Belg,3,87,guess,loss,10,right,3,guess_outcome,0,undefined,0,0,77,390542,1589142
51,18,female,Belg,3,87,ITC,loss,10,right,3,ITC_start,345,space,0,0,77,390194,1589490
51,18,female,Belg,3,87,ITC,loss,10,right,3,ITC_wait,0,undefined,0,0,77,389035,1590649
51,18,female,Belg,3,87,ITC,loss,10,right,3,ITC_choice,1152,f,0,0,77,389039,1590645
51,18,female,Belg,3,87,ITC,loss,10,right,3,ITC_collect,399,k,0,0,77,388634,1591050
51,18,female,Belg,3,87,ITC,loss,10,right,3,ITC_outcome,0,undefined,0,0,80,387629,1592055
51,18,female,Belg,3,88,guess,win,5,left,9,guess_start,446,space,0,0,80,387179,1592505
51,18,female,Belg,3,88,guess,win,5,left,9,guess_choice,610,f,0,0,80,386564,1593120
51,18,female,Belg,3,88,guess,win,5,left,9,guess_outcome,0,undefined,0,0,100,385006,1594678
51,18,female,Belg,3,88,ITC,win,5,left,9,ITC_start,613,space,0,0,100,384389,1595295
51,18,female,Belg,3,88,ITC,win,5,left,9,ITC_choice,1287,f,0,0,100,383099,1596585
51,18,female,Belg,3,88,ITC,win,5,left,9,ITC_wait,0,undefined,0,0,100,378095,1601589
51,18,female,Belg,3,88,ITC,win,5,left,9,ITC_collect,704,k,0,0,100,377388,1602296
51,18,female,Belg,3,88,ITC,win,5,left,9,ITC_outcome,0,undefined,0,0,120,376381,1603303
51,18,female,Belg,3,89,guess,loss,10,right,5,guess_start,569,space,0,0,120,375809,1603875
51,18,female,Belg,3,89,guess,loss,10,right,5,guess_choice,655,f,0,0,120,375149,1604535
51,18,female,Belg,3,89,guess,loss,10,right,5,guess_outcome,0,undefined,0,0,105,373593,1606091
51,18,female,Belg,3,89,ITC,loss,10,right,5,ITC_start,1111,space,0,0,105,372479,1607205
51,18,female,Belg,3,89,ITC,loss,10,right,5,ITC_choice,1331,f,0,0,105,371145,1608539
51,18,female,Belg,3,89,ITC,loss,10,right,5,ITC_wait,0,undefined,0,0,105,371141,1608543
51,18,female,Belg,3,89,ITC,loss,10,right,5,ITC_collect,265,k,0,0,105,370875,1608809
51,18,female,Belg,3,89,ITC,loss,10,right,5,ITC_outcome,0,undefined,0,0,110,369870,1609814
51,18,female,Belg,3,90,guess,neutral,10,left,4,guess_start,506,space,0,0,110,369360,1610324
51,18,female,Belg,3,90,guess,neutral,10,left,4,guess_choice,1256,j,0,0,110,368100,1611584
51,18,female,Belg,3,90,guess,neutral,10,left,4,guess_outcome,0,undefined,0,0,110,366540,1613144
51,18,female,Belg,3,90,ITC,neutral,10,left,4,ITC_start,464,space,0,0,110,366073,1613611
51,18,female,Belg,3,90,ITC,neutral,10,left,4,ITC_choice,955,j,0,0,110,365115,1614569
51,18,female,Belg,3,90,ITC,neutral,10,left,4,ITC_wait,0,undefined,0,0,110,365111,1614573
51,18,female,Belg,3,90,ITC,neutral,10,left,4,ITC_collect,399,k,0,0,110,364710,1614974
51,18,female,Belg,3,90,ITC,neutral,10,left,4,ITC_outcome,0,undefined,0,0,114,363703,1615981
51,18,female,Belg,3,91,guess,neutral,5,left,15,guess_start,549,space,0,0,114,363150,1616534
51,18,female,Belg,3,91,guess,neutral,5,left,15,guess_choice,701,j,0,0,114,362444,1617240
51,18,female,Belg,3,91,guess,neutral,5,left,15,guess_outcome,0,undefined,0,0,114,360885,1618799
51,18,female,Belg,3,91,ITC,neutral,5,left,15,ITC_start,582,space,0,0,114,360300,1619384
51,18,female,Belg,3,91,ITC,neutral,5,left,15,ITC_choice,896,f,0,0,114,359400,1620284
51,18,female,Belg,3,91,ITC,neutral,5,left,15,ITC_wait,0,undefined,0,0,114,354395,1625289
51,18,female,Belg,3,91,ITC,neutral,5,left,15,ITC_collect,1186,k,0,0,114,353205,1626479
51,18,female,Belg,3,91,ITC,neutral,5,left,15,ITC_outcome,0,undefined,0,0,134,352201,1627483
51,18,female,Belg,3,92,guess,win,5,right,1,guess_start,643,space,0,0,134,351554,1628130
51,18,female,Belg,3,92,guess,win,5,right,1,guess_choice,925,f,0,0,134,350625,1629059
51,18,female,Belg,3,92,guess,win,5,right,1,guess_outcome,0,undefined,0,0,154,349066,1630618
51,18,female,Belg,3,92,ITC,win,5,right,1,ITC_start,747,space,0,0,154,348316,1631368
51,18,female,Belg,3,92,ITC,win,5,right,1,ITC_choice,778,j,0,0,154,347535,1632149
51,18,female,Belg,3,92,ITC,win,5,right,1,ITC_wait,0,undefined,0,0,154,342532,1637152
51,18,female,Belg,3,92,ITC,win,5,right,1,ITC_collect,723,k,0,0,154,341805,1637879
51,18,female,Belg,3,92,ITC,win,5,right,1,ITC_outcome,0,undefined,0,0,174,340797,1638887
51,18,female,Belg,3,93,guess,win,5,left,14,guess_start,428,space,0,0,174,340365,1639319
51,18,female,Belg,3,93,guess,win,5,left,14,guess_choice,790,j,0,0,174,339571,1640113
51,18,female,Belg,3,93,guess,win,5,left,14,guess_outcome,0,undefined,0,0,194,338012,1641672
51,18,female,Belg,3,93,ITC,win,5,left,14,ITC_start,853,space,0,0,194,337156,1642528
51,18,female,Belg,3,93,ITC,win,5,left,14,ITC_choice,762,f,0,0,194,336391,1643293
51,18,female,Belg,3,93,ITC,win,5,left,14,ITC_wait,0,undefined,0,0,194,331385,1648299
51,18,female,Belg,3,93,ITC,win,5,left,14,ITC_collect,1008,k,0,0,194,330374,1649310
51,18,female,Belg,3,93,ITC,win,5,left,14,ITC_outcome,0,undefined,0,0,214,329369,1650315
51,18,female,Belg,3,94,guess,win,10,left,8,guess_start,624,space,0,0,214,328741,1650943
51,18,female,Belg,3,94,guess,win,10,left,8,guess_choice,822,f,0,0,214,327915,1651769
51,18,female,Belg,3,94,guess,win,10,left,8,guess_outcome,0,undefined,0,0,234,326358,1653326
51,18,female,Belg,3,94,ITC,win,10,left,8,ITC_start,825,space,0,0,234,325530,1654154
51,18,female,Belg,3,94,ITC,win,10,left,8,ITC_choice,1753,j,0,0,234,323775,1655909
51,18,female,Belg,3,94,ITC,win,10,left,8,ITC_wait,0,undefined,0,0,234,323771,1655913
51,18,female,Belg,3,94,ITC,win,10,left,8,ITC_collect,428,k,0,0,234,323342,1656342
51,18,female,Belg,3,94,ITC,win,10,left,8,ITC_outcome,0,undefined,0,0,242,322336,1657348
51,18,female,Belg,3,95,guess,loss,5,right,5,guess_start,462,space,0,0,242,321870,1657814
51,18,female,Belg,3,95,guess,loss,5,right,5,guess_choice,729,f,0,0,242,321136,1658548
51,18,female,Belg,3,95,guess,loss,5,right,5,guess_outcome,0,undefined,0,0,227,319580,1660104
51,18,female,Belg,3,95,ITC,loss,5,right,5,ITC_start,180,space,0,0,227,319396,1660288
51,18,female,Belg,3,95,ITC,loss,5,right,5,ITC_choice,1107,f,0,0,227,318286,1661398
51,18,female,Belg,3,95,ITC,loss,5,right,5,ITC_wait,0,undefined,0,0,227,318282,1661402
51,18,female,Belg,3,95,ITC,loss,5,right,5,ITC_collect,325,k,0,0,227,317956,1661728
51,18,female,Belg,3,95,ITC,loss,5,right,5,ITC_outcome,0,undefined,0,0,232,316948,1662736
51,18,female,Belg,3,96,guess,win,10,right,1,guess_start,505,space,0,0,232,316439,1663245
51,18,female,Belg,3,96,guess,win,10,right,1,guess_choice,684,f,0,0,232,315751,1663933
51,18,female,Belg,3,96,guess,win,10,right,1,guess_outcome,0,undefined,0,0,252,314194,1665490
51,18,female,Belg,3,96,ITC,win,10,right,1,ITC_start,615,space,0,0,252,313576,1666108
51,18,female,Belg,3,96,ITC,win,10,right,1,ITC_choice,1152,j,0,0,252,312421,1667263
51,18,female,Belg,3,96,ITC,win,10,right,1,ITC_wait,0,undefined,0,0,252,302414,1677270
51,18,female,Belg,3,96,ITC,win,10,right,1,ITC_collect,5903,k,0,0,252,296507,1683177
51,18,female,Belg,3,96,ITC,win,10,right,1,ITC_outcome,0,undefined,0,0,272,295503,1684181
51,18,female,Belg,3,97,guess,loss,10,left,2,guess_start,282,space,0,0,272,295217,1684467
51,18,female,Belg,3,97,guess,loss,10,left,2,guess_choice,657,f,0,0,272,294556,1685128
51,18,female,Belg,3,97,guess,loss,10,left,2,guess_outcome,0,undefined,0,0,257,292999,1686685
51,18,female,Belg,3,97,ITC,loss,10,left,2,ITC_start,59,space,0,0,257,292937,1686747
51,18,female,Belg,3,97,ITC,loss,10,left,2,ITC_wait,0,undefined,0,0,257,291834,1687850
51,18,female,Belg,3,97,ITC,loss,10,left,2,ITC_choice,1095,j,0,0,257,291839,1687845
51,18,female,Belg,3,97,ITC,loss,10,left,2,ITC_collect,352,k,0,0,257,291481,1688203
51,18,female,Belg,3,97,ITC,loss,10,left,2,ITC_outcome,0,undefined,0,0,259,290475,1689209
51,18,female,Belg,3,98,guess,neutral,5,left,8,guess_start,505,space,0,0,259,289966,1689718
51,18,female,Belg,3,98,guess,neutral,5,left,8,guess_choice,655,j,0,0,259,289306,1690378
51,18,female,Belg,3,98,guess,neutral,5,left,8,guess_outcome,0,undefined,0,0,259,287749,1691935
51,18,female,Belg,3,98,ITC,neutral,5,left,8,ITC_start,510,space,0,0,259,287236,1692448
51,18,female,Belg,3,98,ITC,neutral,5,left,8,ITC_choice,897,f,0,0,259,286335,1693349
51,18,female,Belg,3,98,ITC,neutral,5,left,8,ITC_wait,0,undefined,0,0,259,281330,1698354
51,18,female,Belg,3,98,ITC,neutral,5,left,8,ITC_collect,780,k,0,0,259,280546,1699138
51,18,female,Belg,3,98,ITC,neutral,5,left,8,ITC_outcome,0,undefined,0,0,279,279540,1700144
51,18,female,Belg,3,99,guess,loss,5,right,14,guess_start,370,space,0,0,279,279167,1700517
51,18,female,Belg,3,99,guess,loss,5,right,14,guess_choice,625,j,0,0,279,278536,1701148
51,18,female,Belg,3,99,guess,loss,5,right,14,guess_outcome,0,undefined,0,0,264,276980,1702704
51,18,female,Belg,3,99,ITC,loss,5,right,14,ITC_start,825,space,0,0,264,276152,1703532
51,18,female,Belg,3,99,ITC,loss,5,right,14,ITC_choice,1647,f,0,0,264,274501,1705183
51,18,female,Belg,3,99,ITC,loss,5,right,14,ITC_wait,0,undefined,0,0,264,274498,1705186
51,18,female,Belg,3,99,ITC,loss,5,right,14,ITC_collect,339,k,0,0,264,274157,1705527
51,18,female,Belg,3,99,ITC,loss,5,right,14,ITC_outcome,0,undefined,0,0,278,273150,1706534
51,18,female,Belg,3,100,guess,neutral,5,left,16,guess_start,445,space,0,0,278,272702,1706982
51,18,female,Belg,3,100,guess,neutral,5,left,16,guess_choice,715,f,0,0,278,271982,1707702
51,18,female,Belg,3,100,guess,neutral,5,left,16,guess_outcome,0,undefined,0,0,278,270427,1709257
51,18,female,Belg,3,100,ITC,neutral,5,left,16,ITC_start,646,space,0,0,278,269778,1709906
51,18,female,Belg,3,100,ITC,neutral,5,left,16,ITC_choice,793,f,0,0,278,268982,1710702
51,18,female,Belg,3,100,ITC,neutral,5,left,16,ITC_wait,0,undefined,0,0,278,263974,1715710
51,18,female,Belg,3,100,ITC,neutral,5,left,16,ITC_collect,959,k,0,0,278,263012,1716672
51,18,female,Belg,3,100,ITC,neutral,5,left,16,ITC_outcome,0,undefined,0,0,298,262005,1717679
51,18,female,Belg,3,101,guess,loss,5,right,11,guess_start,504,space,0,0,298,261497,1718187
51,18,female,Belg,3,101,guess,loss,5,right,11,guess_choice,640,f,0,0,298,260853,1718831
51,18,female,Belg,3,101,guess,loss,5,right,11,guess_outcome,0,undefined,0,0,283,259295,1720389
51,18,female,Belg,3,101,ITC,loss,5,right,11,ITC_start,3330,space,0,0,283,255962,1723722
51,18,female,Belg,3,101,ITC,loss,5,right,11,ITC_choice,1303,f,0,0,283,254656,1725028
51,18,female,Belg,3,101,ITC,loss,5,right,11,ITC_wait,0,undefined,0,0,283,254652,1725032
51,18,female,Belg,3,101,ITC,loss,5,right,11,ITC_collect,729,k,0,0,283,253922,1725762
51,18,female,Belg,3,101,ITC,loss,5,right,11,ITC_outcome,0,undefined,0,0,294,252916,1726768
51,18,female,Belg,3,102,guess,neutral,5,left,4,guess_start,551,space,0,0,294,252362,1727322
51,18,female,Belg,3,102,guess,neutral,5,left,4,guess_choice,731,f,0,0,294,251626,1728058
51,18,female,Belg,3,102,guess,neutral,5,left,4,guess_outcome,0,undefined,0,0,294,250068,1729616
51,18,female,Belg,3,102,ITC,neutral,5,left,4,ITC_start,777,space,0,0,294,249288,1730396
51,18,female,Belg,3,102,ITC,neutral,5,left,4,ITC_choice,718,f,0,0,294,248568,1731116
51,18,female,Belg,3,102,ITC,neutral,5,left,4,ITC_wait,0,undefined,0,0,294,243560,1736124
51,18,female,Belg,3,102,ITC,neutral,5,left,4,ITC_collect,1184,k,0,0,294,242372,1737312
51,18,female,Belg,3,102,ITC,neutral,5,left,4,ITC_outcome,0,undefined,0,0,314,241364,1738320
51,18,female,Belg,3,103,guess,loss,5,left,3,guess_start,383,space,0,0,314,240977,1738707
51,18,female,Belg,3,103,guess,loss,5,left,3,guess_choice,655,j,0,0,314,240317,1739367
51,18,female,Belg,3,103,guess,loss,5,left,3,guess_outcome,0,undefined,0,0,299,238760,1740924
51,18,female,Belg,3,103,ITC,loss,5,left,3,ITC_start,764,space,0,0,299,237992,1741692
51,18,female,Belg,3,103,ITC,loss,5,left,3,ITC_choice,897,f,0,0,299,237092,1742592
51,18,female,Belg,3,103,ITC,loss,5,left,3,ITC_wait,0,undefined,0,0,299,232088,1747596
51,18,female,Belg,3,103,ITC,loss,5,left,3,ITC_collect,316,k,0,0,299,231768,1747916
51,18,female,Belg,3,103,ITC,loss,5,left,3,ITC_outcome,0,undefined,0,0,319,230763,1748921
51,18,female,Belg,3,104,guess,win,5,right,3,guess_start,525,space,0,0,319,230234,1749450
51,18,female,Belg,3,104,guess,win,5,right,3,guess_choice,653,f,0,0,319,229576,1750108
51,18,female,Belg,3,104,guess,win,5,right,3,guess_outcome,0,undefined,0,0,339,228020,1751664
51,18,female,Belg,3,104,ITC,win,5,right,3,ITC_start,388,space,0,0,339,227628,1752056
51,18,female,Belg,3,104,ITC,win,5,right,3,ITC_choice,1453,j,0,0,339,226173,1753511
51,18,female,Belg,3,104,ITC,win,5,right,3,ITC_wait,0,undefined,0,0,339,221170,1758514
51,18,female,Belg,3,104,ITC,win,5,right,3,ITC_collect,3588,k,0,0,339,217578,1762106
51,18,female,Belg,3,104,ITC,win,5,right,3,ITC_outcome,0,undefined,0,0,359,216573,1763111
51,18,female,Belg,3,105,guess,loss,5,left,2,guess_start,565,space,0,0,359,216004,1763680
51,18,female,Belg,3,105,guess,loss,5,left,2,guess_choice,851,f,0,0,359,215148,1764536
51,18,female,Belg,3,105,guess,loss,5,left,2,guess_outcome,0,undefined,0,0,344,213590,1766094
51,18,female,Belg,3,105,ITC,loss,5,left,2,ITC_start,539,space,0,0,344,213048,1766636
51,18,female,Belg,3,105,ITC,loss,5,left,2,ITC_choice,762,f,0,0,344,212283,1767401
51,18,female,Belg,3,105,ITC,loss,5,left,2,ITC_wait,0,undefined,0,0,344,207277,1772407
51,18,female,Belg,3,105,ITC,loss,5,left,2,ITC_collect,2341,k,0,0,344,204933,1774751
51,18,female,Belg,3,105,ITC,loss,5,left,2,ITC_outcome,0,undefined,0,0,364,203928,1775756
51,18,female,Belg,3,106,guess,neutral,10,right,8,guess_start,523,space,0,0,364,203404,1776280
51,18,female,Belg,3,106,guess,neutral,10,right,8,guess_choice,701,j,0,0,364,202698,1776986
51,18,female,Belg,3,106,guess,neutral,10,right,8,guess_outcome,0,undefined,0,0,364,201142,1778542
51,18,female,Belg,3,106,ITC,neutral,10,right,8,ITC_start,571,space,0,0,364,200568,1779116
51,18,female,Belg,3,106,ITC,neutral,10,right,8,ITC_choice,1451,f,0,0,364,199114,1780570
51,18,female,Belg,3,106,ITC,neutral,10,right,8,ITC_wait,0,undefined,0,0,364,199110,1780574
51,18,female,Belg,3,106,ITC,neutral,10,right,8,ITC_collect,520,k,0,0,364,198588,1781096
51,18,female,Belg,3,106,ITC,neutral,10,right,8,ITC_outcome,0,undefined,0,0,372,197583,1782101
51,18,female,Belg,3,107,guess,neutral,5,right,3,guess_start,624,space,0,0,372,196954,1782730
51,18,female,Belg,3,107,guess,neutral,5,right,3,guess_choice,625,j,0,0,372,196323,1783361
51,18,female,Belg,3,107,guess,neutral,5,right,3,guess_outcome,0,undefined,0,0,372,194769,1784915
51,18,female,Belg,3,107,ITC,neutral,5,right,3,ITC_start,932,space,0,0,372,193834,1785850
51,18,female,Belg,3,107,ITC,neutral,5,right,3,ITC_choice,1648,j,0,0,372,192183,1787501
51,18,female,Belg,3,107,ITC,neutral,5,right,3,ITC_wait,0,undefined,0,0,372,187176,1792508
51,18,female,Belg,3,107,ITC,neutral,5,right,3,ITC_collect,1797,k,0,0,372,185375,1794309
51,18,female,Belg,3,107,ITC,neutral,5,right,3,ITC_outcome,0,undefined,0,0,392,184367,1795317
51,18,female,Belg,3,108,guess,win,10,right,6,guess_start,581,space,0,0,392,183782,1795902
51,18,female,Belg,3,108,guess,win,10,right,6,guess_choice,789,j,0,0,392,182989,1796695
51,18,female,Belg,3,108,guess,win,10,right,6,guess_outcome,0,undefined,0,0,412,181432,1798252
51,18,female,Belg,3,108,ITC,win,10,right,6,ITC_start,645,space,0,0,412,180784,1798900
51,18,female,Belg,3,108,ITC,win,10,right,6,ITC_choice,1530,j,0,0,412,179251,1800433
51,18,female,Belg,3,108,ITC,win,10,right,6,ITC_wait,0,undefined,0,0,412,169245,1810439
51,18,female,Belg,3,108,ITC,win,10,right,6,ITC_collect,337,k,0,0,412,168906,1810778
51,18,female,Belg,3,108,ITC,win,10,right,6,ITC_outcome,0,undefined,0,0,432,167900,1811784
51,18,female,Belg,3,109,guess,neutral,10,right,7,guess_start,604,space,0,0,432,167292,1812392
51,18,female,Belg,3,109,guess,neutral,10,right,7,guess_choice,662,j,0,0,432,166625,1813059
51,18,female,Belg,3,109,guess,neutral,10,right,7,guess_outcome,0,undefined,0,0,432,165068,1814616
51,18,female,Belg,3,109,ITC,neutral,10,right,7,ITC_start,332,space,0,0,432,164734,1814950
51,18,female,Belg,3,109,ITC,neutral,10,right,7,ITC_choice,2247,f,0,0,432,162484,1817200
51,18,female,Belg,3,109,ITC,neutral,10,right,7,ITC_wait,0,undefined,0,0,432,162480,1817204
51,18,female,Belg,3,109,ITC,neutral,10,right,7,ITC_collect,848,k,0,0,432,161630,1818054
51,18,female,Belg,3,109,ITC,neutral,10,right,7,ITC_outcome,0,undefined,0,0,439,160621,1819063
51,18,female,Belg,3,110,guess,neutral,10,left,2,guess_start,354,space,0,0,439,160263,1819421
51,18,female,Belg,3,110,guess,neutral,10,left,2,guess_choice,683,f,0,0,439,159575,1820109
51,18,female,Belg,3,110,guess,neutral,10,left,2,guess_outcome,0,undefined,0,0,439,158017,1821667
51,18,female,Belg,3,110,ITC,neutral,10,left,2,ITC_start,523,space,0,0,439,157490,1822194
51,18,female,Belg,3,110,ITC,neutral,10,left,2,ITC_choice,1199,j,0,0,439,156290,1823394
51,18,female,Belg,3,110,ITC,neutral,10,left,2,ITC_wait,0,undefined,0,0,439,156285,1823399
51,18,female,Belg,3,110,ITC,neutral,10,left,2,ITC_collect,399,k,0,0,439,155884,1823800
51,18,female,Belg,3,110,ITC,neutral,10,left,2,ITC_outcome,0,undefined,0,0,441,154877,1824807
51,18,female,Belg,3,111,guess,win,5,right,16,guess_start,429,space,0,0,441,154444,1825240
51,18,female,Belg,3,111,guess,win,5,right,16,guess_choice,668,f,0,0,441,153769,1825915
51,18,female,Belg,3,111,guess,win,5,right,16,guess_outcome,0,undefined,0,0,461,152212,1827472
51,18,female,Belg,3,111,ITC,win,5,right,16,ITC_start,584,space,0,0,461,151624,1828060
51,18,female,Belg,3,111,ITC,win,5,right,16,ITC_choice,1785,f,0,0,461,149836,1829848
51,18,female,Belg,3,111,ITC,win,5,right,16,ITC_wait,0,undefined,0,0,461,149832,1829852
51,18,female,Belg,3,111,ITC,win,5,right,16,ITC_collect,426,k,0,0,461,149404,1830280
51,18,female,Belg,3,111,ITC,win,5,right,16,ITC_outcome,0,undefined,0,0,477,148399,1831285
51,18,female,Belg,3,112,guess,loss,5,left,1,guess_start,445,space,0,0,477,147950,1831734
51,18,female,Belg,3,112,guess,loss,5,left,1,guess_choice,1255,j,0,0,477,146690,1832994
51,18,female,Belg,3,112,guess,loss,5,left,1,guess_outcome,0,undefined,0,0,462,145132,1834552
51,18,female,Belg,3,112,ITC,loss,5,left,1,ITC_start,779,space,0,0,462,144350,1835334
51,18,female,Belg,3,112,ITC,loss,5,left,1,ITC_choice,1166,f,0,0,462,143181,1836503
51,18,female,Belg,3,112,ITC,loss,5,left,1,ITC_wait,0,undefined,0,0,462,138176,1841508
51,18,female,Belg,3,112,ITC,loss,5,left,1,ITC_collect,2177,k,0,0,462,135995,1843689
51,18,female,Belg,3,112,ITC,loss,5,left,1,ITC_outcome,0,undefined,0,0,482,134990,1844694
51,18,female,Belg,3,113,guess,neutral,5,right,14,guess_start,461,space,0,0,482,134525,1845159
51,18,female,Belg,3,113,guess,neutral,5,right,14,guess_choice,653,j,0,0,482,133867,1845817
51,18,female,Belg,3,113,guess,neutral,5,right,14,guess_outcome,0,undefined,0,0,482,132310,1847374
51,18,female,Belg,3,113,ITC,neutral,5,right,14,ITC_start,2132,space,0,0,482,130175,1849509
51,18,female,Belg,3,113,ITC,neutral,5,right,14,ITC_choice,1123,j,0,0,482,129049,1850635
51,18,female,Belg,3,113,ITC,neutral,5,right,14,ITC_wait,0,undefined,0,0,482,124045,1855639
51,18,female,Belg,3,113,ITC,neutral,5,right,14,ITC_collect,4726,k,0,0,482,119315,1860369
51,18,female,Belg,3,113,ITC,neutral,5,right,14,ITC_outcome,0,undefined,0,0,502,118311,1861373
51,18,female,Belg,3,114,guess,win,10,left,3,guess_start,1333,space,0,0,502,116975,1862709
51,18,female,Belg,3,114,guess,win,10,left,3,guess_choice,776,f,0,0,502,116195,1863489
51,18,female,Belg,3,114,guess,win,10,left,3,guess_outcome,0,undefined,0,0,522,114637,1865047
51,18,female,Belg,3,114,ITC,win,10,left,3,ITC_start,388,space,0,0,522,114246,1865438
51,18,female,Belg,3,114,ITC,win,10,left,3,ITC_choice,852,f,0,0,522,113390,1866294
51,18,female,Belg,3,114,ITC,win,10,left,3,ITC_wait,0,undefined,0,0,522,103383,1876301
51,18,female,Belg,3,114,ITC,win,10,left,3,ITC_collect,4523,k,0,0,522,98856,1880828
51,18,female,Belg,3,114,ITC,win,10,left,3,ITC_outcome,0,undefined,0,0,542,97849,1881835
51,18,female,Belg,3,115,guess,loss,5,left,15,guess_start,819,space,0,0,542,97026,1882658
51,18,female,Belg,3,115,guess,loss,5,left,15,guess_choice,731,f,0,0,542,96290,1883394
51,18,female,Belg,3,115,guess,loss,5,left,15,guess_outcome,0,undefined,0,0,527,94734,1884950
51,18,female,Belg,3,115,ITC,loss,5,left,15,ITC_start,479,space,0,0,527,94252,1885432
51,18,female,Belg,3,115,ITC,loss,5,left,15,ITC_choice,927,f,0,0,527,93322,1886362
51,18,female,Belg,3,115,ITC,loss,5,left,15,ITC_wait,0,undefined,0,0,527,88314,1891370
51,18,female,Belg,3,115,ITC,loss,5,left,15,ITC_collect,1306,k,0,0,527,87005,1892679
51,18,female,Belg,3,115,ITC,loss,5,left,15,ITC_outcome,0,undefined,0,0,547,85998,1893686
51,18,female,Belg,3,116,guess,loss,5,right,8,guess_start,610,space,0,0,547,85384,1894300
51,18,female,Belg,3,116,guess,loss,5,right,8,guess_choice,999,j,0,0,547,84380,1895304
51,18,female,Belg,3,116,guess,loss,5,right,8,guess_outcome,0,undefined,0,0,532,82826,1896858
51,18,female,Belg,3,116,ITC,loss,5,right,8,ITC_start,211,space,0,0,532,82612,1897072
51,18,female,Belg,3,116,ITC,loss,5,right,8,ITC_choice,1061,j,0,0,532,81547,1898137
51,18,female,Belg,3,116,ITC,loss,5,right,8,ITC_wait,0,undefined,0,0,532,76540,1903144
51,18,female,Belg,3,116,ITC,loss,5,right,8,ITC_collect,1771,k,0,0,532,74767,1904917
51,18,female,Belg,3,116,ITC,loss,5,right,8,ITC_outcome,0,undefined,0,0,552,73761,1905923
51,18,female,Belg,3,117,guess,neutral,5,right,11,guess_start,910,space,0,0,552,72847,1906837
51,18,female,Belg,3,117,guess,neutral,5,right,11,guess_choice,715,f,0,0,552,72128,1907556
51,18,female,Belg,3,117,guess,neutral,5,right,11,guess_outcome,0,undefined,0,0,552,70570,1909114
51,18,female,Belg,3,117,ITC,neutral,5,right,11,ITC_start,719,space,0,0,552,69848,1909836
51,18,female,Belg,3,117,ITC,neutral,5,right,11,ITC_choice,1755,f,0,0,552,68091,1911593
51,18,female,Belg,3,117,ITC,neutral,5,right,11,ITC_wait,0,undefined,0,0,552,68086,1911598
51,18,female,Belg,3,117,ITC,neutral,5,right,11,ITC_collect,443,k,0,0,552,67642,1912042
51,18,female,Belg,3,117,ITC,neutral,5,right,11,ITC_outcome,0,undefined,0,0,563,66638,1913046
51,18,female,Belg,3,118,guess,loss,10,right,8,guess_start,809,space,0,0,563,65825,1913859
51,18,female,Belg,3,118,guess,loss,10,right,8,guess_choice,744,f,0,0,563,65077,1914607
51,18,female,Belg,3,118,guess,loss,10,right,8,guess_outcome,0,undefined,0,0,548,63522,1916162
51,18,female,Belg,3,118,ITC,loss,10,right,8,ITC_start,841,space,0,0,548,62677,1917007
51,18,female,Belg,3,118,ITC,loss,10,right,8,ITC_choice,1196,f,0,0,548,61477,1918207
51,18,female,Belg,3,118,ITC,loss,10,right,8,ITC_wait,0,undefined,0,0,548,61473,1918211
51,18,female,Belg,3,118,ITC,loss,10,right,8,ITC_collect,369,k,0,0,548,61103,1918581
51,18,female,Belg,3,118,ITC,loss,10,right,8,ITC_outcome,0,undefined,0,0,556,60095,1919589
51,18,female,Belg,3,119,guess,loss,5,left,16,guess_start,444,space,0,0,556,59647,1920037
51,18,female,Belg,3,119,guess,loss,5,left,16,guess_choice,761,j,0,0,556,58881,1920803
51,18,female,Belg,3,119,guess,loss,5,left,16,guess_outcome,0,undefined,0,0,541,57324,1922360
51,18,female,Belg,3,119,ITC,loss,5,left,16,ITC_start,421,space,0,0,541,56901,1922783
51,18,female,Belg,3,119,ITC,loss,5,left,16,ITC_choice,896,f,0,0,541,56002,1923682
51,18,female,Belg,3,119,ITC,loss,5,left,16,ITC_wait,0,undefined,0,0,541,50996,1928688
51,18,female,Belg,3,119,ITC,loss,5,left,16,ITC_collect,948,k,0,0,541,50044,1929640
51,18,female,Belg,3,119,ITC,loss,5,left,16,ITC_outcome,0,undefined,0,0,561,49040,1930644
51,18,female,Belg,3,120,guess,win,5,right,10,guess_start,128,space,0,0,561,48908,1930776
51,18,female,Belg,3,120,guess,win,5,right,10,guess_choice,760,j,0,0,561,48143,1931541
51,18,female,Belg,3,120,guess,win,5,right,10,guess_outcome,0,undefined,0,0,581,46587,1933097
51,18,female,Belg,3,120,ITC,win,5,right,10,ITC_start,511,space,0,0,581,46073,1933611
51,18,female,Belg,3,120,ITC,win,5,right,10,ITC_choice,2307,j,0,0,581,43762,1935922
51,18,female,Belg,3,120,ITC,win,5,right,10,ITC_wait,0,undefined,0,0,581,38754,1940930
51,18,female,Belg,3,120,ITC,win,5,right,10,ITC_collect,957,k,0,0,581,37793,1941891
51,18,female,Belg,3,120,ITC,win,5,right,10,ITC_outcome,0,undefined,0,0,601,36787,1942897
51,18,female,Belg,3,121,guess,neutral,10,left,3,guess_start,581,space,0,0,601,36202,1943482
51,18,female,Belg,3,121,guess,neutral,10,left,3,guess_choice,746,j,0,0,601,35452,1944232
51,18,female,Belg,3,121,guess,neutral,10,left,3,guess_outcome,0,undefined,0,0,601,33894,1945790
51,18,female,Belg,3,121,ITC,neutral,10,left,3,ITC_start,1379,space,0,0,601,32514,1947170
51,18,female,Belg,3,121,ITC,neutral,10,left,3,ITC_choice,1287,f,0,0,601,31224,1948460
51,18,female,Belg,3,121,ITC,neutral,10,left,3,ITC_wait,0,undefined,0,0,601,21220,1958464
51,18,female,Belg,3,121,ITC,neutral,10,left,3,ITC_collect,1305,k,0,0,601,19912,1959772
51,18,female,Belg,3,121,ITC,neutral,10,left,3,ITC_outcome,0,undefined,0,0,621,18908,1960776
51,18,female,Belg,3,122,guess,neutral,5,left,12,guess_start,642,space,0,0,621,18262,1961422
51,18,female,Belg,3,122,guess,neutral,5,left,12,guess_choice,1001,j,0,0,621,17257,1962427
51,18,female,Belg,3,122,guess,neutral,5,left,12,guess_outcome,0,undefined,0,0,621,15700,1963984
51,18,female,Belg,3,122,ITC,neutral,5,left,12,ITC_start,733,space,0,0,621,14963,1964721
51,18,female,Belg,3,122,ITC,neutral,5,left,12,ITC_choice,927,f,0,0,621,14033,1965651
51,18,female,Belg,3,122,ITC,neutral,5,left,12,ITC_wait,0,undefined,0,0,621,9026,1970658
51,18,female,Belg,3,122,ITC,neutral,5,left,12,ITC_collect,1470,k,0,0,621,7552,1972132
51,18,female,Belg,3,122,ITC,neutral,5,left,12,ITC_outcome,0,undefined,0,0,641,6544,1973140
51,18,female,Belg,3,123,guess,loss,5,left,7,guess_start,668,space,0,0,641,5873,1973811
51,18,female,Belg,3,123,guess,loss,5,left,7,guess_choice,744,f,0,0,641,5123,1974561
51,18,female,Belg,3,123,guess,loss,5,left,7,guess_outcome,0,undefined,0,0,626,3568,1976116
51,18,female,Belg,3,123,ITC,loss,5,left,7,ITC_start,932,space,0,0,626,2633,1977051
51,18,female,Belg,3,123,ITC,loss,5,left,7,ITC_choice,867,f,0,0,626,1763,1977921
51,18,female,Belg,3,123,ITC,loss,5,left,7,ITC_wait,0,undefined,0,0,626,-5,1979689
51,18,female,Belg,4,124,guess,win,10,left,7,guess_start,673,space,0,0,0,479325,2054164
51,18,female,Belg,4,124,guess,win,10,left,7,guess_choice,1091,j,0,0,0,478229,2055260
51,18,female,Belg,4,124,guess,win,10,left,7,guess_outcome,0,undefined,0,0,20,476672,2056817
51,18,female,Belg,4,124,ITC,win,10,left,7,ITC_start,989,space,0,0,20,475680,2057809
51,18,female,Belg,4,124,ITC,win,10,left,7,ITC_choice,1797,j,0,0,20,473879,2059610
51,18,female,Belg,4,124,ITC,win,10,left,7,ITC_wait,0,undefined,0,0,20,473875,2059614
51,18,female,Belg,4,124,ITC,win,10,left,7,ITC_collect,188,k,0,0,20,473685,2059804
51,18,female,Belg,4,124,ITC,win,10,left,7,ITC_outcome,0,undefined,0,0,27,472680,2060809
51,18,female,Belg,4,125,guess,loss,5,left,4,guess_start,1106,space,0,0,27,471570,2061919
51,18,female,Belg,4,125,guess,loss,5,left,4,guess_choice,625,f,0,0,27,470940,2062549
51,18,female,Belg,4,125,guess,loss,5,left,4,guess_outcome,0,undefined,0,0,12,469383,2064106
51,18,female,Belg,4,125,ITC,loss,5,left,4,ITC_start,825,space,0,0,12,468555,2064934
51,18,female,Belg,4,125,ITC,loss,5,left,4,ITC_choice,806,f,0,0,12,467746,2065743
51,18,female,Belg,4,125,ITC,loss,5,left,4,ITC_wait,0,undefined,0,0,12,462742,2070747
51,18,female,Belg,4,125,ITC,loss,5,left,4,ITC_collect,1528,k,0,0,12,461211,2072278
51,18,female,Belg,4,125,ITC,loss,5,left,4,ITC_outcome,0,undefined,0,0,32,460205,2073284
51,18,female,Belg,4,126,guess,loss,5,right,12,guess_start,525,space,0,0,32,459676,2073813
51,18,female,Belg,4,126,guess,loss,5,right,12,guess_choice,791,j,0,0,32,458880,2074609
51,18,female,Belg,4,126,guess,loss,5,right,12,guess_outcome,0,undefined,0,0,17,457323,2076166
51,18,female,Belg,4,126,ITC,loss,5,right,12,ITC_start,435,space,0,0,17,456884,2076605
51,18,female,Belg,4,126,ITC,loss,5,right,12,ITC_choice,985,j,0,0,17,455895,2077594
51,18,female,Belg,4,126,ITC,loss,5,right,12,ITC_wait,0,undefined,0,0,17,450888,2082601
51,18,female,Belg,4,126,ITC,loss,5,right,12,ITC_collect,1063,k,0,0,17,449821,2083668
51,18,female,Belg,4,126,ITC,loss,5,right,12,ITC_outcome,0,undefined,0,0,37,448816,2084673
51,18,female,Belg,4,127,guess,win,5,right,4,guess_start,538,space,0,0,37,448275,2085214
51,18,female,Belg,4,127,guess,win,5,right,4,guess_choice,610,f,0,0,37,447660,2085829
51,18,female,Belg,4,127,guess,win,5,right,4,guess_outcome,0,undefined,0,0,57,446103,2087386
51,18,female,Belg,4,127,ITC,win,5,right,4,ITC_start,1065,space,0,0,57,445035,2088454
51,18,female,Belg,4,127,ITC,win,5,right,4,ITC_choice,1197,j,0,0,57,443835,2089654
51,18,female,Belg,4,127,ITC,win,5,right,4,ITC_wait,0,undefined,0,0,57,438828,2094661
51,18,female,Belg,4,127,ITC,win,5,right,4,ITC_collect,988,k,0,0,57,437835,2095654
51,18,female,Belg,4,127,ITC,win,5,right,4,ITC_outcome,0,undefined,0,0,77,436830,2096659
51,18,female,Belg,4,128,guess,win,5,left,12,guess_start,972,space,0,0,77,435855,2097634
51,18,female,Belg,4,128,guess,win,5,left,12,guess_choice,1555,j,0,0,77,434295,2099194
51,18,female,Belg,4,128,guess,win,5,left,12,guess_outcome,0,undefined,0,0,97,432736,2100753
51,18,female,Belg,4,128,ITC,win,5,left,12,ITC_start,447,space,0,0,97,432286,2101203
51,18,female,Belg,4,128,ITC,win,5,left,12,ITC_choice,657,f,0,0,97,431626,2101863
51,18,female,Belg,4,128,ITC,win,5,left,12,ITC_wait,0,undefined,0,0,97,426620,2106869
51,18,female,Belg,4,128,ITC,win,5,left,12,ITC_collect,465,k,0,0,97,426152,2107337
51,18,female,Belg,4,128,ITC,win,5,left,12,ITC_outcome,0,undefined,0,0,117,425143,2108346
51,18,female,Belg,4,129,guess,loss,5,right,10,guess_start,279,space,0,0,117,424861,2108628
51,18,female,Belg,4,129,guess,loss,5,right,10,guess_choice,627,j,0,0,117,424230,2109259
51,18,female,Belg,4,129,guess,loss,5,right,10,guess_outcome,0,undefined,0,0,102,422671,2110818
51,18,female,Belg,4,129,ITC,loss,5,right,10,ITC_start,71,space,0,0,102,422597,2110892
51,18,female,Belg,4,129,ITC,loss,5,right,10,ITC_choice,793,j,0,0,102,421801,2111688
51,18,female,Belg,4,129,ITC,loss,5,right,10,ITC_wait,0,undefined,0,0,102,416796,2116693
51,18,female,Belg,4,129,ITC,loss,5,right,10,ITC_collect,1186,k,0,0,102,415606,2117883
51,18,female,Belg,4,129,ITC,loss,5,right,10,ITC_outcome,0,undefined,0,0,122,414602,2118887
51,18,female,Belg,4,130,guess,win,5,right,6,guess_start,432,space,0,0,122,414166,2119323
51,18,female,Belg,4,130,guess,win,5,right,6,guess_choice,791,j,0,0,122,413371,2120118
51,18,female,Belg,4,130,guess,win,5,right,6,guess_outcome,0,undefined,0,0,142,411812,2121677
51,18,female,Belg,4,130,ITC,win,5,right,6,ITC_start,252,space,0,0,142,411557,2121932
51,18,female,Belg,4,130,ITC,win,5,right,6,ITC_choice,674,j,0,0,142,410879,2122610
51,18,female,Belg,4,130,ITC,win,5,right,6,ITC_wait,0,undefined,0,0,142,405874,2127615
51,18,female,Belg,4,130,ITC,win,5,right,6,ITC_collect,600,k,0,0,142,405271,2128218
51,18,female,Belg,4,130,ITC,win,5,right,6,ITC_outcome,0,undefined,0,0,162,404266,2129223
51,18,female,Belg,4,131,guess,neutral,5,left,7,guess_start,582,space,0,0,162,403680,2129809
51,18,female,Belg,4,131,guess,neutral,5,left,7,guess_choice,639,f,0,0,162,403036,2130453
51,18,female,Belg,4,131,guess,neutral,5,left,7,guess_outcome,0,undefined,0,0,162,401480,2132009
51,18,female,Belg,4,131,ITC,neutral,5,left,7,ITC_start,360,space,0,0,162,401116,2132373
51,18,female,Belg,4,131,ITC,neutral,5,left,7,ITC_choice,793,f,0,0,162,400321,2133168
51,18,female,Belg,4,131,ITC,neutral,5,left,7,ITC_wait,0,undefined,0,0,162,395314,2138175
51,18,female,Belg,4,131,ITC,neutral,5,left,7,ITC_collect,5098,k,0,0,162,390213,2143276
51,18,female,Belg,4,131,ITC,neutral,5,left,7,ITC_outcome,0,undefined,0,0,182,389205,2144284
51,18,female,Belg,4,132,guess,neutral,10,right,1,guess_start,595,space,0,0,182,388606,2144883
51,18,female,Belg,4,132,guess,neutral,10,right,1,guess_choice,656,j,0,0,182,387945,2145544
51,18,female,Belg,4,132,guess,neutral,10,right,1,guess_outcome,0,undefined,0,0,182,386387,2147102
51,18,female,Belg,4,132,ITC,neutral,10,right,1,ITC_start,674,space,0,0,182,385711,2147778
51,18,female,Belg,4,132,ITC,neutral,10,right,1,ITC_choice,1211,j,0,0,182,384496,2148993
51,18,female,Belg,4,132,ITC,neutral,10,right,1,ITC_wait,0,undefined,0,0,182,374490,2158999
51,18,female,Belg,4,132,ITC,neutral,10,right,1,ITC_collect,29006,k,0,0,182,345482,2188007
51,18,female,Belg,4,132,ITC,neutral,10,right,1,ITC_outcome,0,undefined,0,0,202,344476,2189013
51,18,female,Belg,4,133,guess,win,10,left,2,guess_start,1150,space,0,0,202,343323,2190166
51,18,female,Belg,4,133,guess,win,10,left,2,guess_choice,656,f,0,0,202,342662,2190827
51,18,female,Belg,4,133,guess,win,10,left,2,guess_outcome,0,undefined,0,0,222,341104,2192385
51,18,female,Belg,4,133,ITC,win,10,left,2,ITC_start,721,space,0,0,222,340380,2193109
51,18,female,Belg,4,133,ITC,win,10,left,2,ITC_choice,1105,j,0,0,222,339272,2194217
51,18,female,Belg,4,133,ITC,win,10,left,2,ITC_wait,0,undefined,0,0,222,339268,2194221
51,18,female,Belg,4,133,ITC,win,10,left,2,ITC_collect,368,k,0,0,222,338899,2194590
51,18,female,Belg,4,133,ITC,win,10,left,2,ITC_outcome,0,undefined,0,0,224,337892,2195597
51,18,female,Belg,4,134,guess,win,5,right,11,guess_start,1045,space,0,0,224,336843,2196646
51,18,female,Belg,4,134,guess,win,5,right,11,guess_choice,701,f,0,0,224,336137,2197352
51,18,female,Belg,4,134,guess,win,5,right,11,guess_outcome,0,undefined,0,0,244,334579,2198910
51,18,female,Belg,4,134,ITC,win,5,right,11,ITC_start,390,space,0,0,244,334186,2199303
51,18,female,Belg,4,134,ITC,win,5,right,11,ITC_choice,896,j,0,0,244,333287,2200202
51,18,female,Belg,4,134,ITC,win,5,right,11,ITC_wait,0,undefined,0,0,244,328283,2205206
51,18,female,Belg,4,134,ITC,win,5,right,11,ITC_collect,1773,k,0,0,244,326507,2206982
51,18,female,Belg,4,134,ITC,win,5,right,11,ITC_outcome,0,undefined,0,0,264,325499,2207990
51,18,female,Belg,4,135,guess,neutral,5,left,13,guess_start,727,space,0,0,264,324768,2208721
51,18,female,Belg,4,135,guess,neutral,5,left,13,guess_choice,1184,j,0,0,264,323579,2209910
51,18,female,Belg,4,135,guess,neutral,5,left,13,guess_outcome,0,undefined,0,0,264,322023,2211466
51,18,female,Belg,4,135,ITC,neutral,5,left,13,ITC_start,612,space,0,0,264,321408,2212081
51,18,female,Belg,4,135,ITC,neutral,5,left,13,ITC_choice,987,f,0,0,264,320418,2213071
51,18,female,Belg,4,135,ITC,neutral,5,left,13,ITC_wait,0,undefined,0,0,264,315415,2218074
51,18,female,Belg,4,135,ITC,neutral,5,left,13,ITC_collect,1220,k,0,0,264,314192,2219297
51,18,female,Belg,4,135,ITC,neutral,5,left,13,ITC_outcome,0,undefined,0,0,284,313186,2220303
51,18,female,Belg,4,136,guess,neutral,10,right,5,guess_start,521,space,0,0,284,312662,2220827
51,18,female,Belg,4,136,guess,neutral,10,right,5,guess_choice,579,j,0,0,284,312078,2221411
51,18,female,Belg,4,136,guess,neutral,10,right,5,guess_outcome,0,undefined,0,0,284,310520,2222969
51,18,female,Belg,4,136,ITC,neutral,10,right,5,ITC_start,659,space,0,0,284,309858,2223631
51,18,female,Belg,4,136,ITC,neutral,10,right,5,ITC_choice,1136,f,0,0,284,308718,2224771
51,18,female,Belg,4,136,ITC,neutral,10,right,5,ITC_wait,0,undefined,0,0,284,308714,2224775
51,18,female,Belg,4,136,ITC,neutral,10,right,5,ITC_collect,688,k,0,0,284,308024,2225465
51,18,female,Belg,4,136,ITC,neutral,10,right,5,ITC_outcome,0,undefined,0,0,289,307017,2226472
51,18,female,Belg,4,137,guess,neutral,5,left,10,guess_start,815,space,0,0,289,306198,2227291
51,18,female,Belg,4,137,guess,neutral,5,left,10,guess_choice,1256,j,0,0,289,304937,2228552
51,18,female,Belg,4,137,guess,neutral,5,left,10,guess_outcome,0,undefined,0,0,289,303382,2230107
51,18,female,Belg,4,137,ITC,neutral,5,left,10,ITC_start,721,space,0,0,289,302658,2230831
51,18,female,Belg,4,137,ITC,neutral,5,left,10,ITC_choice,1445,f,0,0,289,301210,2232279
51,18,female,Belg,4,137,ITC,neutral,5,left,10,ITC_wait,0,undefined,0,0,289,296203,2237286
51,18,female,Belg,4,137,ITC,neutral,5,left,10,ITC_collect,1147,k,0,0,289,295053,2238436
51,18,female,Belg,4,137,ITC,neutral,5,left,10,ITC_outcome,0,undefined,0,0,309,294045,2239444
51,18,female,Belg,4,138,guess,win,10,left,4,guess_start,355,space,0,0,309,293686,2239803
51,18,female,Belg,4,138,guess,win,10,left,4,guess_choice,788,f,0,0,309,292893,2240596
51,18,female,Belg,4,138,guess,win,10,left,4,guess_outcome,0,undefined,0,0,329,291335,2242154
51,18,female,Belg,4,138,ITC,win,10,left,4,ITC_start,1168,space,0,0,329,290163,2243326
51,18,female,Belg,4,138,ITC,win,10,left,4,ITC_choice,1137,j,0,0,329,289023,2244466
51,18,female,Belg,4,138,ITC,win,10,left,4,ITC_wait,0,undefined,0,0,329,289019,2244470
51,18,female,Belg,4,138,ITC,win,10,left,4,ITC_collect,294,k,0,0,329,288724,2244765
51,18,female,Belg,4,138,ITC,win,10,left,4,ITC_outcome,0,undefined,0,0,333,287717,2245772
51,18,female,Belg,4,139,guess,win,10,right,5,guess_start,461,space,0,0,333,287252,2246237
51,18,female,Belg,4,139,guess,win,10,right,5,guess_choice,819,j,0,0,333,286429,2247060
51,18,female,Belg,4,139,guess,win,10,right,5,guess_outcome,0,undefined,0,0,353,284874,2248615
51,18,female,Belg,4,139,ITC,win,10,right,5,ITC_start,603,space,0,0,353,284268,2249221
51,18,female,Belg,4,139,ITC,win,10,right,5,ITC_choice,1031,f,0,0,353,283233,2250256
51,18,female,Belg,4,139,ITC,win,10,right,5,ITC_wait,0,undefined,0,0,353,283229,2250260
51,18,female,Belg,4,139,ITC,win,10,right,5,ITC_collect,249,k,0,0,353,282979,2250510
51,18,female,Belg,4,139,ITC,win,10,right,5,ITC_outcome,0,undefined,0,0,358,281971,2251518
51,18,female,Belg,4,140,guess,win,5,left,7,guess_start,383,space,0,0,358,281583,2251906
51,18,female,Belg,4,140,guess,win,5,left,7,guess_choice,896,j,0,0,358,280683,2252806
51,18,female,Belg,4,140,guess,win,5,left,7,guess_outcome,0,undefined,0,0,378,279127,2254362
51,18,female,Belg,4,140,ITC,win,5,left,7,ITC_start,675,space,0,0,378,278448,2255041
51,18,female,Belg,4,140,ITC,win,5,left,7,ITC_choice,928,f,0,0,378,277518,2255971
51,18,female,Belg,4,140,ITC,win,5,left,7,ITC_wait,0,undefined,0,0,378,272510,2260979
51,18,female,Belg,4,140,ITC,win,5,left,7,ITC_collect,1004,k,0,0,378,271502,2261987
51,18,female,Belg,4,140,ITC,win,5,left,7,ITC_outcome,0,undefined,0,0,398,270497,2262992
51,18,female,Belg,4,141,guess,loss,5,left,13,guess_start,670,space,0,0,398,269823,2263666
51,18,female,Belg,4,141,guess,loss,5,left,13,guess_choice,699,f,0,0,398,269119,2264370
51,18,female,Belg,4,141,guess,loss,5,left,13,guess_outcome,0,undefined,0,0,383,267561,2265928
51,18,female,Belg,4,141,ITC,loss,5,left,13,ITC_start,2219,space,0,0,383,265339,2268150
51,18,female,Belg,4,141,ITC,loss,5,left,13,ITC_choice,1738,f,0,0,383,263598,2269891
51,18,female,Belg,4,141,ITC,loss,5,left,13,ITC_wait,0,undefined,0,0,383,258591,2274898
51,18,female,Belg,4,141,ITC,loss,5,left,13,ITC_collect,1619,k,0,0,383,256968,2276521
51,18,female,Belg,4,141,ITC,loss,5,left,13,ITC_outcome,0,undefined,0,0,403,255962,2277527
51,18,female,Belg,4,142,guess,win,5,right,2,guess_start,985,space,0,0,403,254973,2278516
51,18,female,Belg,4,142,guess,win,5,right,2,guess_choice,714,j,0,0,403,254254,2279235
51,18,female,Belg,4,142,guess,win,5,right,2,guess_outcome,0,undefined,0,0,423,252697,2280792
51,18,female,Belg,4,142,ITC,win,5,right,2,ITC_start,720,space,0,0,423,251973,2281516
51,18,female,Belg,4,142,ITC,win,5,right,2,ITC_choice,1001,j,0,0,423,250969,2282520
51,18,female,Belg,4,142,ITC,win,5,right,2,ITC_wait,0,undefined,0,0,423,245964,2287525
51,18,female,Belg,4,142,ITC,win,5,right,2,ITC_collect,1653,k,0,0,423,244308,2289181
51,18,female,Belg,4,142,ITC,win,5,right,2,ITC_outcome,0,undefined,0,0,443,243301,2290188
51,18,female,Belg,4,143,guess,neutral,5,right,9,guess_start,638,space,0,0,443,242660,2290829
51,18,female,Belg,4,143,guess,neutral,5,right,9,guess_choice,731,f,0,0,443,241925,2291564
51,18,female,Belg,4,143,guess,neutral,5,right,9,guess_outcome,0,undefined,0,0,443,240367,2293122
51,18,female,Belg,4,143,ITC,neutral,5,right,9,ITC_start,704,space,0,0,443,239660,2293829
51,18,female,Belg,4,143,ITC,neutral,5,right,9,ITC_choice,687,j,0,0,443,238969,2294520
51,18,female,Belg,4,143,ITC,neutral,5,right,9,ITC_wait,0,undefined,0,0,443,233965,2299524
51,18,female,Belg,4,143,ITC,neutral,5,right,9,ITC_collect,4517,k,0,0,443,229444,2304045
51,18,female,Belg,4,143,ITC,neutral,5,right,9,ITC_outcome,0,undefined,0,0,463,228440,2305049
51,18,female,Belg,4,144,guess,win,5,right,5,guess_start,580,space,0,0,463,227855,2305634
51,18,female,Belg,4,144,guess,win,5,right,5,guess_choice,746,f,0,0,463,227104,2306385
51,18,female,Belg,4,144,guess,win,5,right,5,guess_outcome,0,undefined,0,0,483,225545,2307944
51,18,female,Belg,4,144,ITC,win,5,right,5,ITC_start,327,space,0,0,483,225215,2308274
51,18,female,Belg,4,144,ITC,win,5,right,5,ITC_choice,747,j,0,0,483,224465,2309024
51,18,female,Belg,4,144,ITC,win,5,right,5,ITC_wait,0,undefined,0,0,483,219460,2314029
51,18,female,Belg,4,144,ITC,win,5,right,5,ITC_collect,1114,k,0,0,483,218343,2315146
51,18,female,Belg,4,144,ITC,win,5,right,5,ITC_outcome,0,undefined,0,0,503,217335,2316154
51,18,female,Belg,4,145,guess,loss,5,right,1,guess_start,457,space,0,0,503,216875,2316614
