subjectID,age,gender,nationality,block_number,trial_number,trial_type,guess_outcome,delay_time,delay_pos,immediate_amount,stage,respRT,respKey,blur_count,focus_count,total_points,remaining_duration,time_elapsed
18,19,male,Belgian,1,1,guess,neutral,5,left,4,guess_start,3710,space,0,0,0,476288,513210
18,19,male,Belgian,1,1,guess,neutral,5,left,4,guess_choice,2387,f,0,0,0,473895,515603
18,19,male,Belgian,1,1,guess,neutral,5,left,4,guess_outcome,0,undefined,0,0,0,472338,517160
18,19,male,Belgian,1,1,ITC,neutral,5,left,4,ITC_start,3711,space,0,0,0,468625,520873
18,19,male,Belgian,1,1,ITC,neutral,5,left,4,ITC_choice,2715,f,0,0,0,465907,523591
18,19,male,Belgian,1,1,ITC,neutral,5,left,4,ITC_wait,0,undefined,0,0,0,460901,528597
18,19,male,Belgian,1,1,ITC,neutral,5,left,4,ITC_collect,1702,k,0,0,0,459197,530301
18,19,male,Belgian,1,1,ITC,neutral,5,left,4,ITC_outcome,0,undefined,0,0,20,458193,531305
18,19,male,Belgian,1,2,guess,loss,5,left,13,guess_start,1905,space,0,0,20,456285,533213
18,19,male,Belgian,1,2,guess,loss,5,left,13,guess_choice,5832,f,0,0,20,450449,539049
18,19,male,Belgian,1,2,guess,loss,5,left,13,guess_outcome,0,undefined,0,0,5,448894,540604
18,19,male,Belgian,1,2,ITC,loss,5,left,13,ITC_start,1616,space,0,0,5,447276,542222
18,19,male,Belgian,1,2,ITC,loss,5,left,13,ITC_choice,2438,f,0,0,5,444837,544661
18,19,male,Belgian,1,2,ITC,loss,5,left,13,ITC_wait,0,undefined,0,0,5,439831,549667
18,19,male,Belgian,1,2,ITC,loss,5,left,13,ITC_collect,1333,k,0,0,5,438496,551002
18,19,male,Belgian,1,2,ITC,loss,5,left,13,ITC_outcome,0,undefined,0,0,25,437491,552007
18,19,male,Belgian,1,3,guess,win,5,left,8,guess_start,2310,space,0,0,25,435178,554320
18,19,male,Belgian,1,3,guess,win,5,left,8,guess_choice,2430,j,0,0,25,432745,556753
18,19,male,Belgian,1,3,guess,win,5,left,8,guess_outcome,0,undefined,0,0,45,431191,558307
18,19,male,Belgian,1,3,ITC,win,5,left,8,ITC_start,1453,space,0,0,45,429736,559762
18,19,male,Belgian,1,3,ITC,win,5,left,8,ITC_choice,2283,f,0,0,45,427451,562047
18,19,male,Belgian,1,3,ITC,win,5,left,8,ITC_wait,0,undefined,0,0,45,422448,567050
18,19,male,Belgian,1,3,ITC,win,5,left,8,ITC_collect,1393,k,0,0,45,421054,568444
18,19,male,Belgian,1,3,ITC,win,5,left,8,ITC_outcome,0,undefined,0,0,65,420050,569448
18,19,male,Belgian,1,4,guess,neutral,10,right,8,guess_start,3242,space,0,0,65,416806,572692
18,19,male,Belgian,1,4,guess,neutral,10,right,8,guess_choice,2659,j,0,0,65,414144,575354
18,19,male,Belgian,1,4,guess,neutral,10,right,8,guess_outcome,0,undefined,0,0,65,412586,576912
18,19,male,Belgian,1,4,ITC,neutral,10,right,8,ITC_start,2591,space,0,0,65,409993,579505
18,19,male,Belgian,1,4,ITC,neutral,10,right,8,ITC_choice,1169,j,0,0,65,408822,580676
18,19,male,Belgian,1,4,ITC,neutral,10,right,8,ITC_wait,0,undefined,0,0,65,398816,590682
18,19,male,Belgian,1,4,ITC,neutral,10,right,8,ITC_collect,1230,k,0,0,65,397584,591914
18,19,male,Belgian,1,4,ITC,neutral,10,right,8,ITC_outcome,0,undefined,0,0,85,396581,592917
18,19,male,Belgian,1,5,guess,win,10,right,3,guess_start,3646,space,0,0,85,392933,596565
18,19,male,Belgian,1,5,guess,win,10,right,3,guess_choice,1511,f,0,0,85,391421,598077
18,19,male,Belgian,1,5,guess,win,10,right,3,guess_outcome,0,undefined,0,0,105,389863,599635
18,19,male,Belgian,1,5,ITC,win,10,right,3,ITC_start,1891,space,0,0,105,387970,601528
18,19,male,Belgian,1,5,ITC,win,10,right,3,ITC_choice,954,j,0,0,105,387014,602484
18,19,male,Belgian,1,5,ITC,win,10,right,3,ITC_wait,0,undefined,0,0,105,377008,612490
18,19,male,Belgian,1,5,ITC,win,10,right,3,ITC_collect,1397,k,0,0,105,375609,613889
18,19,male,Belgian,1,5,ITC,win,10,right,3,ITC_outcome,0,undefined,0,0,125,374603,614895
18,19,male,Belgian,1,6,guess,loss,5,left,10,guess_start,1790,space,0,0,125,372811,616687
18,19,male,Belgian,1,6,guess,loss,5,left,10,guess_choice,1332,j,0,0,125,371476,618022
18,19,male,Belgian,1,6,guess,loss,5,left,10,guess_outcome,0,undefined,0,0,110,369922,619576
18,19,male,Belgian,1,6,ITC,loss,5,left,10,ITC_start,1511,space,0,0,110,368409,621089
18,19,male,Belgian,1,6,ITC,loss,5,left,10,ITC_choice,678,f,0,0,110,367730,621768
18,19,male,Belgian,1,6,ITC,loss,5,left,10,ITC_wait,0,undefined,0,0,110,362725,626773
18,19,male,Belgian,1,6,ITC,loss,5,left,10,ITC_collect,3123,k,0,0,110,359600,629898
18,19,male,Belgian,1,6,ITC,loss,5,left,10,ITC_outcome,0,undefined,0,0,130,358594,630904
18,19,male,Belgian,1,7,guess,win,5,right,13,guess_start,1176,space,0,0,130,357416,632082
18,19,male,Belgian,1,7,guess,win,5,right,13,guess_choice,964,j,0,0,130,356449,633049
18,19,male,Belgian,1,7,guess,win,5,right,13,guess_outcome,0,undefined,0,0,150,354892,634606
18,19,male,Belgian,1,7,ITC,win,5,right,13,ITC_start,907,space,0,0,150,353984,635514
18,19,male,Belgian,1,7,ITC,win,5,right,13,ITC_choice,1164,f,0,0,150,352819,636679
18,19,male,Belgian,1,7,ITC,win,5,right,13,ITC_wait,0,undefined,0,0,150,352816,636682
18,19,male,Belgian,1,7,ITC,win,5,right,13,ITC_collect,2894,k,0,0,150,349921,639577
18,19,male,Belgian,1,7,ITC,win,5,right,13,ITC_outcome,0,undefined,0,0,163,348918,640580
18,19,male,Belgian,1,8,guess,loss,5,right,5,guess_start,1155,space,0,0,163,347761,641737
18,19,male,Belgian,1,8,guess,loss,5,right,5,guess_choice,1378,j,0,0,163,346380,643118
18,19,male,Belgian,1,8,guess,loss,5,right,5,guess_outcome,0,undefined,0,0,148,344822,644676
18,19,male,Belgian,1,8,ITC,loss,5,right,5,ITC_start,967,space,0,0,148,343854,645644
18,19,male,Belgian,1,8,ITC,loss,5,right,5,ITC_choice,2249,j,0,0,148,341602,647896
18,19,male,Belgian,1,8,ITC,loss,5,right,5,ITC_wait,0,undefined,0,0,148,336596,652902
18,19,male,Belgian,1,8,ITC,loss,5,right,5,ITC_collect,439,k,0,0,148,336155,653343
18,19,male,Belgian,1,8,ITC,loss,5,right,5,ITC_outcome,0,undefined,0,0,168,335150,654348
18,19,male,Belgian,1,9,guess,win,10,right,6,guess_start,1069,space,0,0,168,334079,655419
18,19,male,Belgian,1,9,guess,win,10,right,6,guess_choice,780,j,0,0,168,333296,656202
18,19,male,Belgian,1,9,guess,win,10,right,6,guess_outcome,0,undefined,0,0,188,331738,657760
18,19,male,Belgian,1,9,ITC,win,10,right,6,ITC_start,902,space,0,0,188,330835,658663
18,19,male,Belgian,1,9,ITC,win,10,right,6,ITC_choice,2200,f,0,0,188,328633,660865
18,19,male,Belgian,1,9,ITC,win,10,right,6,ITC_wait,0,undefined,0,0,188,328630,660868
18,19,male,Belgian,1,9,ITC,win,10,right,6,ITC_collect,2290,k,0,0,188,326339,663159
18,19,male,Belgian,1,9,ITC,win,10,right,6,ITC_outcome,0,undefined,0,0,194,325336,664162
18,19,male,Belgian,1,10,guess,loss,10,left,1,guess_start,2012,space,0,0,194,323322,666176
18,19,male,Belgian,1,10,guess,loss,10,left,1,guess_choice,1080,j,0,0,194,322239,667259
18,19,male,Belgian,1,10,guess,loss,10,left,1,guess_outcome,0,undefined,0,0,179,320681,668817
18,19,male,Belgian,1,10,ITC,loss,10,left,1,ITC_start,1527,space,0,0,179,319153,670345
18,19,male,Belgian,1,10,ITC,loss,10,left,1,ITC_choice,2589,j,0,0,179,316562,672936
18,19,male,Belgian,1,10,ITC,loss,10,left,1,ITC_wait,0,undefined,0,0,179,316558,672940
18,19,male,Belgian,1,10,ITC,loss,10,left,1,ITC_collect,1059,k,0,0,179,315498,674000
18,19,male,Belgian,1,10,ITC,loss,10,left,1,ITC_outcome,0,undefined,0,0,180,314495,675003
18,19,male,Belgian,1,11,guess,win,10,right,8,guess_start,1633,space,0,0,180,312860,676638
18,19,male,Belgian,1,11,guess,win,10,right,8,guess_choice,1115,f,0,0,180,311742,677756
18,19,male,Belgian,1,11,guess,win,10,right,8,guess_outcome,0,undefined,0,0,200,310185,679313
18,19,male,Belgian,1,11,ITC,win,10,right,8,ITC_start,1062,space,0,0,200,309122,680376
18,19,male,Belgian,1,11,ITC,win,10,right,8,ITC_choice,1645,f,0,0,200,307475,682023
18,19,male,Belgian,1,11,ITC,win,10,right,8,ITC_wait,0,undefined,0,0,200,307472,682026
18,19,male,Belgian,1,11,ITC,win,10,right,8,ITC_collect,864,k,0,0,200,306606,682892
18,19,male,Belgian,1,11,ITC,win,10,right,8,ITC_outcome,0,undefined,0,0,208,305600,683898
18,19,male,Belgian,1,12,guess,win,10,right,4,guess_start,1171,space,0,0,208,304427,685071
18,19,male,Belgian,1,12,guess,win,10,right,4,guess_choice,1787,j,0,0,208,302638,686860
18,19,male,Belgian,1,12,guess,win,10,right,4,guess_outcome,0,undefined,0,0,228,301080,688418
18,19,male,Belgian,1,12,ITC,win,10,right,4,ITC_start,1281,space,0,0,228,299797,689701
18,19,male,Belgian,1,12,ITC,win,10,right,4,ITC_choice,1663,j,0,0,228,298132,691366
18,19,male,Belgian,1,12,ITC,win,10,right,4,ITC_wait,0,undefined,0,0,228,288126,701372
18,19,male,Belgian,1,12,ITC,win,10,right,4,ITC_collect,873,k,0,0,228,287251,702247
18,19,male,Belgian,1,12,ITC,win,10,right,4,ITC_outcome,0,undefined,0,0,248,286245,703253
18,19,male,Belgian,1,13,guess,neutral,10,left,7,guess_start,2052,space,0,0,248,284192,705306
18,19,male,Belgian,1,13,guess,neutral,10,left,7,guess_choice,1388,f,0,0,248,282801,706697
18,19,male,Belgian,1,13,guess,neutral,10,left,7,guess_outcome,0,undefined,0,0,248,281243,708255
18,19,male,Belgian,1,13,ITC,neutral,10,left,7,ITC_start,2396,space,0,0,248,278845,710653
18,19,male,Belgian,1,13,ITC,neutral,10,left,7,ITC_choice,1709,j,0,0,248,277134,712364
18,19,male,Belgian,1,13,ITC,neutral,10,left,7,ITC_wait,0,undefined,0,0,248,277132,712366
18,19,male,Belgian,1,13,ITC,neutral,10,left,7,ITC_collect,960,k,0,0,248,276170,713328
18,19,male,Belgian,1,13,ITC,neutral,10,left,7,ITC_outcome,0,undefined,0,0,255,275163,714335
18,19,male,Belgian,1,14,guess,win,10,right,2,guess_start,821,space,0,0,255,274340,715158
18,19,male,Belgian,1,14,guess,win,10,right,2,guess_choice,1385,j,0,0,255,272952,716546
18,19,male,Belgian,1,14,guess,win,10,right,2,guess_outcome,0,undefined,0,0,275,271394,718104
18,19,male,Belgian,1,14,ITC,win,10,right,2,ITC_start,792,space,0,0,275,270600,718898
18,19,male,Belgian,1,14,ITC,win,10,right,2,ITC_choice,1205,f,0,0,275,269394,720104
18,19,male,Belgian,1,14,ITC,win,10,right,2,ITC_wait,0,undefined,0,0,275,269391,720107
18,19,male,Belgian,1,14,ITC,win,10,right,2,ITC_collect,798,k,0,0,275,268592,720906
18,19,male,Belgian,1,14,ITC,win,10,right,2,ITC_outcome,0,undefined,0,0,277,267586,721912
18,19,male,Belgian,1,15,guess,loss,5,right,1,guess_start,570,space,0,0,277,267014,722484
18,19,male,Belgian,1,15,guess,loss,5,right,1,guess_choice,653,j,0,0,277,266356,723142
18,19,male,Belgian,1,15,guess,loss,5,right,1,guess_outcome,0,undefined,0,0,262,264802,724696
18,19,male,Belgian,1,15,ITC,loss,5,right,1,ITC_start,836,space,0,0,262,263964,725534
18,19,male,Belgian,1,15,ITC,loss,5,right,1,ITC_choice,1286,f,0,0,262,262677,726821
18,19,male,Belgian,1,15,ITC,loss,5,right,1,ITC_wait,0,undefined,0,0,262,262674,726824
18,19,male,Belgian,1,15,ITC,loss,5,right,1,ITC_collect,1071,k,0,0,262,261602,727896
18,19,male,Belgian,1,15,ITC,loss,5,right,1,ITC_outcome,0,undefined,0,0,263,260595,728903
18,19,male,Belgian,1,16,guess,loss,5,right,14,guess_start,1013,space,0,0,263,259580,729918
18,19,male,Belgian,1,16,guess,loss,5,right,14,guess_choice,984,f,0,0,263,258593,730905
18,19,male,Belgian,1,16,guess,loss,5,right,14,guess_outcome,0,undefined,0,0,248,257038,732460
18,19,male,Belgian,1,16,ITC,loss,5,right,14,ITC_start,472,space,0,0,248,256565,732933
18,19,male,Belgian,1,16,ITC,loss,5,right,14,ITC_choice,1105,f,0,0,248,255458,734040
18,19,male,Belgian,1,16,ITC,loss,5,right,14,ITC_wait,0,undefined,0,0,248,255455,734043
18,19,male,Belgian,1,16,ITC,loss,5,right,14,ITC_collect,1161,k,0,0,248,254293,735205
18,19,male,Belgian,1,16,ITC,loss,5,right,14,ITC_outcome,0,undefined,0,0,262,253287,736211
18,19,male,Belgian,1,17,guess,neutral,10,left,1,guess_start,602,space,0,0,262,252683,736815
18,19,male,Belgian,1,17,guess,neutral,10,left,1,guess_choice,1329,j,0,0,262,251350,738148
18,19,male,Belgian,1,17,guess,neutral,10,left,1,guess_outcome,0,undefined,0,0,262,249791,739707
18,19,male,Belgian,1,17,ITC,neutral,10,left,1,ITC_start,902,space,0,0,262,248887,740611
18,19,male,Belgian,1,17,ITC,neutral,10,left,1,ITC_choice,2351,j,0,0,262,246534,742964
18,19,male,Belgian,1,17,ITC,neutral,10,left,1,ITC_wait,0,undefined,0,0,262,246532,742966
18,19,male,Belgian,1,17,ITC,neutral,10,left,1,ITC_collect,872,k,0,0,262,245658,743840
18,19,male,Belgian,1,17,ITC,neutral,10,left,1,ITC_outcome,0,undefined,0,0,263,244655,744843
18,19,male,Belgian,1,18,guess,win,5,right,1,guess_start,930,space,0,0,263,243724,745774
18,19,male,Belgian,1,18,guess,win,5,right,1,guess_choice,2292,j,0,0,263,241430,748068
18,19,male,Belgian,1,18,guess,win,5,right,1,guess_outcome,0,undefined,0,0,283,239872,749626
18,19,male,Belgian,1,18,ITC,win,5,right,1,ITC_start,849,space,0,0,283,239021,750477
18,19,male,Belgian,1,18,ITC,win,5,right,1,ITC_choice,767,f,0,0,283,238253,751245
18,19,male,Belgian,1,18,ITC,win,5,right,1,ITC_wait,0,undefined,0,0,283,238250,751248
18,19,male,Belgian,1,18,ITC,win,5,right,1,ITC_collect,685,k,0,0,283,237565,751933
18,19,male,Belgian,1,18,ITC,win,5,right,1,ITC_outcome,0,undefined,0,0,284,236560,752938
18,19,male,Belgian,1,19,guess,win,5,left,16,guess_start,836,space,0,0,284,235722,753776
18,19,male,Belgian,1,19,guess,win,5,left,16,guess_choice,612,j,0,0,284,235107,754391
18,19,male,Belgian,1,19,guess,win,5,left,16,guess_outcome,0,undefined,0,0,304,233550,755948
18,19,male,Belgian,1,19,ITC,win,5,left,16,ITC_start,509,space,0,0,304,233039,756459
18,19,male,Belgian,1,19,ITC,win,5,left,16,ITC_choice,1889,j,0,0,304,231148,758350
18,19,male,Belgian,1,19,ITC,win,5,left,16,ITC_wait,0,undefined,0,0,304,231146,758352
18,19,male,Belgian,1,19,ITC,win,5,left,16,ITC_collect,618,k,0,0,304,230526,758972
18,19,male,Belgian,1,19,ITC,win,5,left,16,ITC_outcome,0,undefined,0,0,320,229520,759978
18,19,male,Belgian,1,20,guess,neutral,5,left,13,guess_start,664,space,0,0,320,228854,760644
18,19,male,Belgian,1,20,guess,neutral,5,left,13,guess_choice,1004,f,0,0,320,227847,761651
18,19,male,Belgian,1,20,guess,neutral,5,left,13,guess_outcome,0,undefined,0,0,320,226290,763208
18,19,male,Belgian,1,20,ITC,neutral,5,left,13,ITC_start,888,space,0,0,320,225400,764098
18,19,male,Belgian,1,20,ITC,neutral,5,left,13,ITC_choice,1133,f,0,0,320,224265,765233
18,19,male,Belgian,1,20,ITC,neutral,5,left,13,ITC_wait,0,undefined,0,0,320,219259,770239
18,19,male,Belgian,1,20,ITC,neutral,5,left,13,ITC_collect,1743,k,0,0,320,217515,771983
18,19,male,Belgian,1,20,ITC,neutral,5,left,13,ITC_outcome,0,undefined,0,0,340,216509,772989
18,19,male,Belgian,1,21,guess,win,5,right,9,guess_start,1094,space,0,0,340,215413,774085
18,19,male,Belgian,1,21,guess,win,5,right,9,guess_choice,590,j,0,0,340,214820,774678
18,19,male,Belgian,1,21,guess,win,5,right,9,guess_outcome,0,undefined,0,0,360,213264,776234
18,19,male,Belgian,1,21,ITC,win,5,right,9,ITC_start,782,space,0,0,360,212481,777017
18,19,male,Belgian,1,21,ITC,win,5,right,9,ITC_choice,1200,j,0,0,360,211280,778218
18,19,male,Belgian,1,21,ITC,win,5,right,9,ITC_wait,0,undefined,0,0,360,206273,783225
18,19,male,Belgian,1,21,ITC,win,5,right,9,ITC_collect,1069,k,0,0,360,205201,784297
18,19,male,Belgian,1,21,ITC,win,5,right,9,ITC_outcome,0,undefined,0,0,380,204199,785299
18,19,male,Belgian,1,22,guess,loss,5,right,8,guess_start,1066,space,0,0,380,203131,786367
18,19,male,Belgian,1,22,guess,loss,5,right,8,guess_choice,915,f,0,0,380,202213,787285
18,19,male,Belgian,1,22,guess,loss,5,right,8,guess_outcome,0,undefined,0,0,365,200656,788842
18,19,male,Belgian,1,22,ITC,loss,5,right,8,ITC_start,794,space,0,0,365,199861,789637
18,19,male,Belgian,1,22,ITC,loss,5,right,8,ITC_choice,2219,f,0,0,365,197641,791857
18,19,male,Belgian,1,22,ITC,loss,5,right,8,ITC_wait,0,undefined,0,0,365,197638,791860
18,19,male,Belgian,1,22,ITC,loss,5,right,8,ITC_collect,492,k,0,0,365,197145,792353
18,19,male,Belgian,1,22,ITC,loss,5,right,8,ITC_outcome,0,undefined,0,0,373,196139,793359
18,19,male,Belgian,1,23,guess,loss,5,left,15,guess_start,1005,space,0,0,373,195132,794366
18,19,male,Belgian,1,23,guess,loss,5,left,15,guess_choice,616,j,0,0,373,194513,794985
18,19,male,Belgian,1,23,guess,loss,5,left,15,guess_outcome,0,undefined,0,0,358,192955,796543
18,19,male,Belgian,1,23,ITC,loss,5,left,15,ITC_start,1423,space,0,0,358,191531,797967
18,19,male,Belgian,1,23,ITC,loss,5,left,15,ITC_choice,1601,j,0,0,358,189929,799569
18,19,male,Belgian,1,23,ITC,loss,5,left,15,ITC_wait,0,undefined,0,0,358,189926,799572
18,19,male,Belgian,1,23,ITC,loss,5,left,15,ITC_collect,611,k,0,0,358,189313,800185
18,19,male,Belgian,1,23,ITC,loss,5,left,15,ITC_outcome,0,undefined,0,0,373,188308,801190
18,19,male,Belgian,1,24,guess,win,5,left,5,guess_start,2595,space,0,0,373,185712,803786
18,19,male,Belgian,1,24,guess,win,5,left,5,guess_choice,677,f,0,0,373,185031,804467
18,19,male,Belgian,1,24,guess,win,5,left,5,guess_outcome,0,undefined,0,0,393,183477,806021
18,19,male,Belgian,1,24,ITC,win,5,left,5,ITC_start,947,space,0,0,393,182529,806969
18,19,male,Belgian,1,24,ITC,win,5,left,5,ITC_choice,958,f,0,0,393,181569,807929
18,19,male,Belgian,1,24,ITC,win,5,left,5,ITC_wait,0,undefined,0,0,393,176563,812935
18,19,male,Belgian,1,24,ITC,win,5,left,5,ITC_collect,505,k,0,0,393,176056,813442
18,19,male,Belgian,1,24,ITC,win,5,left,5,ITC_outcome,0,undefined,0,0,413,175049,814449
18,19,male,Belgian,1,25,guess,neutral,10,left,6,guess_start,870,space,0,0,413,174177,815321
18,19,male,Belgian,1,25,guess,neutral,10,left,6,guess_choice,1552,j,0,0,413,172623,816875
18,19,male,Belgian,1,25,guess,neutral,10,left,6,guess_outcome,0,undefined,0,0,413,171068,818430
18,19,male,Belgian,1,25,ITC,neutral,10,left,6,ITC_start,944,space,0,0,413,170122,819376
18,19,male,Belgian,1,25,ITC,neutral,10,left,6,ITC_choice,1801,j,0,0,413,168320,821178
18,19,male,Belgian,1,25,ITC,neutral,10,left,6,ITC_wait,0,undefined,0,0,413,168317,821181
18,19,male,Belgian,1,25,ITC,neutral,10,left,6,ITC_collect,902,k,0,0,413,167414,822084
18,19,male,Belgian,1,25,ITC,neutral,10,left,6,ITC_outcome,0,undefined,0,0,419,166411,823087
18,19,male,Belgian,1,26,guess,neutral,5,left,6,guess_start,531,space,0,0,419,165879,823619
18,19,male,Belgian,1,26,guess,neutral,5,left,6,guess_choice,1593,f,0,0,419,164283,825215
18,19,male,Belgian,1,26,guess,neutral,5,left,6,guess_outcome,0,undefined,0,0,419,162727,826771
18,19,male,Belgian,1,26,ITC,neutral,5,left,6,ITC_start,472,space,0,0,419,162253,827245
18,19,male,Belgian,1,26,ITC,neutral,5,left,6,ITC_wait,0,undefined,0,0,419,159731,829767
18,19,male,Belgian,1,26,ITC,neutral,5,left,6,ITC_choice,2517,j,0,0,419,159734,829764
18,19,male,Belgian,1,26,ITC,neutral,5,left,6,ITC_collect,709,k,0,0,419,159020,830478
18,19,male,Belgian,1,26,ITC,neutral,5,left,6,ITC_outcome,0,undefined,0,0,425,158014,831484
18,19,male,Belgian,1,27,guess,loss,10,left,8,guess_start,945,space,0,0,425,157067,832431
18,19,male,Belgian,1,27,guess,loss,10,left,8,guess_choice,1018,j,0,0,425,156045,833453
18,19,male,Belgian,1,27,guess,loss,10,left,8,guess_outcome,0,undefined,0,0,410,154493,835005
18,19,male,Belgian,1,27,ITC,loss,10,left,8,ITC_start,234,space,0,0,410,154257,835241
18,19,male,Belgian,1,27,ITC,loss,10,left,8,ITC_choice,1464,j,0,0,410,152791,836707
18,19,male,Belgian,1,27,ITC,loss,10,left,8,ITC_wait,0,undefined,0,0,410,152788,836710
18,19,male,Belgian,1,27,ITC,loss,10,left,8,ITC_collect,709,k,0,0,410,152077,837421
18,19,male,Belgian,1,27,ITC,loss,10,left,8,ITC_outcome,0,undefined,0,0,418,151073,838425
18,19,male,Belgian,1,28,guess,loss,5,left,7,guess_start,733,space,0,0,418,150336,839162
18,19,male,Belgian,1,28,guess,loss,5,left,7,guess_choice,1238,f,0,0,418,149095,840403
18,19,male,Belgian,1,28,guess,loss,5,left,7,guess_outcome,0,undefined,0,0,403,147538,841960
18,19,male,Belgian,1,28,ITC,loss,5,left,7,ITC_start,179,space,0,0,403,147357,842141
18,19,male,Belgian,1,28,ITC,loss,5,left,7,ITC_choice,1319,j,0,0,403,146036,843462
18,19,male,Belgian,1,28,ITC,loss,5,left,7,ITC_wait,0,undefined,0,0,403,146034,843464
18,19,male,Belgian,1,28,ITC,loss,5,left,7,ITC_collect,752,k,0,0,403,145281,844217
18,19,male,Belgian,1,28,ITC,loss,5,left,7,ITC_outcome,0,undefined,0,0,410,144275,845223
18,19,male,Belgian,1,29,guess,loss,10,left,6,guess_start,649,space,0,0,410,143624,845874
18,19,male,Belgian,1,29,guess,loss,10,left,6,guess_choice,767,j,0,0,410,142854,846644
18,19,male,Belgian,1,29,guess,loss,10,left,6,guess_outcome,0,undefined,0,0,395,141296,848202
18,19,male,Belgian,1,29,ITC,loss,10,left,6,ITC_start,457,space,0,0,395,140837,848661
18,19,male,Belgian,1,29,ITC,loss,10,left,6,ITC_choice,1179,j,0,0,395,139657,849841
18,19,male,Belgian,1,29,ITC,loss,10,left,6,ITC_wait,0,undefined,0,0,395,139654,849844
18,19,male,Belgian,1,29,ITC,loss,10,left,6,ITC_collect,1142,k,0,0,395,138511,850987
18,19,male,Belgian,1,29,ITC,loss,10,left,6,ITC_outcome,0,undefined,0,0,401,137504,851994
18,19,male,Belgian,1,30,guess,loss,10,left,2,guess_start,694,space,0,0,401,136808,852690
18,19,male,Belgian,1,30,guess,loss,10,left,2,guess_choice,834,f,0,0,401,135971,853527
18,19,male,Belgian,1,30,guess,loss,10,left,2,guess_outcome,0,undefined,0,0,386,134416,855082
18,19,male,Belgian,1,30,ITC,loss,10,left,2,ITC_start,13,space,0,0,386,134402,855096
18,19,male,Belgian,1,30,ITC,loss,10,left,2,ITC_choice,1224,j,0,0,386,133176,856322
18,19,male,Belgian,1,30,ITC,loss,10,left,2,ITC_wait,0,undefined,0,0,386,133174,856324
18,19,male,Belgian,1,30,ITC,loss,10,left,2,ITC_collect,359,k,0,0,386,132814,856684
18,19,male,Belgian,1,30,ITC,loss,10,left,2,ITC_outcome,0,undefined,0,0,388,131808,857690
18,19,male,Belgian,1,31,guess,neutral,5,right,9,guess_start,462,space,0,0,388,131343,858155
18,19,male,Belgian,1,31,guess,neutral,5,right,9,guess_choice,3571,f,0,0,388,127768,861730
18,19,male,Belgian,1,31,guess,neutral,5,right,9,guess_outcome,0,undefined,0,0,388,126210,863288
18,19,male,Belgian,1,31,ITC,neutral,5,right,9,ITC_start,473,space,0,0,388,125736,863762
18,19,male,Belgian,1,31,ITC,neutral,5,right,9,ITC_wait,0,undefined,0,0,388,123909,865589
18,19,male,Belgian,1,31,ITC,neutral,5,right,9,ITC_choice,1822,f,0,0,388,123912,865586
18,19,male,Belgian,1,31,ITC,neutral,5,right,9,ITC_collect,1105,k,0,0,388,122803,866695
18,19,male,Belgian,1,31,ITC,neutral,5,right,9,ITC_outcome,0,undefined,0,0,397,121800,867698
18,19,male,Belgian,1,32,guess,loss,5,right,11,guess_start,607,space,0,0,397,121191,868307
18,19,male,Belgian,1,32,guess,loss,5,right,11,guess_choice,928,j,0,0,397,120260,869238
18,19,male,Belgian,1,32,guess,loss,5,right,11,guess_outcome,0,undefined,0,0,382,118705,870793
18,19,male,Belgian,1,32,ITC,loss,5,right,11,ITC_start,2122,space,0,0,382,116581,872917
18,19,male,Belgian,1,32,ITC,loss,5,right,11,ITC_choice,1087,f,0,0,382,115493,874005
18,19,male,Belgian,1,32,ITC,loss,5,right,11,ITC_wait,0,undefined,0,0,382,115490,874008
18,19,male,Belgian,1,32,ITC,loss,5,right,11,ITC_collect,1072,k,0,0,382,114416,875082
18,19,male,Belgian,1,32,ITC,loss,5,right,11,ITC_outcome,0,undefined,0,0,393,113414,876084
18,19,male,Belgian,1,33,guess,win,5,left,11,guess_start,583,space,0,0,393,112830,876668
18,19,male,Belgian,1,33,guess,win,5,left,11,guess_choice,1015,j,0,0,393,111812,877686
18,19,male,Belgian,1,33,guess,win,5,left,11,guess_outcome,0,undefined,0,0,413,110258,879240
18,19,male,Belgian,1,33,ITC,win,5,left,11,ITC_start,640,space,0,0,413,109616,879882
18,19,male,Belgian,1,33,ITC,win,5,left,11,ITC_choice,1031,j,0,0,413,108582,880916
18,19,male,Belgian,1,33,ITC,win,5,left,11,ITC_wait,0,undefined,0,0,413,108580,880918
18,19,male,Belgian,1,33,ITC,win,5,left,11,ITC_collect,1094,k,0,0,413,107485,882013
18,19,male,Belgian,1,33,ITC,win,5,left,11,ITC_outcome,0,undefined,0,0,424,106482,883016
18,19,male,Belgian,1,34,guess,win,5,right,15,guess_start,447,space,0,0,424,106034,883464
18,19,male,Belgian,1,34,guess,win,5,right,15,guess_choice,878,j,0,0,424,105153,884345
18,19,male,Belgian,1,34,guess,win,5,right,15,guess_outcome,0,undefined,0,0,444,103596,885902
18,19,male,Belgian,1,34,ITC,win,5,right,15,ITC_start,850,space,0,0,444,102745,886753
18,19,male,Belgian,1,34,ITC,win,5,right,15,ITC_choice,1655,f,0,0,444,101088,888410
18,19,male,Belgian,1,34,ITC,win,5,right,15,ITC_wait,0,undefined,0,0,444,101086,888412
18,19,male,Belgian,1,34,ITC,win,5,right,15,ITC_collect,1052,k,0,0,444,100033,889465
18,19,male,Belgian,1,34,ITC,win,5,right,15,ITC_outcome,0,undefined,0,0,459,99027,890471
18,19,male,Belgian,1,35,guess,neutral,5,left,7,guess_start,548,space,0,0,459,98477,891021
18,19,male,Belgian,1,35,guess,neutral,5,left,7,guess_choice,3269,f,0,0,459,95206,894292
18,19,male,Belgian,1,35,guess,neutral,5,left,7,guess_outcome,0,undefined,0,0,459,93652,895846
18,19,male,Belgian,1,35,ITC,neutral,5,left,7,ITC_start,754,space,0,0,459,92896,896602
18,19,male,Belgian,1,35,ITC,neutral,5,left,7,ITC_choice,1007,j,0,0,459,91889,897609
18,19,male,Belgian,1,35,ITC,neutral,5,left,7,ITC_wait,0,undefined,0,0,459,91886,897612
18,19,male,Belgian,1,35,ITC,neutral,5,left,7,ITC_collect,532,k,0,0,459,91352,898146
18,19,male,Belgian,1,35,ITC,neutral,5,left,7,ITC_outcome,0,undefined,0,0,466,90347,899151
18,19,male,Belgian,1,36,guess,loss,5,right,6,guess_start,470,space,0,0,466,89874,899624
18,19,male,Belgian,1,36,guess,loss,5,right,6,guess_choice,884,j,0,0,466,88987,900511
18,19,male,Belgian,1,36,guess,loss,5,right,6,guess_outcome,0,undefined,0,0,451,87434,902064
18,19,male,Belgian,1,36,ITC,loss,5,right,6,ITC_start,519,space,0,0,451,86914,902584
18,19,male,Belgian,1,36,ITC,loss,5,right,6,ITC_choice,1811,f,0,0,451,85101,904397
18,19,male,Belgian,1,36,ITC,loss,5,right,6,ITC_wait,0,undefined,0,0,451,85098,904400
18,19,male,Belgian,1,36,ITC,loss,5,right,6,ITC_collect,474,k,0,0,451,84623,904875
18,19,male,Belgian,1,36,ITC,loss,5,right,6,ITC_outcome,0,undefined,0,0,457,83617,905881
18,19,male,Belgian,1,37,guess,loss,10,left,5,guess_start,369,space,0,0,457,83246,906252
18,19,male,Belgian,1,37,guess,loss,10,left,5,guess_choice,1090,j,0,0,457,82154,907344
18,19,male,Belgian,1,37,guess,loss,10,left,5,guess_outcome,0,undefined,0,0,442,80597,908901
18,19,male,Belgian,1,37,ITC,loss,10,left,5,ITC_start,467,space,0,0,442,80129,909369
18,19,male,Belgian,1,37,ITC,loss,10,left,5,ITC_choice,872,j,0,0,442,79255,910243
18,19,male,Belgian,1,37,ITC,loss,10,left,5,ITC_wait,0,undefined,0,0,442,79253,910245
18,19,male,Belgian,1,37,ITC,loss,10,left,5,ITC_collect,491,k,0,0,442,78761,910737
18,19,male,Belgian,1,37,ITC,loss,10,left,5,ITC_outcome,0,undefined,0,0,447,77756,911742
18,19,male,Belgian,1,38,guess,neutral,5,right,2,guess_start,213,space,0,0,447,77541,911957
18,19,male,Belgian,1,38,guess,neutral,5,right,2,guess_choice,469,j,0,0,447,77069,912429
18,19,male,Belgian,1,38,guess,neutral,5,right,2,guess_outcome,0,undefined,0,0,447,75510,913988
18,19,male,Belgian,1,38,ITC,neutral,5,right,2,ITC_start,1419,space,0,0,447,74089,915409
18,19,male,Belgian,1,38,ITC,neutral,5,right,2,ITC_choice,2699,f,0,0,447,71388,918110
18,19,male,Belgian,1,38,ITC,neutral,5,right,2,ITC_wait,0,undefined,0,0,447,71385,918113
18,19,male,Belgian,1,38,ITC,neutral,5,right,2,ITC_collect,480,k,0,0,447,70904,918594
18,19,male,Belgian,1,38,ITC,neutral,5,right,2,ITC_outcome,0,undefined,0,0,449,69898,919600
18,19,male,Belgian,1,39,guess,win,5,left,2,guess_start,1342,space,0,0,449,68554,920944
18,19,male,Belgian,1,39,guess,win,5,left,2,guess_choice,690,f,0,0,449,67862,921636
18,19,male,Belgian,1,39,guess,win,5,left,2,guess_outcome,0,undefined,0,0,469,66304,923194
18,19,male,Belgian,1,39,ITC,win,5,left,2,ITC_start,628,space,0,0,469,65674,923824
18,19,male,Belgian,1,39,ITC,win,5,left,2,ITC_choice,1256,j,0,0,469,64416,925082
18,19,male,Belgian,1,39,ITC,win,5,left,2,ITC_wait,0,undefined,0,0,469,64413,925085
18,19,male,Belgian,1,39,ITC,win,5,left,2,ITC_collect,263,k,0,0,469,64149,925349
18,19,male,Belgian,1,39,ITC,win,5,left,2,ITC_outcome,0,undefined,0,0,471,63145,926353
18,19,male,Belgian,1,40,guess,loss,5,right,3,guess_start,557,space,0,0,471,62586,926912
18,19,male,Belgian,1,40,guess,loss,5,right,3,guess_choice,792,j,0,0,471,61791,927707
18,19,male,Belgian,1,40,guess,loss,5,right,3,guess_outcome,0,undefined,0,0,456,60233,929265
18,19,male,Belgian,1,40,ITC,loss,5,right,3,ITC_start,424,space,0,0,456,59806,929692
18,19,male,Belgian,1,40,ITC,loss,5,right,3,ITC_choice,1312,f,0,0,456,58492,931006
18,19,male,Belgian,1,40,ITC,loss,5,right,3,ITC_wait,0,undefined,0,0,456,58490,931008
18,19,male,Belgian,1,40,ITC,loss,5,right,3,ITC_collect,919,k,0,0,456,57569,931929
18,19,male,Belgian,1,40,ITC,loss,5,right,3,ITC_outcome,0,undefined,0,0,459,56566,932932
18,19,male,Belgian,1,41,guess,neutral,5,left,12,guess_start,228,space,0,0,459,56336,933162
18,19,male,Belgian,1,41,guess,neutral,5,left,12,guess_choice,1390,f,0,0,459,54942,934556
18,19,male,Belgian,1,41,guess,neutral,5,left,12,guess_outcome,0,undefined,0,0,459,53384,936114
18,19,male,Belgian,1,41,ITC,neutral,5,left,12,ITC_start,404,space,0,0,459,52979,936519
18,19,male,Belgian,1,41,ITC,neutral,5,left,12,ITC_choice,602,j,0,0,459,52375,937123
18,19,male,Belgian,1,41,ITC,neutral,5,left,12,ITC_wait,0,undefined,0,0,459,52372,937126
18,19,male,Belgian,1,41,ITC,neutral,5,left,12,ITC_collect,625,k,0,0,459,51746,937752
18,19,male,Belgian,1,41,ITC,neutral,5,left,12,ITC_outcome,0,undefined,0,0,471,50739,938759
18,19,male,Belgian,1,42,guess,win,5,right,3,guess_start,419,space,0,0,471,50318,939180
18,19,male,Belgian,1,42,guess,win,5,right,3,guess_choice,586,j,0,0,471,49729,939769
18,19,male,Belgian,1,42,guess,win,5,right,3,guess_outcome,0,undefined,0,0,491,48171,941327
18,19,male,Belgian,1,42,ITC,win,5,right,3,ITC_start,339,space,0,0,491,47831,941667
18,19,male,Belgian,1,42,ITC,win,5,right,3,ITC_choice,770,f,0,0,491,47059,942439
18,19,male,Belgian,1,42,ITC,win,5,right,3,ITC_wait,0,undefined,0,0,491,47056,942442
18,19,male,Belgian,1,42,ITC,win,5,right,3,ITC_collect,681,k,0,0,491,46373,943125
18,19,male,Belgian,1,42,ITC,win,5,right,3,ITC_outcome,0,undefined,0,0,494,45371,944127
18,19,male,Belgian,1,43,guess,win,10,left,5,guess_start,335,space,0,0,494,45035,944463
18,19,male,Belgian,1,43,guess,win,10,left,5,guess_choice,823,j,0,0,494,44208,945290
18,19,male,Belgian,1,43,guess,win,10,left,5,guess_outcome,0,undefined,0,0,514,42653,946845
18,19,male,Belgian,1,43,ITC,win,10,left,5,ITC_start,821,space,0,0,514,41831,947667
18,19,male,Belgian,1,43,ITC,win,10,left,5,ITC_choice,687,j,0,0,514,41142,948356
18,19,male,Belgian,1,43,ITC,win,10,left,5,ITC_wait,0,undefined,0,0,514,41138,948360
18,19,male,Belgian,1,43,ITC,win,10,left,5,ITC_collect,848,k,0,0,514,40289,949209
18,19,male,Belgian,1,43,ITC,win,10,left,5,ITC_outcome,0,undefined,0,0,519,39286,950212
18,19,male,Belgian,1,44,guess,win,5,right,4,guess_start,564,space,0,0,519,38720,950778
18,19,male,Belgian,1,44,guess,win,5,right,4,guess_choice,346,f,0,0,519,38371,951127
18,19,male,Belgian,1,44,guess,win,5,right,4,guess_outcome,0,undefined,0,0,539,36813,952685
18,19,male,Belgian,1,44,ITC,win,5,right,4,ITC_start,1350,space,0,0,539,35461,954037
18,19,male,Belgian,1,44,ITC,win,5,right,4,ITC_choice,757,f,0,0,539,34702,954796
18,19,male,Belgian,1,44,ITC,win,5,right,4,ITC_wait,0,undefined,0,0,539,34699,954799
18,19,male,Belgian,1,44,ITC,win,5,right,4,ITC_collect,1001,k,0,0,539,33697,955801
18,19,male,Belgian,1,44,ITC,win,5,right,4,ITC_outcome,0,undefined,0,0,543,32692,956806
18,19,male,Belgian,1,45,guess,loss,5,right,12,guess_start,380,space,0,0,543,32310,957188
18,19,male,Belgian,1,45,guess,loss,5,right,12,guess_choice,898,j,0,0,543,31409,958089
18,19,male,Belgian,1,45,guess,loss,5,right,12,guess_outcome,0,undefined,0,0,528,29854,959644
18,19,male,Belgian,1,45,ITC,loss,5,right,12,ITC_start,366,space,0,0,528,29487,960011
18,19,male,Belgian,1,45,ITC,loss,5,right,12,ITC_choice,1077,f,0,0,528,28408,961090
18,19,male,Belgian,1,45,ITC,loss,5,right,12,ITC_wait,0,undefined,0,0,528,28405,961093
18,19,male,Belgian,1,45,ITC,loss,5,right,12,ITC_collect,983,k,0,0,528,27421,962077
18,19,male,Belgian,1,45,ITC,loss,5,right,12,ITC_outcome,0,undefined,0,0,540,26418,963080
18,19,male,Belgian,1,46,guess,neutral,10,right,2,guess_start,546,space,0,0,540,25870,963628
18,19,male,Belgian,1,46,guess,neutral,10,right,2,guess_choice,286,j,0,0,540,25581,963917
18,19,male,Belgian,1,46,guess,neutral,10,right,2,guess_outcome,0,undefined,0,0,540,24023,965475
18,19,male,Belgian,1,46,ITC,neutral,10,right,2,ITC_start,690,space,0,0,540,23329,966169
18,19,male,Belgian,1,46,ITC,neutral,10,right,2,ITC_choice,681,f,0,0,540,22647,966851
18,19,male,Belgian,1,46,ITC,neutral,10,right,2,ITC_wait,0,undefined,0,0,540,22645,966853
18,19,male,Belgian,1,46,ITC,neutral,10,right,2,ITC_collect,569,k,0,0,540,22074,967424
18,19,male,Belgian,1,46,ITC,neutral,10,right,2,ITC_outcome,0,undefined,0,0,542,21069,968429
18,19,male,Belgian,1,47,guess,win,5,left,7,guess_start,2992,space,0,0,542,18076,971422
18,19,male,Belgian,1,47,guess,win,5,left,7,guess_choice,815,j,0,0,542,17257,972241
18,19,male,Belgian,1,47,guess,win,5,left,7,guess_outcome,0,undefined,0,0,562,15703,973795
18,19,male,Belgian,1,47,ITC,win,5,left,7,ITC_start,45,space,0,0,562,15656,973842
18,19,male,Belgian,1,47,ITC,win,5,left,7,ITC_choice,1377,j,0,0,562,14278,975220
18,19,male,Belgian,1,47,ITC,win,5,left,7,ITC_wait,0,undefined,0,0,562,14275,975223
18,19,male,Belgian,1,47,ITC,win,5,left,7,ITC_collect,547,k,0,0,562,13726,975772
18,19,male,Belgian,1,47,ITC,win,5,left,7,ITC_outcome,0,undefined,0,0,569,12720,976778
18,19,male,Belgian,1,48,guess,neutral,5,left,1,guess_start,532,space,0,0,569,12186,977312
18,19,male,Belgian,1,48,guess,neutral,5,left,1,guess_choice,1285,j,0,0,569,10898,978600
18,19,male,Belgian,1,48,guess,neutral,5,left,1,guess_outcome,0,undefined,0,0,569,9339,980159
18,19,male,Belgian,1,48,ITC,neutral,5,left,1,ITC_start,357,space,0,0,569,8980,980518
18,19,male,Belgian,1,48,ITC,neutral,5,left,1,ITC_choice,927,j,0,0,569,8051,981447
18,19,male,Belgian,1,48,ITC,neutral,5,left,1,ITC_wait,0,undefined,0,0,569,8049,981449
18,19,male,Belgian,1,48,ITC,neutral,5,left,1,ITC_collect,796,k,0,0,569,7251,982247
18,19,male,Belgian,1,48,ITC,neutral,5,left,1,ITC_outcome,0,undefined,0,0,570,6246,983252
18,19,male,Belgian,1,49,guess,neutral,5,left,15,guess_start,412,space,0,0,570,5833,983665
18,19,male,Belgian,1,49,guess,neutral,5,left,15,guess_choice,1298,f,0,0,570,4531,984967
18,19,male,Belgian,1,49,guess,neutral,5,left,15,guess_outcome,0,undefined,0,0,570,2978,986520
18,19,male,Belgian,1,49,ITC,neutral,5,left,15,ITC_start,138,space,0,0,570,2839,986659
18,19,male,Belgian,1,49,ITC,neutral,5,left,15,ITC_choice,989,j,0,0,570,1848,987650
18,19,male,Belgian,1,49,ITC,neutral,5,left,15,ITC_wait,0,undefined,0,0,570,1846,987652
18,19,male,Belgian,1,49,ITC,neutral,5,left,15,ITC_collect,519,k,0,0,570,1326,988172
18,19,male,Belgian,1,49,ITC,neutral,5,left,15,ITC_outcome,0,undefined,0,0,585,323,989175
18,19,male,Belgian,1,50,guess,neutral,5,right,5,guess_start,0,undefined,0,0,585,-7,989505
18,19,male,Belgian,2,51,guess,loss,10,left,7,guess_start,1455,space,0,0,0,478545,1518472
18,19,male,Belgian,2,51,guess,loss,10,left,7,guess_choice,1630,j,0,0,0,476912,1520105
18,19,male,Belgian,2,51,guess,loss,10,left,7,guess_outcome,0,undefined,0,0,-15,475355,1521662
18,19,male,Belgian,2,51,ITC,loss,10,left,7,ITC_start,1270,space,0,0,-15,474083,1522934
18,19,male,Belgian,2,51,ITC,loss,10,left,7,ITC_choice,756,j,0,0,-15,473325,1523692
18,19,male,Belgian,2,51,ITC,loss,10,left,7,ITC_wait,0,undefined,0,0,-15,473323,1523694
18,19,male,Belgian,2,51,ITC,loss,10,left,7,ITC_collect,913,k,0,0,-15,472408,1524609
18,19,male,Belgian,2,51,ITC,loss,10,left,7,ITC_outcome,0,undefined,0,0,-8,471405,1525612
18,19,male,Belgian,2,52,guess,neutral,5,left,10,guess_start,468,space,0,0,-8,470935,1526082
18,19,male,Belgian,2,52,guess,neutral,5,left,10,guess_choice,2097,f,0,0,-8,468835,1528182
18,19,male,Belgian,2,52,guess,neutral,5,left,10,guess_outcome,0,undefined,0,0,-8,467282,1529735
18,19,male,Belgian,2,52,ITC,neutral,5,left,10,ITC_start,699,space,0,0,-8,466582,1530435
18,19,male,Belgian,2,52,ITC,neutral,5,left,10,ITC_choice,768,j,0,0,-8,465812,1531205
18,19,male,Belgian,2,52,ITC,neutral,5,left,10,ITC_wait,0,undefined,0,0,-8,465810,1531207
18,19,male,Belgian,2,52,ITC,neutral,5,left,10,ITC_collect,495,k,0,0,-8,465314,1531703
18,19,male,Belgian,2,52,ITC,neutral,5,left,10,ITC_outcome,0,undefined,0,0,2,464308,1532709
18,19,male,Belgian,2,53,guess,win,5,right,10,guess_start,402,space,0,0,2,463905,1533112
18,19,male,Belgian,2,53,guess,win,5,right,10,guess_choice,1009,f,0,0,2,462892,1534125
18,19,male,Belgian,2,53,guess,win,5,right,10,guess_outcome,0,undefined,0,0,22,461339,1535678
18,19,male,Belgian,2,53,ITC,win,5,right,10,ITC_start,219,space,0,0,22,461118,1535899
18,19,male,Belgian,2,53,ITC,win,5,right,10,ITC_choice,681,f,0,0,22,460435,1536582
18,19,male,Belgian,2,53,ITC,win,5,right,10,ITC_wait,0,undefined,0,0,22,460432,1536585
18,19,male,Belgian,2,53,ITC,win,5,right,10,ITC_collect,786,k,0,0,22,459645,1537372
18,19,male,Belgian,2,53,ITC,win,5,right,10,ITC_outcome,0,undefined,0,0,32,458642,1538375
18,19,male,Belgian,2,54,guess,neutral,5,left,11,guess_start,191,space,0,0,32,458449,1538568
18,19,male,Belgian,2,54,guess,neutral,5,left,11,guess_choice,467,j,0,0,32,457978,1539039
18,19,male,Belgian,2,54,guess,neutral,5,left,11,guess_outcome,0,undefined,0,0,32,456424,1540593
18,19,male,Belgian,2,54,ITC,neutral,5,left,11,ITC_start,197,space,0,0,32,456225,1540792
18,19,male,Belgian,2,54,ITC,neutral,5,left,11,ITC_choice,748,j,0,0,32,455475,1541542
18,19,male,Belgian,2,54,ITC,neutral,5,left,11,ITC_wait,0,undefined,0,0,32,455471,1541546
18,19,male,Belgian,2,54,ITC,neutral,5,left,11,ITC_collect,477,k,0,0,32,454993,1542024
18,19,male,Belgian,2,54,ITC,neutral,5,left,11,ITC_outcome,0,undefined,0,0,43,453990,1543027
18,19,male,Belgian,2,55,guess,win,5,right,14,guess_start,430,space,0,0,43,453558,1543459
18,19,male,Belgian,2,55,guess,win,5,right,14,guess_choice,530,f,0,0,43,453025,1543992
18,19,male,Belgian,2,55,guess,win,5,right,14,guess_outcome,0,undefined,0,0,63,451466,1545551
18,19,male,Belgian,2,55,ITC,win,5,right,14,ITC_start,511,space,0,0,63,450954,1546063
18,19,male,Belgian,2,55,ITC,win,5,right,14,ITC_choice,724,f,0,0,63,450228,1546789
18,19,male,Belgian,2,55,ITC,win,5,right,14,ITC_wait,0,undefined,0,0,63,450226,1546791
18,19,male,Belgian,2,55,ITC,win,5,right,14,ITC_collect,878,k,0,0,63,449347,1547670
18,19,male,Belgian,2,55,ITC,win,5,right,14,ITC_outcome,0,undefined,0,0,77,448344,1548673
18,19,male,Belgian,2,56,guess,loss,5,right,4,guess_start,8014,space,0,0,77,440328,1556689
18,19,male,Belgian,2,56,guess,loss,5,right,4,guess_choice,953,j,0,0,77,439372,1557645
18,19,male,Belgian,2,56,guess,loss,5,right,4,guess_outcome,0,undefined,0,0,62,437819,1559198
18,19,male,Belgian,2,56,ITC,loss,5,right,4,ITC_start,165,space,0,0,62,437652,1559365
18,19,male,Belgian,2,56,ITC,loss,5,right,4,ITC_choice,742,f,0,0,62,436908,1560109
18,19,male,Belgian,2,56,ITC,loss,5,right,4,ITC_wait,0,undefined,0,0,62,436905,1560112
18,19,male,Belgian,2,56,ITC,loss,5,right,4,ITC_collect,515,k,0,0,62,436389,1560628
18,19,male,Belgian,2,56,ITC,loss,5,right,4,ITC_outcome,0,undefined,0,0,66,435383,1561634
18,19,male,Belgian,2,57,guess,win,5,right,12,guess_start,168,space,0,0,66,435212,1561805
18,19,male,Belgian,2,57,guess,win,5,right,12,guess_choice,482,f,0,0,66,434727,1562290
18,19,male,Belgian,2,57,guess,win,5,right,12,guess_outcome,0,undefined,0,0,86,433168,1563849
18,19,male,Belgian,2,57,ITC,win,5,right,12,ITC_start,336,space,0,0,86,432831,1564186
18,19,male,Belgian,2,57,ITC,win,5,right,12,ITC_choice,614,f,0,0,86,432215,1564802
18,19,male,Belgian,2,57,ITC,win,5,right,12,ITC_wait,0,undefined,0,0,86,432212,1564805
18,19,male,Belgian,2,57,ITC,win,5,right,12,ITC_collect,841,k,0,0,86,431370,1565647
18,19,male,Belgian,2,57,ITC,win,5,right,12,ITC_outcome,0,undefined,0,0,98,430367,1566650
18,19,male,Belgian,2,58,guess,neutral,10,right,5,guess_start,332,space,0,0,98,430033,1566984
18,19,male,Belgian,2,58,guess,neutral,10,right,5,guess_choice,886,f,0,0,98,429143,1567874
18,19,male,Belgian,2,58,guess,neutral,10,right,5,guess_outcome,0,undefined,0,0,98,427587,1569430
18,19,male,Belgian,2,58,ITC,neutral,10,right,5,ITC_start,104,space,0,0,98,427481,1569536
18,19,male,Belgian,2,58,ITC,neutral,10,right,5,ITC_choice,2703,j,0,0,98,424774,1572243
18,19,male,Belgian,2,58,ITC,neutral,10,right,5,ITC_wait,0,undefined,0,0,98,414767,1582250
18,19,male,Belgian,2,58,ITC,neutral,10,right,5,ITC_collect,364,k,0,0,98,414402,1582615
18,19,male,Belgian,2,58,ITC,neutral,10,right,5,ITC_outcome,0,undefined,0,0,118,413396,1583621
18,19,male,Belgian,2,59,guess,neutral,10,left,3,guess_start,1039,space,0,0,118,412355,1584662
18,19,male,Belgian,2,59,guess,neutral,10,left,3,guess_choice,815,j,0,0,118,411537,1585480
18,19,male,Belgian,2,59,guess,neutral,10,left,3,guess_outcome,0,undefined,0,0,118,409978,1587039
18,19,male,Belgian,2,59,ITC,neutral,10,left,3,ITC_start,155,space,0,0,118,409822,1587195
18,19,male,Belgian,2,59,ITC,neutral,10,left,3,ITC_choice,789,j,0,0,118,409031,1587986
18,19,male,Belgian,2,59,ITC,neutral,10,left,3,ITC_wait,0,undefined,0,0,118,409029,1587988
18,19,male,Belgian,2,59,ITC,neutral,10,left,3,ITC_collect,712,k,0,0,118,408316,1588701
18,19,male,Belgian,2,59,ITC,neutral,10,left,3,ITC_outcome,0,undefined,0,0,121,407311,1589706
18,19,male,Belgian,2,60,guess,loss,10,right,4,guess_start,207,space,0,0,121,407103,1589914
18,19,male,Belgian,2,60,guess,loss,10,right,4,guess_choice,909,j,0,0,121,406190,1590827
18,19,male,Belgian,2,60,guess,loss,10,right,4,guess_outcome,0,undefined,0,0,106,404631,1592386
18,19,male,Belgian,2,60,ITC,loss,10,right,4,ITC_start,2006,space,0,0,106,402623,1594394
18,19,male,Belgian,2,60,ITC,loss,10,right,4,ITC_choice,1092,j,0,0,106,401530,1595487
18,19,male,Belgian,2,60,ITC,loss,10,right,4,ITC_wait,0,undefined,0,0,106,391529,1605488
18,19,male,Belgian,2,60,ITC,loss,10,right,4,ITC_collect,893,k,0,0,106,390634,1606383
18,19,male,Belgian,2,60,ITC,loss,10,right,4,ITC_outcome,0,undefined,0,0,126,389628,1607389
18,19,male,Belgian,2,61,guess,loss,10,right,3,guess_start,1630,space,0,0,126,387996,1609021
18,19,male,Belgian,2,61,guess,loss,10,right,3,guess_choice,722,f,0,0,126,387270,1609747
18,19,male,Belgian,2,61,guess,loss,10,right,3,guess_outcome,0,undefined,0,0,111,385715,1611302
18,19,male,Belgian,2,61,ITC,loss,10,right,3,ITC_start,126,space,0,0,111,385587,1611430
18,19,male,Belgian,2,61,ITC,loss,10,right,3,ITC_choice,631,f,0,0,111,384954,1612063
18,19,male,Belgian,2,61,ITC,loss,10,right,3,ITC_wait,0,undefined,0,0,111,384951,1612066
18,19,male,Belgian,2,61,ITC,loss,10,right,3,ITC_collect,709,k,0,0,111,384241,1612776
18,19,male,Belgian,2,61,ITC,loss,10,right,3,ITC_outcome,0,undefined,0,0,114,383238,1613779
18,19,male,Belgian,2,62,guess,loss,5,left,9,guess_start,2131,space,0,0,114,381104,1615913
18,19,male,Belgian,2,62,guess,loss,5,left,9,guess_choice,378,j,0,0,114,380722,1616295
18,19,male,Belgian,2,62,guess,loss,5,left,9,guess_outcome,0,undefined,0,0,99,379165,1617852
18,19,male,Belgian,2,62,ITC,loss,5,left,9,ITC_start,1181,space,0,0,99,377983,1619034
18,19,male,Belgian,2,62,ITC,loss,5,left,9,ITC_choice,1057,j,0,0,99,376925,1620092
18,19,male,Belgian,2,62,ITC,loss,5,left,9,ITC_wait,0,undefined,0,0,99,376921,1620096
18,19,male,Belgian,2,62,ITC,loss,5,left,9,ITC_collect,681,k,0,0,99,376239,1620778
18,19,male,Belgian,2,62,ITC,loss,5,left,9,ITC_outcome,0,undefined,0,0,108,375235,1621782
18,19,male,Belgian,2,63,guess,win,5,left,6,guess_start,477,space,0,0,108,374756,1622261
18,19,male,Belgian,2,63,guess,win,5,left,6,guess_choice,498,f,0,0,108,374255,1622762
18,19,male,Belgian,2,63,guess,win,5,left,6,guess_outcome,0,undefined,0,0,128,372697,1624320
18,19,male,Belgian,2,63,ITC,win,5,left,6,ITC_start,370,space,0,0,128,372325,1624692
18,19,male,Belgian,2,63,ITC,win,5,left,6,ITC_choice,893,j,0,0,128,371430,1625587
18,19,male,Belgian,2,63,ITC,win,5,left,6,ITC_wait,0,undefined,0,0,128,371428,1625589
18,19,male,Belgian,2,63,ITC,win,5,left,6,ITC_collect,507,k,0,0,128,370919,1626098
18,19,male,Belgian,2,63,ITC,win,5,left,6,ITC_outcome,0,undefined,0,0,134,369915,1627102
18,19,male,Belgian,2,64,guess,neutral,5,left,16,guess_start,446,space,0,0,134,369467,1627550
18,19,male,Belgian,2,64,guess,neutral,5,left,16,guess_choice,1034,f,0,0,134,368431,1628586
18,19,male,Belgian,2,64,guess,neutral,5,left,16,guess_outcome,0,undefined,0,0,134,366876,1630141
18,19,male,Belgian,2,64,ITC,neutral,5,left,16,ITC_start,434,space,0,0,134,366440,1630577
18,19,male,Belgian,2,64,ITC,neutral,5,left,16,ITC_choice,1147,j,0,0,134,365291,1631726
18,19,male,Belgian,2,64,ITC,neutral,5,left,16,ITC_wait,0,undefined,0,0,134,365289,1631728
18,19,male,Belgian,2,64,ITC,neutral,5,left,16,ITC_collect,583,k,0,0,134,364705,1632312
18,19,male,Belgian,2,64,ITC,neutral,5,left,16,ITC_outcome,0,undefined,0,0,150,363699,1633318
18,19,male,Belgian,2,65,guess,neutral,5,right,8,guess_start,130,space,0,0,150,363568,1633449
18,19,male,Belgian,2,65,guess,neutral,5,right,8,guess_choice,943,j,0,0,150,362622,1634395
18,19,male,Belgian,2,65,guess,neutral,5,right,8,guess_outcome,0,undefined,0,0,150,361069,1635948
18,19,male,Belgian,2,65,ITC,neutral,5,right,8,ITC_start,129,space,0,0,150,360938,1636079
18,19,male,Belgian,2,65,ITC,neutral,5,right,8,ITC_choice,771,f,0,0,150,360165,1636852
18,19,male,Belgian,2,65,ITC,neutral,5,right,8,ITC_wait,0,undefined,0,0,150,360162,1636855
18,19,male,Belgian,2,65,ITC,neutral,5,right,8,ITC_collect,518,k,0,0,150,359643,1637374
18,19,male,Belgian,2,65,ITC,neutral,5,right,8,ITC_outcome,0,undefined,0,0,158,358638,1638379
18,19,male,Belgian,2,66,guess,neutral,5,right,14,guess_start,419,space,0,0,158,358215,1638802
18,19,male,Belgian,2,66,guess,neutral,5,right,14,guess_choice,628,f,0,0,158,357585,1639432
18,19,male,Belgian,2,66,guess,neutral,5,right,14,guess_outcome,0,undefined,0,0,158,356030,1640987
18,19,male,Belgian,2,66,ITC,neutral,5,right,14,ITC_start,183,space,0,0,158,355845,1641172
18,19,male,Belgian,2,66,ITC,neutral,5,right,14,ITC_choice,632,f,0,0,158,355212,1641805
18,19,male,Belgian,2,66,ITC,neutral,5,right,14,ITC_wait,0,undefined,0,0,158,355210,1641807
18,19,male,Belgian,2,66,ITC,neutral,5,right,14,ITC_collect,768,k,0,0,158,354440,1642577
18,19,male,Belgian,2,66,ITC,neutral,5,right,14,ITC_outcome,0,undefined,0,0,172,353438,1643579
18,19,male,Belgian,2,67,guess,neutral,10,left,4,guess_start,441,space,0,0,172,352995,1644022
18,19,male,Belgian,2,67,guess,neutral,10,left,4,guess_choice,771,f,0,0,172,352221,1644796
18,19,male,Belgian,2,67,guess,neutral,10,left,4,guess_outcome,0,undefined,0,0,172,350665,1646352
18,19,male,Belgian,2,67,ITC,neutral,10,left,4,ITC_start,89,space,0,0,172,350574,1646443
18,19,male,Belgian,2,67,ITC,neutral,10,left,4,ITC_choice,666,j,0,0,172,349907,1647110
18,19,male,Belgian,2,67,ITC,neutral,10,left,4,ITC_wait,0,undefined,0,0,172,349903,1647114
18,19,male,Belgian,2,67,ITC,neutral,10,left,4,ITC_collect,541,k,0,0,172,349361,1647656
18,19,male,Belgian,2,67,ITC,neutral,10,left,4,ITC_outcome,0,undefined,0,0,176,348358,1648659
18,19,male,Belgian,2,68,guess,loss,5,left,16,guess_start,392,space,0,0,176,347964,1649053
18,19,male,Belgian,2,68,guess,loss,5,left,16,guess_choice,589,f,0,0,176,347372,1649645
18,19,male,Belgian,2,68,guess,loss,5,left,16,guess_outcome,0,undefined,0,0,161,345819,1651198
18,19,male,Belgian,2,68,ITC,loss,5,left,16,ITC_start,368,space,0,0,161,345449,1651568
18,19,male,Belgian,2,68,ITC,loss,5,left,16,ITC_choice,595,j,0,0,161,344852,1652165
18,19,male,Belgian,2,68,ITC,loss,5,left,16,ITC_wait,0,undefined,0,0,161,344849,1652168
18,19,male,Belgian,2,68,ITC,loss,5,left,16,ITC_collect,411,k,0,0,161,344437,1652580
18,19,male,Belgian,2,68,ITC,loss,5,left,16,ITC_outcome,0,undefined,0,0,177,343434,1653583
18,19,male,Belgian,2,69,guess,loss,5,right,2,guess_start,260,space,0,0,177,343172,1653845
18,19,male,Belgian,2,69,guess,loss,5,right,2,guess_choice,810,j,0,0,177,342358,1654659
18,19,male,Belgian,2,69,guess,loss,5,right,2,guess_outcome,0,undefined,0,0,162,340800,1656217
18,19,male,Belgian,2,69,ITC,loss,5,right,2,ITC_start,43,space,0,0,162,340755,1656262
18,19,male,Belgian,2,69,ITC,loss,5,right,2,ITC_choice,1090,f,0,0,162,339664,1657353
18,19,male,Belgian,2,69,ITC,loss,5,right,2,ITC_wait,0,undefined,0,0,162,339661,1657356
18,19,male,Belgian,2,69,ITC,loss,5,right,2,ITC_collect,572,k,0,0,162,339087,1657930
18,19,male,Belgian,2,69,ITC,loss,5,right,2,ITC_outcome,0,undefined,0,0,164,338083,1658934
18,19,male,Belgian,2,70,guess,neutral,5,left,3,guess_start,69,space,0,0,164,338011,1659006
18,19,male,Belgian,2,70,guess,neutral,5,left,3,guess_choice,673,j,0,0,164,337335,1659682
18,19,male,Belgian,2,70,guess,neutral,5,left,3,guess_outcome,0,undefined,0,0,164,335781,1661236
18,19,male,Belgian,2,70,ITC,neutral,5,left,3,ITC_start,53,space,0,0,164,335727,1661290
18,19,male,Belgian,2,70,ITC,neutral,5,left,3,ITC_choice,1170,j,0,0,164,334555,1662462
18,19,male,Belgian,2,70,ITC,neutral,5,left,3,ITC_wait,0,undefined,0,0,164,334553,1662464
18,19,male,Belgian,2,70,ITC,neutral,5,left,3,ITC_collect,777,k,0,0,164,333775,1663242
18,19,male,Belgian,2,70,ITC,neutral,5,left,3,ITC_outcome,0,undefined,0,0,167,332768,1664249
18,19,male,Belgian,2,71,guess,win,10,right,1,guess_start,351,space,0,0,167,332414,1664603
18,19,male,Belgian,2,71,guess,win,10,right,1,guess_choice,563,f,0,0,167,331848,1665169
18,19,male,Belgian,2,71,guess,win,10,right,1,guess_outcome,0,undefined,0,0,187,330290,1666727
18,19,male,Belgian,2,71,ITC,win,10,right,1,ITC_start,309,space,0,0,187,329979,1667038
18,19,male,Belgian,2,71,ITC,win,10,right,1,ITC_choice,1570,j,0,0,187,328408,1668609
18,19,male,Belgian,2,71,ITC,win,10,right,1,ITC_wait,0,undefined,0,0,187,318401,1678616
18,19,male,Belgian,2,71,ITC,win,10,right,1,ITC_collect,986,k,0,0,187,317413,1679604
18,19,male,Belgian,2,71,ITC,win,10,right,1,ITC_outcome,0,undefined,0,0,207,316406,1680611
18,19,male,Belgian,2,72,guess,win,10,left,7,guess_start,378,space,0,0,207,316026,1680991
18,19,male,Belgian,2,72,guess,win,10,left,7,guess_choice,1132,j,0,0,207,314891,1682126
18,19,male,Belgian,2,72,guess,win,10,left,7,guess_outcome,0,undefined,0,0,227,313333,1683684
18,19,male,Belgian,2,72,ITC,win,10,left,7,ITC_start,120,space,0,0,227,313211,1683806
18,19,male,Belgian,2,72,ITC,win,10,left,7,ITC_choice,713,j,0,0,227,312497,1684520
18,19,male,Belgian,2,72,ITC,win,10,left,7,ITC_wait,0,undefined,0,0,227,312494,1684523
18,19,male,Belgian,2,72,ITC,win,10,left,7,ITC_collect,539,k,0,0,227,311955,1685062
18,19,male,Belgian,2,72,ITC,win,10,left,7,ITC_outcome,0,undefined,0,0,234,310948,1686069
18,19,male,Belgian,2,73,guess,win,5,right,12,guess_start,28,space,0,0,234,310918,1686099
18,19,male,Belgian,2,73,guess,win,5,right,12,guess_choice,641,f,0,0,234,310274,1686743
18,19,male,Belgian,2,73,guess,win,5,right,12,guess_outcome,0,undefined,0,0,254,308717,1688300
18,19,male,Belgian,2,73,ITC,win,5,right,12,ITC_start,310,space,0,0,254,308405,1688612
18,19,male,Belgian,2,73,ITC,win,5,right,12,ITC_choice,769,f,0,0,254,307634,1689383
18,19,male,Belgian,2,73,ITC,win,5,right,12,ITC_wait,0,undefined,0,0,254,307631,1689386
18,19,male,Belgian,2,73,ITC,win,5,right,12,ITC_collect,559,k,0,0,254,307071,1689946
18,19,male,Belgian,2,73,ITC,win,5,right,12,ITC_outcome,0,undefined,0,0,266,306068,1690949
18,19,male,Belgian,2,74,guess,win,5,left,13,guess_start,112,space,0,0,266,305954,1691063
18,19,male,Belgian,2,74,guess,win,5,left,13,guess_choice,550,j,0,0,266,305402,1691615
18,19,male,Belgian,2,74,guess,win,5,left,13,guess_outcome,0,undefined,0,0,286,303848,1693169
18,19,male,Belgian,2,74,ITC,win,5,left,13,ITC_start,242,space,0,0,286,303605,1693412
18,19,male,Belgian,2,74,ITC,win,5,left,13,ITC_choice,564,j,0,0,286,303039,1693978
18,19,male,Belgian,2,74,ITC,win,5,left,13,ITC_wait,0,undefined,0,0,286,303036,1693981
18,19,male,Belgian,2,74,ITC,win,5,left,13,ITC_collect,477,k,0,0,286,302558,1694459
18,19,male,Belgian,2,74,ITC,win,5,left,13,ITC_outcome,0,undefined,0,0,299,301555,1695462
18,19,male,Belgian,2,75,guess,win,5,right,16,guess_start,152,space,0,0,299,301401,1695616
18,19,male,Belgian,2,75,guess,win,5,right,16,guess_choice,528,j,0,0,299,300869,1696148
18,19,male,Belgian,2,75,guess,win,5,right,16,guess_outcome,0,undefined,0,0,319,299311,1697706
18,19,male,Belgian,2,75,ITC,win,5,right,16,ITC_start,218,space,0,0,319,299091,1697926
18,19,male,Belgian,2,75,ITC,win,5,right,16,ITC_choice,698,f,0,0,319,298391,1698626
18,19,male,Belgian,2,75,ITC,win,5,right,16,ITC_wait,0,undefined,0,0,319,298388,1698629
18,19,male,Belgian,2,75,ITC,win,5,right,16,ITC_collect,442,k,0,0,319,297945,1699072
18,19,male,Belgian,2,75,ITC,win,5,right,16,ITC_outcome,0,undefined,0,0,335,296942,1700075
18,19,male,Belgian,2,76,guess,loss,5,right,10,guess_start,205,space,0,0,335,296735,1700282
18,19,male,Belgian,2,76,guess,loss,5,right,10,guess_choice,328,f,0,0,335,296403,1700614
18,19,male,Belgian,2,76,guess,loss,5,right,10,guess_outcome,0,undefined,0,0,320,294851,1702166
18,19,male,Belgian,2,76,ITC,loss,5,right,10,ITC_start,49,space,0,0,320,294800,1702217
18,19,male,Belgian,2,76,ITC,loss,5,right,10,ITC_choice,517,f,0,0,320,294281,1702736
18,19,male,Belgian,2,76,ITC,loss,5,right,10,ITC_wait,0,undefined,0,0,320,294278,1702739
18,19,male,Belgian,2,76,ITC,loss,5,right,10,ITC_collect,452,k,0,0,320,293825,1703192
18,19,male,Belgian,2,76,ITC,loss,5,right,10,ITC_outcome,0,undefined,0,0,330,292818,1704199
18,19,male,Belgian,2,77,guess,neutral,5,right,12,guess_start,43,space,0,0,330,292773,1704244
18,19,male,Belgian,2,77,guess,neutral,5,right,12,guess_choice,634,j,0,0,330,292135,1704882
18,19,male,Belgian,2,77,guess,neutral,5,right,12,guess_outcome,0,undefined,0,0,330,290576,1706441
18,19,male,Belgian,2,77,ITC,neutral,5,right,12,ITC_start,9,space,0,0,330,290566,1706451
18,19,male,Belgian,2,77,ITC,neutral,5,right,12,ITC_choice,609,f,0,0,330,289956,1707061
18,19,male,Belgian,2,77,ITC,neutral,5,right,12,ITC_wait,0,undefined,0,0,330,289949,1707068
18,19,male,Belgian,2,77,ITC,neutral,5,right,12,ITC_collect,435,k,0,0,330,289512,1707505
18,19,male,Belgian,2,77,ITC,neutral,5,right,12,ITC_outcome,0,undefined,0,0,342,288509,1708508
18,19,male,Belgian,2,78,guess,loss,5,left,16,guess_start,185,space,0,0,342,288322,1708695
18,19,male,Belgian,2,78,guess,loss,5,left,16,guess_choice,732,f,0,0,342,287587,1709430
18,19,male,Belgian,2,78,guess,loss,5,left,16,guess_outcome,0,undefined,0,0,327,286029,1710988
18,19,male,Belgian,2,78,ITC,loss,5,left,16,ITC_start,7,space,0,0,327,286020,1710997
18,19,male,Belgian,2,78,ITC,loss,5,left,16,ITC_wait,0,undefined,0,0,327,285362,1711655
18,19,male,Belgian,2,78,ITC,loss,5,left,16,ITC_choice,653,j,0,0,327,285365,1711652
18,19,male,Belgian,2,78,ITC,loss,5,left,16,ITC_collect,517,k,0,0,327,284844,1712173
18,19,male,Belgian,2,78,ITC,loss,5,left,16,ITC_outcome,0,undefined,0,0,343,283838,1713179
18,19,male,Belgian,2,79,guess,neutral,10,left,5,guess_start,59,space,0,0,343,283776,1713241
18,19,male,Belgian,2,79,guess,neutral,10,left,5,guess_choice,892,f,0,0,343,282881,1714136
18,19,male,Belgian,2,79,guess,neutral,10,left,5,guess_outcome,0,undefined,0,0,343,281326,1715691
18,19,male,Belgian,2,79,ITC,neutral,10,left,5,ITC_start,53,space,0,0,343,281272,1715745
18,19,male,Belgian,2,79,ITC,neutral,10,left,5,ITC_choice,1066,j,0,0,343,280204,1716813
18,19,male,Belgian,2,79,ITC,neutral,10,left,5,ITC_wait,0,undefined,0,0,343,280201,1716816
18,19,male,Belgian,2,79,ITC,neutral,10,left,5,ITC_collect,418,k,0,0,343,279781,1717236
18,19,male,Belgian,2,79,ITC,neutral,10,left,5,ITC_outcome,0,undefined,0,0,348,278776,1718241
18,19,male,Belgian,2,80,guess,win,5,left,2,guess_start,206,space,0,0,348,278568,1718449
18,19,male,Belgian,2,80,guess,win,5,left,2,guess_choice,443,j,0,0,348,278122,1718895
18,19,male,Belgian,2,80,guess,win,5,left,2,guess_outcome,0,undefined,0,0,368,276569,1720448
18,19,male,Belgian,2,80,ITC,win,5,left,2,ITC_start,328,space,0,0,368,276239,1720778
18,19,male,Belgian,2,80,ITC,win,5,left,2,ITC_choice,645,j,0,0,368,275592,1721425
18,19,male,Belgian,2,80,ITC,win,5,left,2,ITC_wait,0,undefined,0,0,368,275589,1721428
18,19,male,Belgian,2,80,ITC,win,5,left,2,ITC_collect,503,k,0,0,368,275085,1721932
18,19,male,Belgian,2,80,ITC,win,5,left,2,ITC_outcome,0,undefined,0,0,370,274082,1722935
18,19,male,Belgian,2,81,guess,neutral,5,left,13,guess_start,260,space,0,0,370,273820,1723197
18,19,male,Belgian,2,81,guess,neutral,5,left,13,guess_choice,562,j,0,0,370,273255,1723762
18,19,male,Belgian,2,81,guess,neutral,5,left,13,guess_outcome,0,undefined,0,0,370,271700,1725317
18,19,male,Belgian,2,81,ITC,neutral,5,left,13,ITC_start,18,space,0,0,370,271680,1725337
18,19,male,Belgian,2,81,ITC,neutral,5,left,13,ITC_choice,524,j,0,0,370,271155,1725862
18,19,male,Belgian,2,81,ITC,neutral,5,left,13,ITC_wait,0,undefined,0,0,370,271152,1725865
18,19,male,Belgian,2,81,ITC,neutral,5,left,13,ITC_collect,392,k,0,0,370,270759,1726258
18,19,male,Belgian,2,81,ITC,neutral,5,left,13,ITC_outcome,0,undefined,0,0,383,269752,1727265
18,19,male,Belgian,2,82,guess,neutral,5,left,14,guess_start,218,space,0,0,383,269533,1727484
18,19,male,Belgian,2,82,guess,neutral,5,left,14,guess_choice,512,j,0,0,383,269018,1727999
18,19,male,Belgian,2,82,guess,neutral,5,left,14,guess_outcome,0,undefined,0,0,383,267465,1729552
18,19,male,Belgian,2,82,ITC,neutral,5,left,14,ITC_start,174,space,0,0,383,267289,1729728
18,19,male,Belgian,2,82,ITC,neutral,5,left,14,ITC_choice,654,j,0,0,383,266634,1730383
18,19,male,Belgian,2,82,ITC,neutral,5,left,14,ITC_wait,0,undefined,0,0,383,266631,1730386
18,19,male,Belgian,2,82,ITC,neutral,5,left,14,ITC_collect,460,k,0,0,383,266171,1730846
18,19,male,Belgian,2,82,ITC,neutral,5,left,14,ITC_outcome,0,undefined,0,0,397,265168,1731849
18,19,male,Belgian,2,83,guess,win,5,right,3,guess_start,246,space,0,0,397,264921,1732096
18,19,male,Belgian,2,83,guess,win,5,right,3,guess_choice,594,j,0,0,397,264324,1732693
18,19,male,Belgian,2,83,guess,win,5,right,3,guess_outcome,0,undefined,0,0,417,262767,1734250
18,19,male,Belgian,2,83,ITC,win,5,right,3,ITC_start,80,space,0,0,417,262686,1734331
18,19,male,Belgian,2,83,ITC,win,5,right,3,ITC_choice,701,j,0,0,417,261984,1735033
18,19,male,Belgian,2,83,ITC,win,5,right,3,ITC_wait,0,undefined,0,0,417,256981,1740036
18,19,male,Belgian,2,83,ITC,win,5,right,3,ITC_collect,524,k,0,0,417,256455,1740562
18,19,male,Belgian,2,83,ITC,win,5,right,3,ITC_outcome,0,undefined,0,0,437,255450,1741567
18,19,male,Belgian,2,84,guess,loss,10,left,8,guess_start,298,space,0,0,437,255151,1741866
18,19,male,Belgian,2,84,guess,loss,10,left,8,guess_choice,475,j,0,0,437,254674,1742343
18,19,male,Belgian,2,84,guess,loss,10,left,8,guess_outcome,0,undefined,0,0,422,253121,1743896
18,19,male,Belgian,2,84,ITC,loss,10,left,8,ITC_start,299,space,0,0,422,252820,1744197
18,19,male,Belgian,2,84,ITC,loss,10,left,8,ITC_choice,647,j,0,0,422,252172,1744845
18,19,male,Belgian,2,84,ITC,loss,10,left,8,ITC_wait,0,undefined,0,0,422,252170,1744847
18,19,male,Belgian,2,84,ITC,loss,10,left,8,ITC_collect,362,k,0,0,422,251806,1745211
18,19,male,Belgian,2,84,ITC,loss,10,left,8,ITC_outcome,0,undefined,0,0,430,250801,1746216
18,19,male,Belgian,2,85,guess,win,10,right,8,guess_start,211,space,0,0,430,250588,1746429
18,19,male,Belgian,2,85,guess,win,10,right,8,guess_choice,345,f,0,0,430,250241,1746776
18,19,male,Belgian,2,85,guess,win,10,right,8,guess_outcome,0,undefined,0,0,450,248684,1748333
18,19,male,Belgian,2,85,ITC,win,10,right,8,ITC_start,238,space,0,0,450,248444,1748573
18,19,male,Belgian,2,85,ITC,win,10,right,8,ITC_choice,1118,j,0,0,450,247324,1749693
18,19,male,Belgian,2,85,ITC,win,10,right,8,ITC_wait,0,undefined,0,0,450,237321,1759696
18,19,male,Belgian,2,85,ITC,win,10,right,8,ITC_collect,542,k,0,0,450,236778,1760239
18,19,male,Belgian,2,85,ITC,win,10,right,8,ITC_outcome,0,undefined,0,0,470,235773,1761244
18,19,male,Belgian,2,86,guess,loss,5,left,4,guess_start,358,space,0,0,470,235413,1761604
18,19,male,Belgian,2,86,guess,loss,5,left,4,guess_choice,411,f,0,0,470,234999,1762018
18,19,male,Belgian,2,86,guess,loss,5,left,4,guess_outcome,0,undefined,0,0,455,233447,1763570
18,19,male,Belgian,2,86,ITC,loss,5,left,4,ITC_start,197,space,0,0,455,233248,1763769
18,19,male,Belgian,2,86,ITC,loss,5,left,4,ITC_choice,513,j,0,0,455,232733,1764284
18,19,male,Belgian,2,86,ITC,loss,5,left,4,ITC_wait,0,undefined,0,0,455,232731,1764286
18,19,male,Belgian,2,86,ITC,loss,5,left,4,ITC_collect,321,k,0,0,455,232408,1764609
18,19,male,Belgian,2,86,ITC,loss,5,left,4,ITC_outcome,0,undefined,0,0,459,231402,1765615
18,19,male,Belgian,2,87,guess,win,10,left,1,guess_start,1147,space,0,0,459,230253,1766764
18,19,male,Belgian,2,87,guess,win,10,left,1,guess_choice,359,j,0,0,459,229891,1767126
18,19,male,Belgian,2,87,guess,win,10,left,1,guess_outcome,0,undefined,0,0,479,228335,1768682
18,19,male,Belgian,2,87,ITC,win,10,left,1,ITC_start,80,space,0,0,479,228254,1768763
18,19,male,Belgian,2,87,ITC,win,10,left,1,ITC_choice,543,j,0,0,479,227709,1769308
18,19,male,Belgian,2,87,ITC,win,10,left,1,ITC_wait,0,undefined,0,0,479,227707,1769310
18,19,male,Belgian,2,87,ITC,win,10,left,1,ITC_collect,508,k,0,0,479,227198,1769819
18,19,male,Belgian,2,87,ITC,win,10,left,1,ITC_outcome,0,undefined,0,0,480,226191,1770826
18,19,male,Belgian,2,88,guess,neutral,5,left,5,guess_start,55,space,0,0,480,226134,1770883
18,19,male,Belgian,2,88,guess,neutral,5,left,5,guess_choice,841,f,0,0,480,225290,1771727
18,19,male,Belgian,2,88,guess,neutral,5,left,5,guess_outcome,0,undefined,0,0,480,223737,1773280
18,19,male,Belgian,2,88,ITC,neutral,5,left,5,ITC_start,141,space,0,0,480,223594,1773423
18,19,male,Belgian,2,88,ITC,neutral,5,left,5,ITC_choice,484,j,0,0,480,223108,1773909
18,19,male,Belgian,2,88,ITC,neutral,5,left,5,ITC_wait,0,undefined,0,0,480,223105,1773912
18,19,male,Belgian,2,88,ITC,neutral,5,left,5,ITC_collect,358,k,0,0,480,222746,1774271
18,19,male,Belgian,2,88,ITC,neutral,5,left,5,ITC_outcome,0,undefined,0,0,485,221743,1775274
18,19,male,Belgian,2,89,guess,win,10,left,5,guess_start,254,space,0,0,485,221487,1775530
18,19,male,Belgian,2,89,guess,win,10,left,5,guess_choice,770,j,0,0,485,220714,1776303
18,19,male,Belgian,2,89,guess,win,10,left,5,guess_outcome,0,undefined,0,0,505,219156,1777861
18,19,male,Belgian,2,89,ITC,win,10,left,5,ITC_start,127,space,0,0,505,219027,1777990
18,19,male,Belgian,2,89,ITC,win,10,left,5,ITC_choice,501,j,0,0,505,218525,1778492
18,19,male,Belgian,2,89,ITC,win,10,left,5,ITC_wait,0,undefined,0,0,505,218523,1778494
18,19,male,Belgian,2,89,ITC,win,10,left,5,ITC_collect,309,k,0,0,505,218212,1778805
18,19,male,Belgian,2,89,ITC,win,10,left,5,ITC_outcome,0,undefined,0,0,510,217209,1779808
18,19,male,Belgian,2,90,guess,neutral,10,left,8,guess_start,90,space,0,0,510,217117,1779900
18,19,male,Belgian,2,90,guess,neutral,10,left,8,guess_choice,891,f,0,0,510,216222,1780795
18,19,male,Belgian,2,90,guess,neutral,10,left,8,guess_outcome,0,undefined,0,0,510,214669,1782348
18,19,male,Belgian,2,90,ITC,neutral,10,left,8,ITC_start,303,space,0,0,510,214364,1782653
18,19,male,Belgian,2,90,ITC,neutral,10,left,8,ITC_choice,409,j,0,0,510,213953,1783064
18,19,male,Belgian,2,90,ITC,neutral,10,left,8,ITC_wait,0,undefined,0,0,510,213950,1783067
18,19,male,Belgian,2,90,ITC,neutral,10,left,8,ITC_collect,478,k,0,0,510,213470,1783547
18,19,male,Belgian,2,90,ITC,neutral,10,left,8,ITC_outcome,0,undefined,0,0,518,212466,1784551
18,19,male,Belgian,2,91,guess,win,5,left,14,guess_start,36,space,0,0,518,212428,1784589
18,19,male,Belgian,2,91,guess,win,5,left,14,guess_choice,463,j,0,0,518,211961,1785056
18,19,male,Belgian,2,91,guess,win,5,left,14,guess_outcome,0,undefined,0,0,538,210403,1786614
18,19,male,Belgian,2,91,ITC,win,5,left,14,ITC_start,270,space,0,0,538,210131,1786886
18,19,male,Belgian,2,91,ITC,win,5,left,14,ITC_choice,589,j,0,0,538,209541,1787476
18,19,male,Belgian,2,91,ITC,win,5,left,14,ITC_wait,0,undefined,0,0,538,209538,1787479
18,19,male,Belgian,2,91,ITC,win,5,left,14,ITC_collect,369,k,0,0,538,209167,1787850
18,19,male,Belgian,2,91,ITC,win,5,left,14,ITC_outcome,0,undefined,0,0,552,208164,1788853
18,19,male,Belgian,2,92,guess,win,10,right,4,guess_start,352,space,0,0,552,207809,1789208
18,19,male,Belgian,2,92,guess,win,10,right,4,guess_choice,322,j,0,0,552,207484,1789533
18,19,male,Belgian,2,92,guess,win,10,right,4,guess_outcome,0,undefined,0,0,572,205927,1791090
18,19,male,Belgian,2,92,ITC,win,10,right,4,ITC_start,396,space,0,0,572,205529,1791488
18,19,male,Belgian,2,92,ITC,win,10,right,4,ITC_choice,677,f,0,0,572,204851,1792166
18,19,male,Belgian,2,92,ITC,win,10,right,4,ITC_wait,0,undefined,0,0,572,204848,1792169
18,19,male,Belgian,2,92,ITC,win,10,right,4,ITC_collect,807,k,0,0,572,204039,1792978
18,19,male,Belgian,2,92,ITC,win,10,right,4,ITC_outcome,0,undefined,0,0,576,203035,1793982
18,19,male,Belgian,2,93,guess,loss,5,left,9,guess_start,171,space,0,0,576,202862,1794155
18,19,male,Belgian,2,93,guess,loss,5,left,9,guess_choice,492,j,0,0,576,202367,1794650
18,19,male,Belgian,2,93,guess,loss,5,left,9,guess_outcome,0,undefined,0,0,561,200810,1796207
18,19,male,Belgian,2,93,ITC,loss,5,left,9,ITC_start,30,space,0,0,561,200778,1796239
18,19,male,Belgian,2,93,ITC,loss,5,left,9,ITC_wait,0,undefined,0,0,561,200087,1796930
18,19,male,Belgian,2,93,ITC,loss,5,left,9,ITC_choice,686,j,0,0,561,200090,1796927
18,19,male,Belgian,2,93,ITC,loss,5,left,9,ITC_collect,281,k,0,0,561,199805,1797212
18,19,male,Belgian,2,93,ITC,loss,5,left,9,ITC_outcome,0,undefined,0,0,570,198801,1798216
18,19,male,Belgian,2,94,guess,neutral,5,left,15,guess_start,237,space,0,0,570,198562,1798455
18,19,male,Belgian,2,94,guess,neutral,5,left,15,guess_choice,434,f,0,0,570,198125,1798892
18,19,male,Belgian,2,94,guess,neutral,5,left,15,guess_outcome,0,undefined,0,0,570,196567,1800450
18,19,male,Belgian,2,94,ITC,neutral,5,left,15,ITC_start,236,space,0,0,570,196329,1800688
18,19,male,Belgian,2,94,ITC,neutral,5,left,15,ITC_choice,518,j,0,0,570,195809,1801208
18,19,male,Belgian,2,94,ITC,neutral,5,left,15,ITC_wait,0,undefined,0,0,570,195806,1801211
18,19,male,Belgian,2,94,ITC,neutral,5,left,15,ITC_collect,352,k,0,0,570,195453,1801564
18,19,male,Belgian,2,94,ITC,neutral,5,left,15,ITC_outcome,0,undefined,0,0,585,194446,1802571
18,19,male,Belgian,2,95,guess,loss,5,left,5,guess_start,563,space,0,0,585,193882,1803135
18,19,male,Belgian,2,95,guess,loss,5,left,5,guess_choice,13,j,0,0,585,193866,1803151
18,19,male,Belgian,2,95,guess,loss,5,left,5,guess_outcome,0,undefined,0,0,570,192313,1804704
18,19,male,Belgian,2,95,ITC,loss,5,left,5,ITC_start,153,space,0,0,570,192159,1804858
18,19,male,Belgian,2,95,ITC,loss,5,left,5,ITC_choice,538,j,0,0,570,191619,1805398
18,19,male,Belgian,2,95,ITC,loss,5,left,5,ITC_wait,0,undefined,0,0,570,191616,1805401
18,19,male,Belgian,2,95,ITC,loss,5,left,5,ITC_collect,208,k,0,0,570,191407,1805610
18,19,male,Belgian,2,95,ITC,loss,5,left,5,ITC_outcome,0,undefined,0,0,575,190400,1806617
18,19,male,Belgian,2,96,guess,win,10,left,7,guess_start,224,space,0,0,575,190173,1806844
18,19,male,Belgian,2,96,guess,win,10,left,7,guess_choice,593,j,0,0,575,189577,1807440
18,19,male,Belgian,2,96,guess,win,10,left,7,guess_outcome,0,undefined,0,0,595,188019,1808998
18,19,male,Belgian,2,96,ITC,win,10,left,7,ITC_start,197,space,0,0,595,187820,1809197
18,19,male,Belgian,2,96,ITC,win,10,left,7,ITC_choice,524,j,0,0,595,187294,1809723
18,19,male,Belgian,2,96,ITC,win,10,left,7,ITC_wait,0,undefined,0,0,595,187292,1809725
18,19,male,Belgian,2,96,ITC,win,10,left,7,ITC_collect,320,k,0,0,595,186971,1810046
18,19,male,Belgian,2,96,ITC,win,10,left,7,ITC_outcome,0,undefined,0,0,602,185966,1811051
18,19,male,Belgian,2,97,guess,loss,5,left,11,guess_start,411,space,0,0,602,185553,1811464
18,19,male,Belgian,2,97,guess,loss,5,left,11,guess_choice,408,j,0,0,602,185142,1811875
18,19,male,Belgian,2,97,guess,loss,5,left,11,guess_outcome,0,undefined,0,0,587,183585,1813432
18,19,male,Belgian,2,97,ITC,loss,5,left,11,ITC_start,345,space,0,0,587,183238,1813779
18,19,male,Belgian,2,97,ITC,loss,5,left,11,ITC_choice,240,j,0,0,587,182996,1814021
18,19,male,Belgian,2,97,ITC,loss,5,left,11,ITC_wait,0,undefined,0,0,587,182993,1814024
18,19,male,Belgian,2,97,ITC,loss,5,left,11,ITC_collect,646,k,0,0,587,182346,1814671
18,19,male,Belgian,2,97,ITC,loss,5,left,11,ITC_outcome,0,undefined,0,0,598,181340,1815677
18,19,male,Belgian,2,98,guess,loss,10,left,7,guess_start,124,space,0,0,598,181214,1815803
18,19,male,Belgian,2,98,guess,loss,10,left,7,guess_choice,468,f,0,0,598,180743,1816274
18,19,male,Belgian,2,98,guess,loss,10,left,7,guess_outcome,0,undefined,0,0,583,179191,1817826
18,19,male,Belgian,2,98,ITC,loss,10,left,7,ITC_start,78,space,0,0,583,179110,1817907
18,19,male,Belgian,2,98,ITC,loss,10,left,7,ITC_choice,490,j,0,0,583,178618,1818399
18,19,male,Belgian,2,98,ITC,loss,10,left,7,ITC_wait,0,undefined,0,0,583,178615,1818402
18,19,male,Belgian,2,98,ITC,loss,10,left,7,ITC_collect,219,k,0,0,583,178394,1818623
18,19,male,Belgian,2,98,ITC,loss,10,left,7,ITC_outcome,0,undefined,0,0,590,177389,1819628
18,19,male,Belgian,2,99,guess,win,5,right,11,guess_start,3,space,0,0,590,177383,1819634
18,19,male,Belgian,2,99,guess,win,5,right,11,guess_choice,343,j,0,0,590,177037,1819980
18,19,male,Belgian,2,99,guess,win,5,right,11,guess_outcome,0,undefined,0,0,610,175480,1821537
18,19,male,Belgian,2,99,ITC,win,5,right,11,ITC_start,366,space,0,0,610,175113,1821904
18,19,male,Belgian,2,99,ITC,win,5,right,11,ITC_choice,586,f,0,0,610,174525,1822492
18,19,male,Belgian,2,99,ITC,win,5,right,11,ITC_wait,0,undefined,0,0,610,174522,1822495
18,19,male,Belgian,2,99,ITC,win,5,right,11,ITC_collect,699,k,0,0,610,173822,1823195
18,19,male,Belgian,2,99,ITC,win,5,right,11,ITC_outcome,0,undefined,0,0,621,172819,1824198
18,19,male,Belgian,2,100,guess,win,5,right,1,guess_start,258,space,0,0,621,172559,1824458
18,19,male,Belgian,2,100,guess,win,5,right,1,guess_choice,364,j,0,0,621,172191,1824826
18,19,male,Belgian,2,100,guess,win,5,right,1,guess_outcome,0,undefined,0,0,641,170635,1826382
18,19,male,Belgian,2,100,ITC,win,5,right,1,ITC_start,602,space,0,0,641,170031,1826986
18,19,male,Belgian,2,100,ITC,win,5,right,1,ITC_choice,755,f,0,0,641,169275,1827742
18,19,male,Belgian,2,100,ITC,win,5,right,1,ITC_wait,0,undefined,0,0,641,169272,1827745
18,19,male,Belgian,2,100,ITC,win,5,right,1,ITC_collect,808,k,0,0,641,168462,1828555
18,19,male,Belgian,2,100,ITC,win,5,right,1,ITC_outcome,0,undefined,0,0,642,167459,1829558
18,19,male,Belgian,2,101,guess,win,5,left,15,guess_start,186,space,0,0,642,167272,1829745
18,19,male,Belgian,2,101,guess,win,5,left,15,guess_choice,330,j,0,0,642,166939,1830078
18,19,male,Belgian,2,101,guess,win,5,left,15,guess_outcome,0,undefined,0,0,662,165379,1831638
18,19,male,Belgian,2,101,ITC,win,5,left,15,ITC_start,203,space,0,0,662,165174,1831843
18,19,male,Belgian,2,101,ITC,win,5,left,15,ITC_choice,764,j,0,0,662,164406,1832611
18,19,male,Belgian,2,101,ITC,win,5,left,15,ITC_wait,0,undefined,0,0,662,164403,1832614
18,19,male,Belgian,2,101,ITC,win,5,left,15,ITC_collect,282,k,0,0,662,164120,1832897
18,19,male,Belgian,2,101,ITC,win,5,left,15,ITC_outcome,0,undefined,0,0,677,163114,1833903
18,19,male,Belgian,2,102,guess,loss,5,left,3,guess_start,410,space,0,0,677,162701,1834316
18,19,male,Belgian,2,102,guess,loss,5,left,3,guess_choice,255,j,0,0,677,162442,1834575
18,19,male,Belgian,2,102,guess,loss,5,left,3,guess_outcome,0,undefined,0,0,662,160883,1836134
18,19,male,Belgian,2,102,ITC,loss,5,left,3,ITC_start,160,space,0,0,662,160720,1836297
18,19,male,Belgian,2,102,ITC,loss,5,left,3,ITC_choice,773,j,0,0,662,159943,1837074
18,19,male,Belgian,2,102,ITC,loss,5,left,3,ITC_wait,0,undefined,0,0,662,159940,1837077
18,19,male,Belgian,2,102,ITC,loss,5,left,3,ITC_collect,265,k,0,0,662,159673,1837344
18,19,male,Belgian,2,102,ITC,loss,5,left,3,ITC_outcome,0,undefined,0,0,665,158666,1838351
18,19,male,Belgian,2,103,guess,loss,10,right,5,guess_start,138,space,0,0,665,158526,1838491
18,19,male,Belgian,2,103,guess,loss,10,right,5,guess_choice,255,f,0,0,665,158267,1838750
18,19,male,Belgian,2,103,guess,loss,10,right,5,guess_outcome,0,undefined,0,0,650,156706,1840311
18,19,male,Belgian,2,103,ITC,loss,10,right,5,ITC_start,35,space,0,0,650,156668,1840349
18,19,male,Belgian,2,103,ITC,loss,10,right,5,ITC_choice,762,j,0,0,650,155903,1841114
18,19,male,Belgian,2,103,ITC,loss,10,right,5,ITC_wait,0,undefined,0,0,650,145885,1851132
18,19,male,Belgian,2,103,ITC,loss,10,right,5,ITC_collect,600,k,0,0,650,145282,1851735
18,19,male,Belgian,2,103,ITC,loss,10,right,5,ITC_outcome,0,undefined,0,0,670,144275,1852742
18,19,male,Belgian,2,104,guess,neutral,5,right,6,guess_start,472,space,0,0,670,143800,1853217
18,19,male,Belgian,2,104,guess,neutral,5,right,6,guess_choice,985,f,0,0,670,142812,1854205
18,19,male,Belgian,2,104,guess,neutral,5,right,6,guess_outcome,0,undefined,0,0,670,141256,1855761
18,19,male,Belgian,2,104,ITC,neutral,5,right,6,ITC_start,188,space,0,0,670,141066,1855951
18,19,male,Belgian,2,104,ITC,neutral,5,right,6,ITC_choice,785,f,0,0,670,140278,1856739
18,19,male,Belgian,2,104,ITC,neutral,5,right,6,ITC_wait,0,undefined,0,0,670,140275,1856742
18,19,male,Belgian,2,104,ITC,neutral,5,right,6,ITC_collect,658,k,0,0,670,139616,1857401
18,19,male,Belgian,2,104,ITC,neutral,5,right,6,ITC_outcome,0,undefined,0,0,676,138609,1858408
18,19,male,Belgian,2,105,guess,win,5,right,6,guess_start,205,space,0,0,676,138402,1858615
18,19,male,Belgian,2,105,guess,win,5,right,6,guess_choice,278,j,0,0,676,138121,1858896
18,19,male,Belgian,2,105,guess,win,5,right,6,guess_outcome,0,undefined,0,0,696,136564,1860453
18,19,male,Belgian,2,105,ITC,win,5,right,6,ITC_start,308,space,0,0,696,136254,1860763
18,19,male,Belgian,2,105,ITC,win,5,right,6,ITC_choice,745,f,0,0,696,135506,1861511
18,19,male,Belgian,2,105,ITC,win,5,right,6,ITC_wait,0,undefined,0,0,696,135504,1861513
18,19,male,Belgian,2,105,ITC,win,5,right,6,ITC_collect,403,k,0,0,696,135100,1861917
18,19,male,Belgian,2,105,ITC,win,5,right,6,ITC_outcome,0,undefined,0,0,702,134095,1862922
18,19,male,Belgian,2,106,guess,neutral,5,left,2,guess_start,134,space,0,0,702,133958,1863059
18,19,male,Belgian,2,106,guess,neutral,5,left,2,guess_choice,514,j,0,0,702,133440,1863577
18,19,male,Belgian,2,106,guess,neutral,5,left,2,guess_outcome,0,undefined,0,0,702,131884,1865133
18,19,male,Belgian,2,106,ITC,neutral,5,left,2,ITC_start,191,space,0,0,702,131691,1865326
18,19,male,Belgian,2,106,ITC,neutral,5,left,2,ITC_choice,500,j,0,0,702,131189,1865828
18,19,male,Belgian,2,106,ITC,neutral,5,left,2,ITC_wait,0,undefined,0,0,702,131186,1865831
18,19,male,Belgian,2,106,ITC,neutral,5,left,2,ITC_collect,350,k,0,0,702,130834,1866183
18,19,male,Belgian,2,106,ITC,neutral,5,left,2,ITC_outcome,0,undefined,0,0,704,129830,1867187
18,19,male,Belgian,2,107,guess,loss,5,right,12,guess_start,327,space,0,0,704,129501,1867516
18,19,male,Belgian,2,107,guess,loss,5,right,12,guess_choice,765,j,0,0,704,128732,1868285
18,19,male,Belgian,2,107,guess,loss,5,right,12,guess_outcome,0,undefined,0,0,689,127178,1869839
18,19,male,Belgian,2,107,ITC,loss,5,right,12,ITC_start,5,space,0,0,689,127171,1869846
18,19,male,Belgian,2,107,ITC,loss,5,right,12,ITC_choice,675,f,0,0,689,126494,1870523
18,19,male,Belgian,2,107,ITC,loss,5,right,12,ITC_wait,0,undefined,0,0,689,126491,1870526
18,19,male,Belgian,2,107,ITC,loss,5,right,12,ITC_collect,362,k,0,0,689,126128,1870889
18,19,male,Belgian,2,107,ITC,loss,5,right,12,ITC_outcome,0,undefined,0,0,701,125122,1871895
18,19,male,Belgian,2,108,guess,loss,5,left,13,guess_start,663,space,0,0,701,124457,1872560
18,19,male,Belgian,2,108,guess,loss,5,left,13,guess_choice,457,j,0,0,701,123997,1873020
18,19,male,Belgian,2,108,guess,loss,5,left,13,guess_outcome,0,undefined,0,0,686,122439,1874578
18,19,male,Belgian,2,108,ITC,loss,5,left,13,ITC_start,181,space,0,0,686,122256,1874761
18,19,male,Belgian,2,108,ITC,loss,5,left,13,ITC_choice,748,f,0,0,686,121505,1875512
18,19,male,Belgian,2,108,ITC,loss,5,left,13,ITC_wait,0,undefined,0,0,686,116502,1880515
18,19,male,Belgian,2,108,ITC,loss,5,left,13,ITC_collect,763,k,0,0,686,115735,1881282
18,19,male,Belgian,2,108,ITC,loss,5,left,13,ITC_outcome,0,undefined,0,0,706,114728,1882289
18,19,male,Belgian,2,109,guess,win,5,left,9,guess_start,279,space,0,0,706,114447,1882570
18,19,male,Belgian,2,109,guess,win,5,left,9,guess_choice,478,j,0,0,706,113966,1883051
18,19,male,Belgian,2,109,guess,win,5,left,9,guess_outcome,0,undefined,0,0,726,112412,1884605
18,19,male,Belgian,2,109,ITC,win,5,left,9,ITC_start,129,space,0,0,726,112282,1884735
18,19,male,Belgian,2,109,ITC,win,5,left,9,ITC_choice,848,j,0,0,726,111432,1885585
18,19,male,Belgian,2,109,ITC,win,5,left,9,ITC_wait,0,undefined,0,0,726,111429,1885588
18,19,male,Belgian,2,109,ITC,win,5,left,9,ITC_collect,745,k,0,0,726,110683,1886334
18,19,male,Belgian,2,109,ITC,win,5,left,9,ITC_outcome,0,undefined,0,0,735,109680,1887337
18,19,male,Belgian,2,110,guess,neutral,5,right,3,guess_start,130,space,0,0,735,109548,1887469
18,19,male,Belgian,2,110,guess,neutral,5,right,3,guess_choice,477,j,0,0,735,109068,1887949
18,19,male,Belgian,2,110,guess,neutral,5,right,3,guess_outcome,0,undefined,0,0,735,107509,1889508
18,19,male,Belgian,2,110,ITC,neutral,5,right,3,ITC_start,201,space,0,0,735,107307,1889710
18,19,male,Belgian,2,110,ITC,neutral,5,right,3,ITC_choice,732,f,0,0,735,106573,1890444
18,19,male,Belgian,2,110,ITC,neutral,5,right,3,ITC_wait,0,undefined,0,0,735,106571,1890446
18,19,male,Belgian,2,110,ITC,neutral,5,right,3,ITC_collect,767,k,0,0,735,105802,1891215
18,19,male,Belgian,2,110,ITC,neutral,5,right,3,ITC_outcome,0,undefined,0,0,738,104798,1892219
18,19,male,Belgian,2,111,guess,neutral,10,right,1,guess_start,296,space,0,0,738,104501,1892516
18,19,male,Belgian,2,111,guess,neutral,10,right,1,guess_choice,362,j,0,0,738,104135,1892882
18,19,male,Belgian,2,111,guess,neutral,10,right,1,guess_outcome,0,undefined,0,0,738,102580,1894437
18,19,male,Belgian,2,111,ITC,neutral,10,right,1,ITC_start,83,space,0,0,738,102496,1894521
18,19,male,Belgian,2,111,ITC,neutral,10,right,1,ITC_choice,948,f,0,0,738,101546,1895471
18,19,male,Belgian,2,111,ITC,neutral,10,right,1,ITC_wait,0,undefined,0,0,738,101544,1895473
18,19,male,Belgian,2,111,ITC,neutral,10,right,1,ITC_collect,348,k,0,0,738,101194,1895823
18,19,male,Belgian,2,111,ITC,neutral,10,right,1,ITC_outcome,0,undefined,0,0,739,100192,1896825
18,19,male,Belgian,2,112,guess,win,5,right,4,guess_start,288,space,0,0,739,99902,1897115
18,19,male,Belgian,2,112,guess,win,5,right,4,guess_choice,693,j,0,0,739,99206,1897811
18,19,male,Belgian,2,112,guess,win,5,right,4,guess_outcome,0,undefined,0,0,759,97648,1899369
18,19,male,Belgian,2,112,ITC,win,5,right,4,ITC_start,312,space,0,0,759,97335,1899682
18,19,male,Belgian,2,112,ITC,win,5,right,4,ITC_choice,1048,f,0,0,759,96285,1900732
18,19,male,Belgian,2,112,ITC,win,5,right,4,ITC_wait,0,undefined,0,0,759,96282,1900735
18,19,male,Belgian,2,112,ITC,win,5,right,4,ITC_collect,413,k,0,0,759,95867,1901150
18,19,male,Belgian,2,112,ITC,win,5,right,4,ITC_outcome,0,undefined,0,0,763,94863,1902154
18,19,male,Belgian,2,113,guess,neutral,5,right,7,guess_start,579,space,0,0,763,94282,1902735
18,19,male,Belgian,2,113,guess,neutral,5,right,7,guess_choice,721,f,0,0,763,93558,1903459
18,19,male,Belgian,2,113,guess,neutral,5,right,7,guess_outcome,0,undefined,0,0,763,92000,1905017
18,19,male,Belgian,2,113,ITC,neutral,5,right,7,ITC_start,229,space,0,0,763,91770,1905247
18,19,male,Belgian,2,113,ITC,neutral,5,right,7,ITC_choice,703,f,0,0,763,91065,1905952
18,19,male,Belgian,2,113,ITC,neutral,5,right,7,ITC_wait,0,undefined,0,0,763,91061,1905956
18,19,male,Belgian,2,113,ITC,neutral,5,right,7,ITC_collect,458,k,0,0,763,90602,1906415
18,19,male,Belgian,2,113,ITC,neutral,5,right,7,ITC_outcome,0,undefined,0,0,770,89598,1907419
18,19,male,Belgian,2,114,guess,neutral,5,left,8,guess_start,65,space,0,0,770,89530,1907487
18,19,male,Belgian,2,114,guess,neutral,5,left,8,guess_choice,599,j,0,0,770,88929,1908088
18,19,male,Belgian,2,114,guess,neutral,5,left,8,guess_outcome,0,undefined,0,0,770,87375,1909642
18,19,male,Belgian,2,114,ITC,neutral,5,left,8,ITC_start,291,space,0,0,770,87082,1909935
18,19,male,Belgian,2,114,ITC,neutral,5,left,8,ITC_choice,1038,j,0,0,770,86042,1910975
18,19,male,Belgian,2,114,ITC,neutral,5,left,8,ITC_wait,0,undefined,0,0,770,86040,1910977
18,19,male,Belgian,2,114,ITC,neutral,5,left,8,ITC_collect,677,k,0,0,770,85362,1911655
18,19,male,Belgian,2,114,ITC,neutral,5,left,8,ITC_outcome,0,undefined,0,0,778,84356,1912661
18,19,male,Belgian,2,115,guess,win,5,right,10,guess_start,341,space,0,0,778,84011,1913006
18,19,male,Belgian,2,115,guess,win,5,right,10,guess_choice,554,j,0,0,778,83454,1913563
18,19,male,Belgian,2,115,guess,win,5,right,10,guess_outcome,0,undefined,0,0,798,81901,1915116
18,19,male,Belgian,2,115,ITC,win,5,right,10,ITC_start,295,space,0,0,798,81604,1915413
18,19,male,Belgian,2,115,ITC,win,5,right,10,ITC_choice,600,f,0,0,798,81002,1916015
18,19,male,Belgian,2,115,ITC,win,5,right,10,ITC_wait,0,undefined,0,0,798,80999,1916018
18,19,male,Belgian,2,115,ITC,win,5,right,10,ITC_collect,433,k,0,0,798,80565,1916452
18,19,male,Belgian,2,115,ITC,win,5,right,10,ITC_outcome,0,undefined,0,0,808,79559,1917458
18,19,male,Belgian,2,116,guess,neutral,5,right,9,guess_start,353,space,0,0,808,79203,1917814
18,19,male,Belgian,2,116,guess,neutral,5,right,9,guess_choice,425,j,0,0,808,78776,1918241
18,19,male,Belgian,2,116,guess,neutral,5,right,9,guess_outcome,0,undefined,0,0,808,77220,1919797
18,19,male,Belgian,2,116,ITC,neutral,5,right,9,ITC_start,77,space,0,0,808,77142,1919875
18,19,male,Belgian,2,116,ITC,neutral,5,right,9,ITC_choice,1003,f,0,0,808,76137,1920880
18,19,male,Belgian,2,116,ITC,neutral,5,right,9,ITC_wait,0,undefined,0,0,808,76134,1920883
18,19,male,Belgian,2,116,ITC,neutral,5,right,9,ITC_collect,350,k,0,0,808,75783,1921234
18,19,male,Belgian,2,116,ITC,neutral,5,right,9,ITC_outcome,0,undefined,0,0,817,74780,1922237
18,19,male,Belgian,2,117,guess,win,5,right,5,guess_start,126,space,0,0,817,74650,1922367
18,19,male,Belgian,2,117,guess,win,5,right,5,guess_choice,854,j,0,0,817,73792,1923225
18,19,male,Belgian,2,117,guess,win,5,right,5,guess_outcome,0,undefined,0,0,837,72235,1924782
18,19,male,Belgian,2,117,ITC,win,5,right,5,ITC_start,144,space,0,0,837,72089,1924928
18,19,male,Belgian,2,117,ITC,win,5,right,5,ITC_choice,763,f,0,0,837,71324,1925693
18,19,male,Belgian,2,117,ITC,win,5,right,5,ITC_wait,0,undefined,0,0,837,71321,1925696
18,19,male,Belgian,2,117,ITC,win,5,right,5,ITC_collect,296,k,0,0,837,71023,1925994
18,19,male,Belgian,2,117,ITC,win,5,right,5,ITC_outcome,0,undefined,0,0,842,70017,1927000
18,19,male,Belgian,2,118,guess,neutral,5,right,1,guess_start,169,space,0,0,842,69846,1927171
18,19,male,Belgian,2,118,guess,neutral,5,right,1,guess_choice,662,f,0,0,842,69181,1927836
18,19,male,Belgian,2,118,guess,neutral,5,right,1,guess_outcome,0,undefined,0,0,842,67623,1929394
18,19,male,Belgian,2,118,ITC,neutral,5,right,1,ITC_start,40,space,0,0,842,67581,1929436
18,19,male,Belgian,2,118,ITC,neutral,5,right,1,ITC_wait,0,undefined,0,0,842,66772,1930245
18,19,male,Belgian,2,118,ITC,neutral,5,right,1,ITC_choice,805,f,0,0,842,66775,1930242
18,19,male,Belgian,2,118,ITC,neutral,5,right,1,ITC_collect,495,k,0,0,842,66275,1930742
18,19,male,Belgian,2,118,ITC,neutral,5,right,1,ITC_outcome,0,undefined,0,0,843,65270,1931747
18,19,male,Belgian,2,119,guess,neutral,10,left,3,guess_start,200,space,0,0,843,65066,1931951
18,19,male,Belgian,2,119,guess,neutral,10,left,3,guess_choice,518,f,0,0,843,64545,1932472
18,19,male,Belgian,2,119,guess,neutral,10,left,3,guess_outcome,0,undefined,0,0,843,62992,1934025
18,19,male,Belgian,2,119,ITC,neutral,10,left,3,ITC_start,702,space,0,0,843,62289,1934728
18,19,male,Belgian,2,119,ITC,neutral,10,left,3,ITC_choice,717,j,0,0,843,61570,1935447
18,19,male,Belgian,2,119,ITC,neutral,10,left,3,ITC_wait,0,undefined,0,0,843,61567,1935450
18,19,male,Belgian,2,119,ITC,neutral,10,left,3,ITC_collect,278,k,0,0,843,61288,1935729
18,19,male,Belgian,2,119,ITC,neutral,10,left,3,ITC_outcome,0,undefined,0,0,846,60284,1936733
18,19,male,Belgian,2,120,guess,neutral,5,left,4,guess_start,108,space,0,0,846,60173,1936844
18,19,male,Belgian,2,120,guess,neutral,5,left,4,guess_choice,695,j,0,0,846,59472,1937545
18,19,male,Belgian,2,120,guess,neutral,5,left,4,guess_outcome,0,undefined,0,0,846,57914,1939103
18,19,male,Belgian,2,120,ITC,neutral,5,left,4,ITC_start,221,space,0,0,846,57691,1939326
18,19,male,Belgian,2,120,ITC,neutral,5,left,4,ITC_choice,1431,j,0,0,846,56258,1940759
18,19,male,Belgian,2,120,ITC,neutral,5,left,4,ITC_wait,0,undefined,0,0,846,56255,1940762
18,19,male,Belgian,2,120,ITC,neutral,5,left,4,ITC_collect,453,k,0,0,846,55801,1941216
18,19,male,Belgian,2,120,ITC,neutral,5,left,4,ITC_outcome,0,undefined,0,0,850,54795,1942222
18,19,male,Belgian,2,121,guess,loss,10,left,1,guess_start,348,space,0,0,850,54444,1942573
18,19,male,Belgian,2,121,guess,loss,10,left,1,guess_choice,512,j,0,0,850,53929,1943088
18,19,male,Belgian,2,121,guess,loss,10,left,1,guess_outcome,0,undefined,0,0,835,52374,1944643
18,19,male,Belgian,2,121,ITC,loss,10,left,1,ITC_start,157,space,0,0,835,52216,1944801
18,19,male,Belgian,2,121,ITC,loss,10,left,1,ITC_choice,807,j,0,0,835,51407,1945610
18,19,male,Belgian,2,121,ITC,loss,10,left,1,ITC_wait,0,undefined,0,0,835,51404,1945613
18,19,male,Belgian,2,121,ITC,loss,10,left,1,ITC_collect,356,k,0,0,835,51047,1945970
18,19,male,Belgian,2,121,ITC,loss,10,left,1,ITC_outcome,0,undefined,0,0,836,50040,1946977
18,19,male,Belgian,2,122,guess,loss,10,right,2,guess_start,126,space,0,0,836,49912,1947105
18,19,male,Belgian,2,122,guess,loss,10,right,2,guess_choice,572,j,0,0,836,49337,1947680
18,19,male,Belgian,2,122,guess,loss,10,right,2,guess_outcome,0,undefined,0,0,821,47784,1949233
18,19,male,Belgian,2,122,ITC,loss,10,right,2,ITC_start,134,space,0,0,821,47648,1949369
18,19,male,Belgian,2,122,ITC,loss,10,right,2,ITC_choice,1614,j,0,0,821,46033,1950984
18,19,male,Belgian,2,122,ITC,loss,10,right,2,ITC_wait,0,undefined,0,0,821,36027,1960990
18,19,male,Belgian,2,122,ITC,loss,10,right,2,ITC_collect,690,k,0,0,821,35335,1961682
18,19,male,Belgian,2,122,ITC,loss,10,right,2,ITC_outcome,0,undefined,0,0,841,34329,1962688
18,19,male,Belgian,2,123,guess,loss,10,left,6,guess_start,468,space,0,0,841,33858,1963159
18,19,male,Belgian,2,123,guess,loss,10,left,6,guess_choice,509,j,0,0,841,33346,1963671
18,19,male,Belgian,2,123,guess,loss,10,left,6,guess_outcome,0,undefined,0,0,826,31788,1965229
18,19,male,Belgian,2,123,ITC,loss,10,left,6,ITC_start,463,space,0,0,826,31324,1965693
18,19,male,Belgian,2,123,ITC,loss,10,left,6,ITC_choice,678,j,0,0,826,30644,1966373
18,19,male,Belgian,2,123,ITC,loss,10,left,6,ITC_wait,0,undefined,0,0,826,30642,1966375
18,19,male,Belgian,2,123,ITC,loss,10,left,6,ITC_collect,299,k,0,0,826,30341,1966676
18,19,male,Belgian,2,123,ITC,loss,10,left,6,ITC_outcome,0,undefined,0,0,832,29338,1967679
18,19,male,Belgian,2,124,guess,neutral,5,left,16,guess_start,390,space,0,0,832,28946,1968071
18,19,male,Belgian,2,124,guess,neutral,5,left,16,guess_choice,257,j,0,0,832,28685,1968332
18,19,male,Belgian,2,124,guess,neutral,5,left,16,guess_outcome,0,undefined,0,0,832,27130,1969887
18,19,male,Belgian,2,124,ITC,neutral,5,left,16,ITC_start,82,space,0,0,832,27046,1969971
18,19,male,Belgian,2,124,ITC,neutral,5,left,16,ITC_choice,746,j,0,0,832,26298,1970719
18,19,male,Belgian,2,124,ITC,neutral,5,left,16,ITC_wait,0,undefined,0,0,832,26295,1970722
18,19,male,Belgian,2,124,ITC,neutral,5,left,16,ITC_collect,352,k,0,0,832,25941,1971076
18,19,male,Belgian,2,124,ITC,neutral,5,left,16,ITC_outcome,0,undefined,0,0,848,24936,1972081
18,19,male,Belgian,2,125,guess,neutral,10,right,6,guess_start,140,space,0,0,848,24794,1972223
18,19,male,Belgian,2,125,guess,neutral,10,right,6,guess_choice,1377,f,0,0,848,23414,1973603
18,19,male,Belgian,2,125,guess,neutral,10,right,6,guess_outcome,0,undefined,0,0,848,21856,1975161
18,19,male,Belgian,2,125,ITC,neutral,10,right,6,ITC_start,202,space,0,0,848,21653,1975364
18,19,male,Belgian,2,125,ITC,neutral,10,right,6,ITC_choice,717,f,0,0,848,20934,1976083
18,19,male,Belgian,2,125,ITC,neutral,10,right,6,ITC_wait,0,undefined,0,0,848,20931,1976086
18,19,male,Belgian,2,125,ITC,neutral,10,right,6,ITC_collect,297,k,0,0,848,20632,1976385
18,19,male,Belgian,2,125,ITC,neutral,10,right,6,ITC_outcome,0,undefined,0,0,854,19629,1977388
18,19,male,Belgian,2,126,guess,loss,5,right,2,guess_start,448,space,0,0,854,19179,1977838
18,19,male,Belgian,2,126,guess,loss,5,right,2,guess_choice,514,j,0,0,854,18662,1978355
18,19,male,Belgian,2,126,guess,loss,5,right,2,guess_outcome,0,undefined,0,0,839,17104,1979913
18,19,male,Belgian,2,126,ITC,loss,5,right,2,ITC_start,76,space,0,0,839,17027,1979990
18,19,male,Belgian,2,126,ITC,loss,5,right,2,ITC_choice,688,f,0,0,839,16337,1980680
18,19,male,Belgian,2,126,ITC,loss,5,right,2,ITC_wait,0,undefined,0,0,839,16334,1980683
18,19,male,Belgian,2,126,ITC,loss,5,right,2,ITC_collect,268,k,0,0,839,16065,1980952
18,19,male,Belgian,2,126,ITC,loss,5,right,2,ITC_outcome,0,undefined,0,0,841,15062,1981955
18,19,male,Belgian,2,127,guess,loss,5,left,8,guess_start,566,space,0,0,841,14494,1982523
18,19,male,Belgian,2,127,guess,loss,5,left,8,guess_choice,471,f,0,0,841,14020,1982997
18,19,male,Belgian,2,127,guess,loss,5,left,8,guess_outcome,0,undefined,0,0,826,12465,1984552
18,19,male,Belgian,2,127,ITC,loss,5,left,8,ITC_start,182,space,0,0,826,12281,1984736
18,19,male,Belgian,2,127,ITC,loss,5,left,8,ITC_choice,716,j,0,0,826,11563,1985454
18,19,male,Belgian,2,127,ITC,loss,5,left,8,ITC_wait,0,undefined,0,0,826,11561,1985456
18,19,male,Belgian,2,127,ITC,loss,5,left,8,ITC_collect,221,k,0,0,826,11339,1985678
18,19,male,Belgian,2,127,ITC,loss,5,left,8,ITC_outcome,0,undefined,0,0,834,10336,1986681
18,19,male,Belgian,2,128,guess,win,10,left,2,guess_start,107,space,0,0,834,10227,1986790
18,19,male,Belgian,2,128,guess,win,10,left,2,guess_choice,214,j,0,0,834,10010,1987007
18,19,male,Belgian,2,128,guess,win,10,left,2,guess_outcome,0,undefined,0,0,854,8454,1988563
18,19,male,Belgian,2,128,ITC,win,10,left,2,ITC_start,313,space,0,0,854,8140,1988877
18,19,male,Belgian,2,128,ITC,win,10,left,2,ITC_choice,660,j,0,0,854,7478,1989539
18,19,male,Belgian,2,128,ITC,win,10,left,2,ITC_wait,0,undefined,0,0,854,7475,1989542
18,19,male,Belgian,2,128,ITC,win,10,left,2,ITC_collect,277,k,0,0,854,7198,1989819
18,19,male,Belgian,2,128,ITC,win,10,left,2,ITC_outcome,0,undefined,0,0,856,6192,1990825
18,19,male,Belgian,2,129,guess,neutral,10,left,7,guess_start,586,space,0,0,856,5603,1991414
18,19,male,Belgian,2,129,guess,neutral,10,left,7,guess_choice,730,f,0,0,856,4870,1992147
18,19,male,Belgian,2,129,guess,neutral,10,left,7,guess_outcome,0,undefined,0,0,856,3316,1993701
18,19,male,Belgian,2,129,ITC,neutral,10,left,7,ITC_start,319,space,0,0,856,2996,1994021
18,19,male,Belgian,2,129,ITC,neutral,10,left,7,ITC_choice,652,j,0,0,856,2341,1994676
18,19,male,Belgian,2,129,ITC,neutral,10,left,7,ITC_wait,0,undefined,0,0,856,2339,1994678
18,19,male,Belgian,2,129,ITC,neutral,10,left,7,ITC_collect,286,k,0,0,856,2052,1994965
18,19,male,Belgian,2,129,ITC,neutral,10,left,7,ITC_outcome,0,undefined,0,0,863,1048,1995969
18,19,male,Belgian,2,130,guess,neutral,10,right,2,guess_start,317,space,0,0,863,728,1996289
18,19,male,Belgian,2,130,guess,neutral,10,right,2,guess_choice,466,j,0,0,863,259,1996758
18,19,male,Belgian,2,130,guess,neutral,10,right,2,guess_outcome,0,undefined,0,0,863,-6,1997023
18,19,male,Belgian,3,131,guess,win,5,left,7,guess_start,5508,space,0,0,0,474489,2381385
18,19,male,Belgian,3,131,guess,win,5,left,7,guess_choice,139,j,0,0,0,474347,2381527
18,19,male,Belgian,3,131,guess,win,5,left,7,guess_outcome,0,undefined,0,0,20,472793,2383081
18,19,male,Belgian,3,131,ITC,win,5,left,7,ITC_start,330,space,0,0,20,472461,2383413
18,19,male,Belgian,3,131,ITC,win,5,left,7,ITC_choice,696,f,0,0,20,471763,2384111
18,19,male,Belgian,3,131,ITC,win,5,left,7,ITC_wait,0,undefined,0,0,20,466757,2389117
18,19,male,Belgian,3,131,ITC,win,5,left,7,ITC_collect,746,k,0,0,20,466008,2389866
18,19,male,Belgian,3,131,ITC,win,5,left,7,ITC_outcome,0,undefined,0,0,40,465005,2390869
18,19,male,Belgian,3,132,guess,loss,5,left,14,guess_start,1335,space,0,0,40,463668,2392206
18,19,male,Belgian,3,132,guess,loss,5,left,14,guess_choice,489,f,0,0,40,463176,2392698
18,19,male,Belgian,3,132,guess,loss,5,left,14,guess_outcome,0,undefined,0,0,25,461619,2394255
18,19,male,Belgian,3,132,ITC,loss,5,left,14,ITC_start,316,space,0,0,25,461301,2394573
18,19,male,Belgian,3,132,ITC,loss,5,left,14,ITC_choice,489,j,0,0,25,460810,2395064
18,19,male,Belgian,3,132,ITC,loss,5,left,14,ITC_wait,0,undefined,0,0,25,460807,2395067
18,19,male,Belgian,3,132,ITC,loss,5,left,14,ITC_collect,611,k,0,0,25,460195,2395679
18,19,male,Belgian,3,132,ITC,loss,5,left,14,ITC_outcome,0,undefined,0,0,39,459193,2396681
18,19,male,Belgian,3,133,guess,neutral,5,left,10,guess_start,186,space,0,0,39,459004,2396870
18,19,male,Belgian,3,133,guess,neutral,5,left,10,guess_choice,173,j,0,0,39,458829,2397045
18,19,male,Belgian,3,133,guess,neutral,5,left,10,guess_outcome,0,undefined,0,0,39,457274,2398600
18,19,male,Belgian,3,133,ITC,neutral,5,left,10,ITC_start,176,space,0,0,39,457097,2398777
18,19,male,Belgian,3,133,ITC,neutral,5,left,10,ITC_choice,119,j,0,0,39,456976,2398898
18,19,male,Belgian,3,133,ITC,neutral,5,left,10,ITC_wait,0,undefined,0,0,39,456974,2398900
18,19,male,Belgian,3,133,ITC,neutral,5,left,10,ITC_collect,448,k,0,0,39,456525,2399349
18,19,male,Belgian,3,133,ITC,neutral,5,left,10,ITC_outcome,0,undefined,0,0,49,455522,2400352
18,19,male,Belgian,3,134,guess,win,10,right,6,guess_start,173,space,0,0,49,455347,2400527
18,19,male,Belgian,3,134,guess,win,10,right,6,guess_choice,97,j,0,0,49,455247,2400627
18,19,male,Belgian,3,134,guess,win,10,right,6,guess_outcome,0,undefined,0,0,69,453690,2402184
18,19,male,Belgian,3,134,ITC,win,10,right,6,ITC_start,345,space,0,0,69,453343,2402531
18,19,male,Belgian,3,134,ITC,win,10,right,6,ITC_choice,406,j,0,0,69,452935,2402939
18,19,male,Belgian,3,134,ITC,win,10,right,6,ITC_wait,0,undefined,0,0,69,442929,2412945
18,19,male,Belgian,3,134,ITC,win,10,right,6,ITC_collect,543,k,0,0,69,442383,2413491
18,19,male,Belgian,3,134,ITC,win,10,right,6,ITC_outcome,0,undefined,0,0,89,441376,2414498
18,19,male,Belgian,3,135,guess,loss,10,right,3,guess_start,523,space,0,0,89,440850,2415024
18,19,male,Belgian,3,135,guess,loss,10,right,3,guess_choice,602,j,0,0,89,440246,2415628
18,19,male,Belgian,3,135,guess,loss,10,right,3,guess_outcome,0,undefined,0,0,74,438691,2417183
18,19,male,Belgian,3,135,ITC,loss,10,right,3,ITC_start,13,space,0,0,74,438676,2417198
18,19,male,Belgian,3,135,ITC,loss,10,right,3,ITC_choice,310,f,0,0,74,438366,2417508
18,19,male,Belgian,3,135,ITC,loss,10,right,3,ITC_wait,0,undefined,0,0,74,438363,2417511
18,19,male,Belgian,3,135,ITC,loss,10,right,3,ITC_collect,482,k,0,0,74,437880,2417994
18,19,male,Belgian,3,135,ITC,loss,10,right,3,ITC_outcome,0,undefined,0,0,77,436878,2418996
18,19,male,Belgian,3,136,guess,loss,5,left,15,guess_start,67,space,0,0,77,436809,2419065
18,19,male,Belgian,3,136,guess,loss,5,left,15,guess_choice,332,j,0,0,77,436475,2419399
18,19,male,Belgian,3,136,guess,loss,5,left,15,guess_outcome,0,undefined,0,0,62,434922,2420952
18,19,male,Belgian,3,136,ITC,loss,5,left,15,ITC_start,351,space,0,0,62,434569,2421305
18,19,male,Belgian,3,136,ITC,loss,5,left,15,ITC_choice,144,j,0,0,62,434424,2421450
18,19,male,Belgian,3,136,ITC,loss,5,left,15,ITC_wait,0,undefined,0,0,62,434421,2421453
18,19,male,Belgian,3,136,ITC,loss,5,left,15,ITC_collect,603,k,0,0,62,433816,2422058
18,19,male,Belgian,3,136,ITC,loss,5,left,15,ITC_outcome,0,undefined,0,0,77,432813,2423061
18,19,male,Belgian,3,137,guess,neutral,5,left,11,guess_start,126,space,0,0,77,432684,2423190
18,19,male,Belgian,3,137,guess,neutral,5,left,11,guess_choice,463,j,0,0,77,432217,2423657
18,19,male,Belgian,3,137,guess,neutral,5,left,11,guess_outcome,0,undefined,0,0,77,430660,2425214
18,19,male,Belgian,3,137,ITC,neutral,5,left,11,ITC_start,352,space,0,0,77,430306,2425568
18,19,male,Belgian,3,137,ITC,neutral,5,left,11,ITC_choice,477,j,0,0,77,429828,2426046
18,19,male,Belgian,3,137,ITC,neutral,5,left,11,ITC_wait,0,undefined,0,0,77,429825,2426049
18,19,male,Belgian,3,137,ITC,neutral,5,left,11,ITC_collect,333,k,0,0,77,429491,2426383
18,19,male,Belgian,3,137,ITC,neutral,5,left,11,ITC_outcome,0,undefined,0,0,88,428484,2427390
18,19,male,Belgian,3,138,guess,win,5,right,8,guess_start,122,space,0,0,88,428360,2427514
18,19,male,Belgian,3,138,guess,win,5,right,8,guess_choice,408,j,0,0,88,427949,2427925
18,19,male,Belgian,3,138,guess,win,5,right,8,guess_outcome,0,undefined,0,0,108,426395,2429479
18,19,male,Belgian,3,138,ITC,win,5,right,8,ITC_start,671,space,0,0,108,425722,2430152
18,19,male,Belgian,3,138,ITC,win,5,right,8,ITC_choice,677,f,0,0,108,425043,2430831
18,19,male,Belgian,3,138,ITC,win,5,right,8,ITC_wait,0,undefined,0,0,108,425040,2430834
18,19,male,Belgian,3,138,ITC,win,5,right,8,ITC_collect,575,k,0,0,108,424464,2431410
18,19,male,Belgian,3,138,ITC,win,5,right,8,ITC_outcome,0,undefined,0,0,116,423458,2432416
18,19,male,Belgian,3,139,guess,loss,10,right,4,guess_start,221,space,0,0,116,423235,2432639
18,19,male,Belgian,3,139,guess,loss,10,right,4,guess_choice,236,j,0,0,116,422996,2432878
18,19,male,Belgian,3,139,guess,loss,10,right,4,guess_outcome,0,undefined,0,0,101,421443,2434431
18,19,male,Belgian,3,139,ITC,loss,10,right,4,ITC_start,23,space,0,0,101,421418,2434456
18,19,male,Belgian,3,139,ITC,loss,10,right,4,ITC_wait,0,undefined,0,0,101,420808,2435066
18,19,male,Belgian,3,139,ITC,loss,10,right,4,ITC_choice,607,f,0,0,101,420810,2435064
18,19,male,Belgian,3,139,ITC,loss,10,right,4,ITC_collect,366,k,0,0,101,420440,2435434
18,19,male,Belgian,3,139,ITC,loss,10,right,4,ITC_outcome,0,undefined,0,0,105,419434,2436440
18,19,male,Belgian,3,140,guess,loss,5,left,7,guess_start,58,space,0,0,105,419373,2436501
18,19,male,Belgian,3,140,guess,loss,5,left,7,guess_choice,41,j,0,0,105,419330,2436544
18,19,male,Belgian,3,140,guess,loss,5,left,7,guess_outcome,0,undefined,0,0,90,417776,2438098
18,19,male,Belgian,3,140,ITC,loss,5,left,7,ITC_start,243,space,0,0,90,417532,2438342
18,19,male,Belgian,3,140,ITC,loss,5,left,7,ITC_choice,218,f,0,0,90,417313,2438561
18,19,male,Belgian,3,140,ITC,loss,5,left,7,ITC_wait,0,undefined,0,0,90,412307,2443567
18,19,male,Belgian,3,140,ITC,loss,5,left,7,ITC_collect,1427,k,0,0,90,410878,2444996
18,19,male,Belgian,3,140,ITC,loss,5,left,7,ITC_outcome,0,undefined,0,0,110,409875,2445999
18,19,male,Belgian,3,141,guess,loss,5,left,6,guess_start,331,space,0,0,110,409541,2446333
18,19,male,Belgian,3,141,guess,loss,5,left,6,guess_choice,224,j,0,0,110,409313,2446561
18,19,male,Belgian,3,141,guess,loss,5,left,6,guess_outcome,0,undefined,0,0,95,407758,2448116
18,19,male,Belgian,3,141,ITC,loss,5,left,6,ITC_start,400,space,0,0,95,407356,2448518
18,19,male,Belgian,3,141,ITC,loss,5,left,6,ITC_choice,219,j,0,0,95,407136,2448738
18,19,male,Belgian,3,141,ITC,loss,5,left,6,ITC_wait,0,undefined,0,0,95,407134,2448740
18,19,male,Belgian,3,141,ITC,loss,5,left,6,ITC_collect,542,k,0,0,95,406591,2449283
18,19,male,Belgian,3,141,ITC,loss,5,left,6,ITC_outcome,0,undefined,0,0,101,405588,2450286
18,19,male,Belgian,3,142,guess,loss,5,right,1,guess_start,65,space,0,0,101,405521,2450353
18,19,male,Belgian,3,142,guess,loss,5,right,1,guess_choice,479,j,0,0,101,405040,2450834
18,19,male,Belgian,3,142,guess,loss,5,right,1,guess_outcome,0,undefined,0,0,86,403483,2452391
18,19,male,Belgian,3,142,ITC,loss,5,right,1,ITC_start,95,space,0,0,86,403386,2452488
18,19,male,Belgian,3,142,ITC,loss,5,right,1,ITC_wait,0,undefined,0,0,86,402509,2453365
18,19,male,Belgian,3,142,ITC,loss,5,right,1,ITC_choice,874,f,0,0,86,402512,2453362
18,19,male,Belgian,3,142,ITC,loss,5,right,1,ITC_collect,301,k,0,0,86,402207,2453667
18,19,male,Belgian,3,142,ITC,loss,5,right,1,ITC_outcome,0,undefined,0,0,87,401204,2454670
18,19,male,Belgian,3,143,guess,neutral,10,left,4,guess_start,157,space,0,0,87,401045,2454829
18,19,male,Belgian,3,143,guess,neutral,10,left,4,guess_choice,870,f,0,0,87,400172,2455702
18,19,male,Belgian,3,143,guess,neutral,10,left,4,guess_outcome,0,undefined,0,0,87,398614,2457260
18,19,male,Belgian,3,143,ITC,neutral,10,left,4,ITC_start,351,space,0,0,87,398261,2457613
18,19,male,Belgian,3,143,ITC,neutral,10,left,4,ITC_choice,577,j,0,0,87,397683,2458191
18,19,male,Belgian,3,143,ITC,neutral,10,left,4,ITC_wait,0,undefined,0,0,87,397680,2458194
18,19,male,Belgian,3,143,ITC,neutral,10,left,4,ITC_collect,522,k,0,0,87,397157,2458717
18,19,male,Belgian,3,143,ITC,neutral,10,left,4,ITC_outcome,0,undefined,0,0,91,396154,2459720
18,19,male,Belgian,3,144,guess,win,10,right,3,guess_start,215,space,0,0,91,395937,2459937
18,19,male,Belgian,3,144,guess,win,10,right,3,guess_choice,579,j,0,0,91,395355,2460519
18,19,male,Belgian,3,144,guess,win,10,right,3,guess_outcome,0,undefined,0,0,111,393802,2462072
