subjectID,age,gender,nationality,block_number,trial_number,trial_type,guess_outcome,delay_time,delay_pos,immediate_amount,stage,respRT,respKey,blur_count,focus_count,total_points,remaining_duration,time_elapsed
19,19,female,Belg,1,1,guess,win,5,left,13,guess_start,12180,space,0,0,0,467818,490159
19,19,female,Belg,1,1,guess,win,5,left,13,guess_choice,2222,j,0,0,0,465589,492388
19,19,female,Belg,1,1,guess,win,5,left,13,guess_outcome,0,undefined,0,0,20,464029,493948
19,19,female,Belg,1,1,ITC,win,5,left,13,ITC_start,3981,space,0,0,20,460045,497932
19,19,female,Belg,1,1,ITC,win,5,left,13,ITC_choice,4734,f,0,0,20,455309,502668
19,19,female,Belg,1,1,ITC,win,5,left,13,ITC_wait,0,undefined,0,0,20,450301,507676
19,19,female,Belg,1,1,ITC,win,5,left,13,ITC_collect,3465,k,0,0,20,446833,511144
19,19,female,Belg,1,1,ITC,win,5,left,13,ITC_outcome,0,undefined,0,0,40,445827,512150
19,19,female,Belg,1,2,guess,loss,10,left,8,guess_start,2032,space,0,0,40,443793,514184
19,19,female,Belg,1,2,guess,loss,10,left,8,guess_choice,2143,j,0,0,40,441645,516332
19,19,female,Belg,1,2,guess,loss,10,left,8,guess_outcome,0,undefined,0,0,25,440084,517893
19,19,female,Belg,1,2,ITC,loss,10,left,8,ITC_start,2102,space,0,0,25,437979,519998
19,19,female,Belg,1,2,ITC,loss,10,left,8,ITC_choice,3166,f,0,0,25,434813,523164
19,19,female,Belg,1,2,ITC,loss,10,left,8,ITC_wait,0,undefined,0,0,25,424805,533172
19,19,female,Belg,1,2,ITC,loss,10,left,8,ITC_collect,1205,k,0,0,25,423597,534380
19,19,female,Belg,1,2,ITC,loss,10,left,8,ITC_outcome,0,undefined,0,0,45,422587,535390
19,19,female,Belg,1,3,guess,win,5,left,12,guess_start,1059,space,0,0,45,421524,536453
19,19,female,Belg,1,3,guess,win,5,left,12,guess_choice,2072,f,0,0,45,419446,538531
19,19,female,Belg,1,3,guess,win,5,left,12,guess_outcome,0,undefined,0,0,65,417885,540092
19,19,female,Belg,1,3,ITC,win,5,left,12,ITC_start,2825,space,0,0,65,415058,542919
19,19,female,Belg,1,3,ITC,win,5,left,12,ITC_choice,2941,f,0,0,65,412115,545862
19,19,female,Belg,1,3,ITC,win,5,left,12,ITC_wait,0,undefined,0,0,65,407108,550869
19,19,female,Belg,1,3,ITC,win,5,left,12,ITC_collect,1149,k,0,0,65,405957,552020
19,19,female,Belg,1,3,ITC,win,5,left,12,ITC_outcome,0,undefined,0,0,85,404949,553028
19,19,female,Belg,1,4,guess,loss,5,right,2,guess_start,841,space,0,0,85,404105,553872
19,19,female,Belg,1,4,guess,loss,5,right,2,guess_choice,1701,j,0,0,85,402399,555578
19,19,female,Belg,1,4,guess,loss,5,right,2,guess_outcome,0,undefined,0,0,70,400839,557138
19,19,female,Belg,1,4,ITC,loss,5,right,2,ITC_start,1697,space,0,0,70,399139,558838
19,19,female,Belg,1,4,ITC,loss,5,right,2,ITC_choice,3009,j,0,0,70,396128,561849
19,19,female,Belg,1,4,ITC,loss,5,right,2,ITC_wait,0,undefined,0,0,70,391120,566857
19,19,female,Belg,1,4,ITC,loss,5,right,2,ITC_collect,1498,k,0,0,70,389620,568357
19,19,female,Belg,1,4,ITC,loss,5,right,2,ITC_outcome,0,undefined,0,0,90,388612,569365
19,19,female,Belg,1,5,guess,neutral,10,left,4,guess_start,668,space,0,0,90,387940,570037
19,19,female,Belg,1,5,guess,neutral,10,left,4,guess_choice,1137,f,0,0,90,386799,571178
19,19,female,Belg,1,5,guess,neutral,10,left,4,guess_outcome,0,undefined,0,0,90,385239,572738
19,19,female,Belg,1,5,ITC,neutral,10,left,4,ITC_start,1723,space,0,0,90,383514,574463
19,19,female,Belg,1,5,ITC,neutral,10,left,4,ITC_choice,1797,f,0,0,90,381714,576263
19,19,female,Belg,1,5,ITC,neutral,10,left,4,ITC_wait,0,undefined,0,0,90,371709,586268
19,19,female,Belg,1,5,ITC,neutral,10,left,4,ITC_collect,755,k,0,0,90,370952,587025
19,19,female,Belg,1,5,ITC,neutral,10,left,4,ITC_outcome,0,undefined,0,0,110,369945,588032
19,19,female,Belg,1,6,guess,loss,5,left,10,guess_start,952,space,0,0,110,368990,588987
19,19,female,Belg,1,6,guess,loss,5,left,10,guess_choice,1376,j,0,0,110,367608,590369
19,19,female,Belg,1,6,guess,loss,5,left,10,guess_outcome,0,undefined,0,0,95,366052,591925
19,19,female,Belg,1,6,ITC,loss,5,left,10,ITC_start,879,space,0,0,95,365171,592806
19,19,female,Belg,1,6,ITC,loss,5,left,10,ITC_choice,2239,f,0,0,95,362931,595046
19,19,female,Belg,1,6,ITC,loss,5,left,10,ITC_wait,0,undefined,0,0,95,357924,600053
19,19,female,Belg,1,6,ITC,loss,5,left,10,ITC_collect,1553,k,0,0,95,356369,601608
19,19,female,Belg,1,6,ITC,loss,5,left,10,ITC_outcome,0,undefined,0,0,115,355359,602618
19,19,female,Belg,1,7,guess,loss,5,right,5,guess_start,459,space,0,0,115,354899,603078
19,19,female,Belg,1,7,guess,loss,5,right,5,guess_choice,1000,j,0,0,115,353893,604084
19,19,female,Belg,1,7,guess,loss,5,right,5,guess_outcome,0,undefined,0,0,100,352336,605641
19,19,female,Belg,1,7,ITC,loss,5,right,5,ITC_start,1316,space,0,0,100,351017,606960
19,19,female,Belg,1,7,ITC,loss,5,right,5,ITC_choice,2791,j,0,0,100,348225,609752
19,19,female,Belg,1,7,ITC,loss,5,right,5,ITC_wait,0,undefined,0,0,100,343218,614759
19,19,female,Belg,1,7,ITC,loss,5,right,5,ITC_collect,558,k,0,0,100,342658,615319
19,19,female,Belg,1,7,ITC,loss,5,right,5,ITC_outcome,0,undefined,0,0,120,341653,616324
19,19,female,Belg,1,8,guess,win,10,right,6,guess_start,655,space,0,0,120,340995,616982
19,19,female,Belg,1,8,guess,win,10,right,6,guess_choice,1456,j,0,0,120,339534,618443
19,19,female,Belg,1,8,guess,win,10,right,6,guess_outcome,0,undefined,0,0,140,337977,620000
19,19,female,Belg,1,8,ITC,win,10,right,6,ITC_start,756,space,0,0,140,337218,620759
19,19,female,Belg,1,8,ITC,win,10,right,6,ITC_choice,1840,j,0,0,140,335376,622601
19,19,female,Belg,1,8,ITC,win,10,right,6,ITC_wait,0,undefined,0,0,140,325369,632608
19,19,female,Belg,1,8,ITC,win,10,right,6,ITC_collect,707,k,0,0,140,324659,633318
19,19,female,Belg,1,8,ITC,win,10,right,6,ITC_outcome,0,undefined,0,0,160,323650,634327
19,19,female,Belg,1,9,guess,loss,5,left,16,guess_start,831,space,0,0,160,322817,635160
19,19,female,Belg,1,9,guess,loss,5,left,16,guess_choice,777,f,0,0,160,322035,635942
19,19,female,Belg,1,9,guess,loss,5,left,16,guess_outcome,0,undefined,0,0,145,320476,637501
19,19,female,Belg,1,9,ITC,loss,5,left,16,ITC_start,852,space,0,0,145,319620,638357
19,19,female,Belg,1,9,ITC,loss,5,left,16,ITC_choice,1752,f,0,0,145,317866,640111
19,19,female,Belg,1,9,ITC,loss,5,left,16,ITC_wait,0,undefined,0,0,145,312858,645119
19,19,female,Belg,1,9,ITC,loss,5,left,16,ITC_collect,1456,k,0,0,145,311401,646576
19,19,female,Belg,1,9,ITC,loss,5,left,16,ITC_outcome,0,undefined,0,0,165,310392,647585
19,19,female,Belg,1,10,guess,loss,5,right,6,guess_start,415,space,0,0,165,309975,648002
19,19,female,Belg,1,10,guess,loss,5,right,6,guess_choice,763,f,0,0,165,309206,648771
19,19,female,Belg,1,10,guess,loss,5,right,6,guess_outcome,0,undefined,0,0,150,307645,650332
19,19,female,Belg,1,10,ITC,loss,5,right,6,ITC_start,1499,space,0,0,150,306145,651832
19,19,female,Belg,1,10,ITC,loss,5,right,6,ITC_choice,2071,j,0,0,150,304071,653906
19,19,female,Belg,1,10,ITC,loss,5,right,6,ITC_wait,0,undefined,0,0,150,299064,658913
19,19,female,Belg,1,10,ITC,loss,5,right,6,ITC_collect,1005,k,0,0,150,298057,659920
19,19,female,Belg,1,10,ITC,loss,5,right,6,ITC_outcome,0,undefined,0,0,170,297050,660927
19,19,female,Belg,1,11,guess,win,10,right,5,guess_start,714,space,0,0,170,296333,661644
19,19,female,Belg,1,11,guess,win,10,right,5,guess_choice,455,f,0,0,170,295873,662104
19,19,female,Belg,1,11,guess,win,10,right,5,guess_outcome,0,undefined,0,0,190,294319,663658
19,19,female,Belg,1,11,ITC,win,10,right,5,ITC_start,893,space,0,0,190,293423,664554
19,19,female,Belg,1,11,ITC,win,10,right,5,ITC_choice,2041,j,0,0,190,291379,666598
19,19,female,Belg,1,11,ITC,win,10,right,5,ITC_wait,0,undefined,0,0,190,281373,676604
19,19,female,Belg,1,11,ITC,win,10,right,5,ITC_collect,546,k,0,0,190,280824,677153
19,19,female,Belg,1,11,ITC,win,10,right,5,ITC_outcome,0,undefined,0,0,210,279814,678163
19,19,female,Belg,1,12,guess,neutral,5,right,15,guess_start,736,space,0,0,210,279075,678902
19,19,female,Belg,1,12,guess,neutral,5,right,15,guess_choice,937,j,0,0,210,278133,679844
19,19,female,Belg,1,12,guess,neutral,5,right,15,guess_outcome,0,undefined,0,0,210,276572,681405
19,19,female,Belg,1,12,ITC,neutral,5,right,15,ITC_start,1204,space,0,0,210,275366,682611
19,19,female,Belg,1,12,ITC,neutral,5,right,15,ITC_choice,1940,j,0,0,210,273423,684554
19,19,female,Belg,1,12,ITC,neutral,5,right,15,ITC_wait,0,undefined,0,0,210,268417,689560
19,19,female,Belg,1,12,ITC,neutral,5,right,15,ITC_collect,1285,k,0,0,210,267128,690849
19,19,female,Belg,1,12,ITC,neutral,5,right,15,ITC_outcome,0,undefined,0,0,230,266119,691858
19,19,female,Belg,1,13,guess,neutral,10,left,8,guess_start,372,space,0,0,230,265743,692234
19,19,female,Belg,1,13,guess,neutral,10,left,8,guess_choice,646,f,0,0,230,265091,692886
19,19,female,Belg,1,13,guess,neutral,10,left,8,guess_outcome,0,undefined,0,0,230,263536,694441
19,19,female,Belg,1,13,ITC,neutral,10,left,8,ITC_start,997,space,0,0,230,262537,695440
19,19,female,Belg,1,13,ITC,neutral,10,left,8,ITC_choice,1631,f,0,0,230,260903,697074
19,19,female,Belg,1,13,ITC,neutral,10,left,8,ITC_wait,0,undefined,0,0,230,250895,707082
19,19,female,Belg,1,13,ITC,neutral,10,left,8,ITC_collect,873,k,0,0,230,250020,707957
19,19,female,Belg,1,13,ITC,neutral,10,left,8,ITC_outcome,0,undefined,0,0,250,249010,708967
19,19,female,Belg,1,14,guess,win,5,left,10,guess_start,654,space,0,0,250,248354,709623
19,19,female,Belg,1,14,guess,win,5,left,10,guess_choice,1230,f,0,0,250,247120,710857
19,19,female,Belg,1,14,guess,win,5,left,10,guess_outcome,0,undefined,0,0,270,245559,712418
19,19,female,Belg,1,14,ITC,win,5,left,10,ITC_start,573,space,0,0,270,244985,712992
19,19,female,Belg,1,14,ITC,win,5,left,10,ITC_choice,1394,f,0,0,270,243587,714390
19,19,female,Belg,1,14,ITC,win,5,left,10,ITC_wait,0,undefined,0,0,270,238580,719397
19,19,female,Belg,1,14,ITC,win,5,left,10,ITC_collect,836,k,0,0,270,237742,720235
19,19,female,Belg,1,14,ITC,win,5,left,10,ITC_outcome,0,undefined,0,0,290,236733,721244
19,19,female,Belg,1,15,guess,loss,10,left,5,guess_start,615,space,0,0,290,236115,721862
19,19,female,Belg,1,15,guess,loss,10,left,5,guess_choice,1102,j,0,0,290,235007,722970
19,19,female,Belg,1,15,guess,loss,10,left,5,guess_outcome,0,undefined,0,0,275,233447,724530
19,19,female,Belg,1,15,ITC,loss,10,left,5,ITC_start,1148,space,0,0,275,232298,725679
19,19,female,Belg,1,15,ITC,loss,10,left,5,ITC_choice,1156,f,0,0,275,231139,726838
19,19,female,Belg,1,15,ITC,loss,10,left,5,ITC_wait,0,undefined,0,0,275,221135,736842
19,19,female,Belg,1,15,ITC,loss,10,left,5,ITC_collect,780,k,0,0,275,220352,737625
19,19,female,Belg,1,15,ITC,loss,10,left,5,ITC_outcome,0,undefined,0,0,295,219343,738634
19,19,female,Belg,1,16,guess,loss,5,right,4,guess_start,849,space,0,0,295,218491,739486
19,19,female,Belg,1,16,guess,loss,5,right,4,guess_choice,1042,j,0,0,295,217446,740531
19,19,female,Belg,1,16,guess,loss,5,right,4,guess_outcome,0,undefined,0,0,280,215888,742089
19,19,female,Belg,1,16,ITC,loss,5,right,4,ITC_start,807,space,0,0,280,215079,742898
19,19,female,Belg,1,16,ITC,loss,5,right,4,ITC_choice,1284,j,0,0,280,213793,744184
19,19,female,Belg,1,16,ITC,loss,5,right,4,ITC_wait,0,undefined,0,0,280,208786,749191
19,19,female,Belg,1,16,ITC,loss,5,right,4,ITC_collect,1718,k,0,0,280,207066,750911
19,19,female,Belg,1,16,ITC,loss,5,right,4,ITC_outcome,0,undefined,0,0,300,206056,751921
19,19,female,Belg,1,17,guess,loss,5,right,15,guess_start,796,space,0,0,300,205257,752720
19,19,female,Belg,1,17,guess,loss,5,right,15,guess_choice,697,j,0,0,300,204553,753424
19,19,female,Belg,1,17,guess,loss,5,right,15,guess_outcome,0,undefined,0,0,285,202994,754983
19,19,female,Belg,1,17,ITC,loss,5,right,15,ITC_start,1438,space,0,0,285,201553,756424
19,19,female,Belg,1,17,ITC,loss,5,right,15,ITC_choice,1109,j,0,0,285,200442,757535
19,19,female,Belg,1,17,ITC,loss,5,right,15,ITC_wait,0,undefined,0,0,285,195435,762542
19,19,female,Belg,1,17,ITC,loss,5,right,15,ITC_collect,1092,k,0,0,285,194341,763636
19,19,female,Belg,1,17,ITC,loss,5,right,15,ITC_outcome,0,undefined,0,0,305,193331,764646
19,19,female,Belg,1,18,guess,win,5,left,2,guess_start,758,space,0,0,305,192571,765406
19,19,female,Belg,1,18,guess,win,5,left,2,guess_choice,1692,f,0,0,305,190875,767102
19,19,female,Belg,1,18,guess,win,5,left,2,guess_outcome,0,undefined,0,0,325,189316,768661
19,19,female,Belg,1,18,ITC,win,5,left,2,ITC_start,913,space,0,0,325,188401,769576
19,19,female,Belg,1,18,ITC,win,5,left,2,ITC_choice,1680,f,0,0,325,186718,771259
19,19,female,Belg,1,18,ITC,win,5,left,2,ITC_wait,0,undefined,0,0,325,181716,776261
19,19,female,Belg,1,18,ITC,win,5,left,2,ITC_collect,703,k,0,0,325,181010,776967
19,19,female,Belg,1,18,ITC,win,5,left,2,ITC_outcome,0,undefined,0,0,345,180003,777974
19,19,female,Belg,1,19,guess,neutral,5,left,5,guess_start,522,space,0,0,345,179478,778499
19,19,female,Belg,1,19,guess,neutral,5,left,5,guess_choice,1233,j,0,0,345,178240,779737
19,19,female,Belg,1,19,guess,neutral,5,left,5,guess_outcome,0,undefined,0,0,345,176680,781297
19,19,female,Belg,1,19,ITC,neutral,5,left,5,ITC_start,376,space,0,0,345,176301,781676
19,19,female,Belg,1,19,ITC,neutral,5,left,5,ITC_choice,966,f,0,0,345,175335,782642
19,19,female,Belg,1,19,ITC,neutral,5,left,5,ITC_wait,0,undefined,0,0,345,170330,787647
19,19,female,Belg,1,19,ITC,neutral,5,left,5,ITC_collect,1012,k,0,0,345,169316,788661
19,19,female,Belg,1,19,ITC,neutral,5,left,5,ITC_outcome,0,undefined,0,0,365,168308,789669
19,19,female,Belg,1,20,guess,loss,5,left,3,guess_start,658,space,0,0,365,167648,790329
19,19,female,Belg,1,20,guess,loss,5,left,3,guess_choice,1697,f,0,0,365,165946,792031
19,19,female,Belg,1,20,guess,loss,5,left,3,guess_outcome,0,undefined,0,0,350,164386,793591
19,19,female,Belg,1,20,ITC,loss,5,left,3,ITC_start,645,space,0,0,350,163738,794239
19,19,female,Belg,1,20,ITC,loss,5,left,3,ITC_choice,967,f,0,0,350,162769,795208
19,19,female,Belg,1,20,ITC,loss,5,left,3,ITC_wait,0,undefined,0,0,350,157762,800215
19,19,female,Belg,1,20,ITC,loss,5,left,3,ITC_collect,1237,k,0,0,350,156523,801454
19,19,female,Belg,1,20,ITC,loss,5,left,3,ITC_outcome,0,undefined,0,0,370,155514,802463
19,19,female,Belg,1,21,guess,win,10,left,2,guess_start,674,space,0,0,370,154836,803141
19,19,female,Belg,1,21,guess,win,10,left,2,guess_choice,1404,f,0,0,370,153429,804548
19,19,female,Belg,1,21,guess,win,10,left,2,guess_outcome,0,undefined,0,0,390,151868,806109
19,19,female,Belg,1,21,ITC,win,10,left,2,ITC_start,448,space,0,0,390,151417,806560
19,19,female,Belg,1,21,ITC,win,10,left,2,ITC_choice,1089,f,0,0,390,150326,807651
19,19,female,Belg,1,21,ITC,win,10,left,2,ITC_wait,0,undefined,0,0,390,140319,817658
19,19,female,Belg,1,21,ITC,win,10,left,2,ITC_collect,730,k,0,0,390,139587,818390
19,19,female,Belg,1,21,ITC,win,10,left,2,ITC_outcome,0,undefined,0,0,410,138577,819400
19,19,female,Belg,1,22,guess,win,5,left,7,guess_start,683,space,0,0,410,137891,820086
19,19,female,Belg,1,22,guess,win,5,left,7,guess_choice,904,j,0,0,410,136982,820995
19,19,female,Belg,1,22,guess,win,5,left,7,guess_outcome,0,undefined,0,0,430,135422,822555
19,19,female,Belg,1,22,ITC,win,5,left,7,ITC_start,617,space,0,0,430,134801,823176
19,19,female,Belg,1,22,ITC,win,5,left,7,ITC_choice,990,f,0,0,430,133810,824167
19,19,female,Belg,1,22,ITC,win,5,left,7,ITC_wait,0,undefined,0,0,430,128802,829175
19,19,female,Belg,1,22,ITC,win,5,left,7,ITC_collect,1017,k,0,0,430,127783,830194
19,19,female,Belg,1,22,ITC,win,5,left,7,ITC_outcome,0,undefined,0,0,450,126774,831203
19,19,female,Belg,1,23,guess,win,5,right,16,guess_start,560,space,0,0,450,126213,831764
19,19,female,Belg,1,23,guess,win,5,right,16,guess_choice,749,f,0,0,450,125458,832519
19,19,female,Belg,1,23,guess,win,5,right,16,guess_outcome,0,undefined,0,0,470,123898,834079
19,19,female,Belg,1,23,ITC,win,5,right,16,ITC_start,656,space,0,0,470,123240,834737
19,19,female,Belg,1,23,ITC,win,5,right,16,ITC_choice,1569,j,0,0,470,121669,836308
19,19,female,Belg,1,23,ITC,win,5,right,16,ITC_wait,0,undefined,0,0,470,116661,841316
19,19,female,Belg,1,23,ITC,win,5,right,16,ITC_collect,914,k,0,0,470,115745,842232
19,19,female,Belg,1,23,ITC,win,5,right,16,ITC_outcome,0,undefined,0,0,490,114735,843242
19,19,female,Belg,1,24,guess,neutral,5,left,1,guess_start,420,space,0,0,490,114313,843664
19,19,female,Belg,1,24,guess,neutral,5,left,1,guess_choice,753,j,0,0,490,113555,844422
19,19,female,Belg,1,24,guess,neutral,5,left,1,guess_outcome,0,undefined,0,0,490,111995,845982
19,19,female,Belg,1,24,ITC,neutral,5,left,1,ITC_start,526,space,0,0,490,111466,846511
19,19,female,Belg,1,24,ITC,neutral,5,left,1,ITC_choice,1108,f,0,0,490,110356,847621
19,19,female,Belg,1,24,ITC,neutral,5,left,1,ITC_wait,0,undefined,0,0,490,105349,852628
19,19,female,Belg,1,24,ITC,neutral,5,left,1,ITC_collect,1171,k,0,0,490,104175,853802
19,19,female,Belg,1,24,ITC,neutral,5,left,1,ITC_outcome,0,undefined,0,0,510,103166,854811
19,19,female,Belg,1,25,guess,neutral,5,left,8,guess_start,613,space,0,0,510,102550,855427
19,19,female,Belg,1,25,guess,neutral,5,left,8,guess_choice,864,j,0,0,510,101682,856295
19,19,female,Belg,1,25,guess,neutral,5,left,8,guess_outcome,0,undefined,0,0,510,100123,857854
19,19,female,Belg,1,25,ITC,neutral,5,left,8,ITC_start,720,space,0,0,510,99400,858577
19,19,female,Belg,1,25,ITC,neutral,5,left,8,ITC_choice,813,f,0,0,510,98585,859392
19,19,female,Belg,1,25,ITC,neutral,5,left,8,ITC_wait,0,undefined,0,0,510,93578,864399
19,19,female,Belg,1,25,ITC,neutral,5,left,8,ITC_collect,1170,k,0,0,510,92406,865571
19,19,female,Belg,1,25,ITC,neutral,5,left,8,ITC_outcome,0,undefined,0,0,530,91396,866581
19,19,female,Belg,1,26,guess,loss,10,right,7,guess_start,642,space,0,0,530,90752,867225
19,19,female,Belg,1,26,guess,loss,10,right,7,guess_choice,606,f,0,0,530,90141,867836
19,19,female,Belg,1,26,guess,loss,10,right,7,guess_outcome,0,undefined,0,0,515,88581,869396
19,19,female,Belg,1,26,ITC,loss,10,right,7,ITC_start,797,space,0,0,515,87783,870194
19,19,female,Belg,1,26,ITC,loss,10,right,7,ITC_choice,1157,j,0,0,515,86623,871354
19,19,female,Belg,1,26,ITC,loss,10,right,7,ITC_wait,0,undefined,0,0,515,76615,881362
19,19,female,Belg,1,26,ITC,loss,10,right,7,ITC_collect,1214,k,0,0,515,75400,882577
19,19,female,Belg,1,26,ITC,loss,10,right,7,ITC_outcome,0,undefined,0,0,535,74389,883588
19,19,female,Belg,1,27,guess,neutral,10,right,7,guess_start,531,space,0,0,535,73856,884121
19,19,female,Belg,1,27,guess,neutral,10,right,7,guess_choice,920,j,0,0,535,72930,885047
19,19,female,Belg,1,27,guess,neutral,10,right,7,guess_outcome,0,undefined,0,0,535,71375,886602
19,19,female,Belg,1,27,ITC,neutral,10,right,7,ITC_start,521,space,0,0,535,70852,887125
19,19,female,Belg,1,27,ITC,neutral,10,right,7,ITC_choice,972,j,0,0,535,69877,888100
19,19,female,Belg,1,27,ITC,neutral,10,right,7,ITC_wait,0,undefined,0,0,535,59870,898107
19,19,female,Belg,1,27,ITC,neutral,10,right,7,ITC_collect,561,k,0,0,535,59306,898671
19,19,female,Belg,1,27,ITC,neutral,10,right,7,ITC_outcome,0,undefined,0,0,555,58296,899681
19,19,female,Belg,1,28,guess,neutral,5,left,10,guess_start,522,space,0,0,555,57771,900206
19,19,female,Belg,1,28,guess,neutral,5,left,10,guess_choice,792,j,0,0,555,56974,901003
19,19,female,Belg,1,28,guess,neutral,5,left,10,guess_outcome,0,undefined,0,0,555,55417,902560
19,19,female,Belg,1,28,ITC,neutral,5,left,10,ITC_start,650,space,0,0,555,54766,903211
19,19,female,Belg,1,28,ITC,neutral,5,left,10,ITC_choice,1124,f,0,0,555,53640,904337
19,19,female,Belg,1,28,ITC,neutral,5,left,10,ITC_wait,0,undefined,0,0,555,48634,909343
19,19,female,Belg,1,28,ITC,neutral,5,left,10,ITC_collect,540,k,0,0,555,48093,909884
19,19,female,Belg,1,28,ITC,neutral,5,left,10,ITC_outcome,0,undefined,0,0,575,47086,910891
19,19,female,Belg,1,29,guess,neutral,5,left,2,guess_start,513,space,0,0,575,46571,911406
19,19,female,Belg,1,29,guess,neutral,5,left,2,guess_choice,743,j,0,0,575,45821,912156
19,19,female,Belg,1,29,guess,neutral,5,left,2,guess_outcome,0,undefined,0,0,575,44262,913715
19,19,female,Belg,1,29,ITC,neutral,5,left,2,ITC_start,554,space,0,0,575,43705,914272
19,19,female,Belg,1,29,ITC,neutral,5,left,2,ITC_choice,1070,f,0,0,575,42634,915343
19,19,female,Belg,1,29,ITC,neutral,5,left,2,ITC_wait,0,undefined,0,0,575,37626,920351
19,19,female,Belg,1,29,ITC,neutral,5,left,2,ITC_collect,533,k,0,0,575,37091,920886
19,19,female,Belg,1,29,ITC,neutral,5,left,2,ITC_outcome,0,undefined,0,0,595,36086,921891
19,19,female,Belg,1,30,guess,neutral,5,left,7,guess_start,439,space,0,0,595,35645,922332
19,19,female,Belg,1,30,guess,neutral,5,left,7,guess_choice,684,f,0,0,595,34955,923022
19,19,female,Belg,1,30,guess,neutral,5,left,7,guess_outcome,0,undefined,0,0,595,33396,924581
19,19,female,Belg,1,30,ITC,neutral,5,left,7,ITC_start,1849,space,0,0,595,31544,926433
19,19,female,Belg,1,30,ITC,neutral,5,left,7,ITC_choice,1097,f,0,0,595,30445,927532
19,19,female,Belg,1,30,ITC,neutral,5,left,7,ITC_wait,0,undefined,0,0,595,25438,932539
19,19,female,Belg,1,30,ITC,neutral,5,left,7,ITC_collect,734,k,0,0,595,24702,933275
19,19,female,Belg,1,30,ITC,neutral,5,left,7,ITC_outcome,0,undefined,0,0,615,23695,934282
19,19,female,Belg,1,31,guess,loss,5,right,8,guess_start,411,space,0,0,615,23283,934694
19,19,female,Belg,1,31,guess,loss,5,right,8,guess_choice,865,f,0,0,615,22412,935565
19,19,female,Belg,1,31,guess,loss,5,right,8,guess_outcome,0,undefined,0,0,600,20853,937124
19,19,female,Belg,1,31,ITC,loss,5,right,8,ITC_start,1282,space,0,0,600,19570,938407
19,19,female,Belg,1,31,ITC,loss,5,right,8,ITC_choice,1525,j,0,0,600,18043,939934
19,19,female,Belg,1,31,ITC,loss,5,right,8,ITC_wait,0,undefined,0,0,600,13036,944941
19,19,female,Belg,1,31,ITC,loss,5,right,8,ITC_collect,661,k,0,0,600,12372,945605
19,19,female,Belg,1,31,ITC,loss,5,right,8,ITC_outcome,0,undefined,0,0,620,11365,946612
19,19,female,Belg,1,32,guess,neutral,5,left,13,guess_start,328,space,0,0,620,11034,946943
19,19,female,Belg,1,32,guess,neutral,5,left,13,guess_choice,710,f,0,0,620,10319,947658
19,19,female,Belg,1,32,guess,neutral,5,left,13,guess_outcome,0,undefined,0,0,620,8759,949218
19,19,female,Belg,1,32,ITC,neutral,5,left,13,ITC_start,334,space,0,0,620,8423,949554
19,19,female,Belg,1,32,ITC,neutral,5,left,13,ITC_choice,1014,f,0,0,620,7406,950571
19,19,female,Belg,1,32,ITC,neutral,5,left,13,ITC_wait,0,undefined,0,0,620,2400,955577
19,19,female,Belg,1,32,ITC,neutral,5,left,13,ITC_collect,915,k,0,0,620,1482,956495
19,19,female,Belg,1,32,ITC,neutral,5,left,13,ITC_outcome,0,undefined,0,0,640,474,957503
19,19,female,Belg,1,33,guess,win,10,right,3,guess_start,431,space,0,0,640,41,957936
19,19,female,Belg,1,33,guess,win,10,right,3,guess_choice,0,undefined,0,0,640,-9,957986
19,19,female,Belg,2,34,guess,win,10,right,4,guess_start,2875,space,0,0,0,477123,1202090
19,19,female,Belg,2,34,guess,win,10,right,4,guess_choice,1000,f,0,0,0,476119,1203094
19,19,female,Belg,2,34,guess,win,10,right,4,guess_outcome,0,undefined,0,0,20,474558,1204655
19,19,female,Belg,2,34,ITC,win,10,right,4,ITC_start,1035,space,0,0,20,473521,1205692
19,19,female,Belg,2,34,ITC,win,10,right,4,ITC_choice,1907,j,0,0,20,471613,1207600
19,19,female,Belg,2,34,ITC,win,10,right,4,ITC_wait,0,undefined,0,0,20,461606,1217607
19,19,female,Belg,2,34,ITC,win,10,right,4,ITC_collect,429,k,0,0,20,461174,1218039
19,19,female,Belg,2,34,ITC,win,10,right,4,ITC_outcome,0,undefined,0,0,40,460164,1219049
19,19,female,Belg,2,35,guess,loss,10,left,4,guess_start,355,space,0,0,40,459807,1219406
19,19,female,Belg,2,35,guess,loss,10,left,4,guess_choice,1059,f,0,0,40,458742,1220471
19,19,female,Belg,2,35,guess,loss,10,left,4,guess_outcome,0,undefined,0,0,25,457182,1222031
19,19,female,Belg,2,35,ITC,loss,10,left,4,ITC_start,536,space,0,0,25,456644,1222569
19,19,female,Belg,2,35,ITC,loss,10,left,4,ITC_choice,1223,f,0,0,25,455418,1223795
19,19,female,Belg,2,35,ITC,loss,10,left,4,ITC_wait,0,undefined,0,0,25,445412,1233801
19,19,female,Belg,2,35,ITC,loss,10,left,4,ITC_collect,651,k,0,0,25,444757,1234456
19,19,female,Belg,2,35,ITC,loss,10,left,4,ITC_outcome,0,undefined,0,0,45,443748,1235465
19,19,female,Belg,2,36,guess,neutral,10,right,1,guess_start,380,space,0,0,45,443366,1235847
19,19,female,Belg,2,36,guess,neutral,10,right,1,guess_choice,621,f,0,0,45,442739,1236474
19,19,female,Belg,2,36,guess,neutral,10,right,1,guess_outcome,0,undefined,0,0,45,441180,1238033
19,19,female,Belg,2,36,ITC,neutral,10,right,1,ITC_start,689,space,0,0,45,440489,1238724
19,19,female,Belg,2,36,ITC,neutral,10,right,1,ITC_choice,1175,j,0,0,45,439311,1239902
19,19,female,Belg,2,36,ITC,neutral,10,right,1,ITC_wait,0,undefined,0,0,45,429305,1249908
19,19,female,Belg,2,36,ITC,neutral,10,right,1,ITC_collect,471,k,0,0,45,428832,1250381
19,19,female,Belg,2,36,ITC,neutral,10,right,1,ITC_outcome,0,undefined,0,0,65,427824,1251389
19,19,female,Belg,2,37,guess,loss,10,right,6,guess_start,744,space,0,0,65,427078,1252135
19,19,female,Belg,2,37,guess,loss,10,right,6,guess_choice,1044,j,0,0,65,426029,1253184
19,19,female,Belg,2,37,guess,loss,10,right,6,guess_outcome,0,undefined,0,0,50,424470,1254743
19,19,female,Belg,2,37,ITC,loss,10,right,6,ITC_start,937,space,0,0,50,423530,1255683
19,19,female,Belg,2,37,ITC,loss,10,right,6,ITC_choice,1746,j,0,0,50,421783,1257430
19,19,female,Belg,2,37,ITC,loss,10,right,6,ITC_wait,0,undefined,0,0,50,411780,1267433
19,19,female,Belg,2,37,ITC,loss,10,right,6,ITC_collect,571,k,0,0,50,411207,1268006
19,19,female,Belg,2,37,ITC,loss,10,right,6,ITC_outcome,0,undefined,0,0,70,410197,1269016
19,19,female,Belg,2,38,guess,neutral,10,left,3,guess_start,640,space,0,0,70,409556,1269657
19,19,female,Belg,2,38,guess,neutral,10,left,3,guess_choice,640,j,0,0,70,408913,1270300
19,19,female,Belg,2,38,guess,neutral,10,left,3,guess_outcome,0,undefined,0,0,70,407353,1271860
19,19,female,Belg,2,38,ITC,neutral,10,left,3,ITC_start,856,space,0,0,70,406495,1272718
19,19,female,Belg,2,38,ITC,neutral,10,left,3,ITC_choice,1526,f,0,0,70,404967,1274246
19,19,female,Belg,2,38,ITC,neutral,10,left,3,ITC_wait,0,undefined,0,0,70,394959,1284254
19,19,female,Belg,2,38,ITC,neutral,10,left,3,ITC_collect,605,k,0,0,70,394352,1284861
19,19,female,Belg,2,38,ITC,neutral,10,left,3,ITC_outcome,0,undefined,0,0,90,393342,1285871
19,19,female,Belg,2,39,guess,loss,5,left,9,guess_start,792,space,0,0,90,392548,1286665
19,19,female,Belg,2,39,guess,loss,5,left,9,guess_choice,1181,j,0,0,90,391362,1287851
19,19,female,Belg,2,39,guess,loss,5,left,9,guess_outcome,0,undefined,0,0,75,389806,1289407
19,19,female,Belg,2,39,ITC,loss,5,left,9,ITC_start,525,space,0,0,75,389278,1289935
19,19,female,Belg,2,39,ITC,loss,5,left,9,ITC_choice,1081,f,0,0,75,388194,1291019
19,19,female,Belg,2,39,ITC,loss,5,left,9,ITC_wait,0,undefined,0,0,75,383187,1296026
19,19,female,Belg,2,39,ITC,loss,5,left,9,ITC_collect,699,k,0,0,75,382486,1296727
19,19,female,Belg,2,39,ITC,loss,5,left,9,ITC_outcome,0,undefined,0,0,95,381476,1297737
19,19,female,Belg,2,40,guess,loss,5,right,11,guess_start,523,space,0,0,95,380951,1298262
19,19,female,Belg,2,40,guess,loss,5,right,11,guess_choice,1413,j,0,0,95,379532,1299681
19,19,female,Belg,2,40,guess,loss,5,right,11,guess_outcome,0,undefined,0,0,80,377972,1301241
19,19,female,Belg,2,40,ITC,loss,5,right,11,ITC_start,909,space,0,0,80,377062,1302151
19,19,female,Belg,2,40,ITC,loss,5,right,11,ITC_choice,1338,j,0,0,80,375720,1303493
19,19,female,Belg,2,40,ITC,loss,5,right,11,ITC_wait,0,undefined,0,0,80,370714,1308499
19,19,female,Belg,2,40,ITC,loss,5,right,11,ITC_collect,1218,k,0,0,80,369493,1309720
19,19,female,Belg,2,40,ITC,loss,5,right,11,ITC_outcome,0,undefined,0,0,100,368484,1310729
19,19,female,Belg,2,41,guess,loss,5,left,7,guess_start,600,space,0,0,100,367881,1311332
19,19,female,Belg,2,41,guess,loss,5,left,7,guess_choice,416,f,0,0,100,367461,1311752
19,19,female,Belg,2,41,guess,loss,5,left,7,guess_outcome,0,undefined,0,0,85,365903,1313310
19,19,female,Belg,2,41,ITC,loss,5,left,7,ITC_start,1044,space,0,0,85,364857,1314356
19,19,female,Belg,2,41,ITC,loss,5,left,7,ITC_choice,852,f,0,0,85,364003,1315210
19,19,female,Belg,2,41,ITC,loss,5,left,7,ITC_wait,0,undefined,0,0,85,358996,1320217
19,19,female,Belg,2,41,ITC,loss,5,left,7,ITC_collect,1066,k,0,0,85,357928,1321285
19,19,female,Belg,2,41,ITC,loss,5,left,7,ITC_outcome,0,undefined,0,0,105,356918,1322295
19,19,female,Belg,2,42,guess,neutral,5,right,12,guess_start,469,space,0,0,105,356447,1322766
19,19,female,Belg,2,42,guess,neutral,5,right,12,guess_choice,963,j,0,0,105,355480,1323733
19,19,female,Belg,2,42,guess,neutral,5,right,12,guess_outcome,0,undefined,0,0,105,353920,1325293
19,19,female,Belg,2,42,ITC,neutral,5,right,12,ITC_start,591,space,0,0,105,353326,1325887
19,19,female,Belg,2,42,ITC,neutral,5,right,12,ITC_choice,1610,j,0,0,105,351713,1327500
19,19,female,Belg,2,42,ITC,neutral,5,right,12,ITC_wait,0,undefined,0,0,105,346706,1332507
19,19,female,Belg,2,42,ITC,neutral,5,right,12,ITC_collect,543,k,0,0,105,346161,1333052
19,19,female,Belg,2,42,ITC,neutral,5,right,12,ITC_outcome,0,undefined,0,0,125,345151,1334062
19,19,female,Belg,2,43,guess,neutral,5,right,11,guess_start,426,space,0,0,125,344723,1334490
19,19,female,Belg,2,43,guess,neutral,5,right,11,guess_choice,523,j,0,0,125,344195,1335018
19,19,female,Belg,2,43,guess,neutral,5,right,11,guess_outcome,0,undefined,0,0,125,342639,1336574
19,19,female,Belg,2,43,ITC,neutral,5,right,11,ITC_start,386,space,0,0,125,342251,1336962
19,19,female,Belg,2,43,ITC,neutral,5,right,11,ITC_choice,910,j,0,0,125,341339,1337874
19,19,female,Belg,2,43,ITC,neutral,5,right,11,ITC_wait,0,undefined,0,0,125,336335,1342878
19,19,female,Belg,2,43,ITC,neutral,5,right,11,ITC_collect,657,k,0,0,125,335676,1343537
19,19,female,Belg,2,43,ITC,neutral,5,right,11,ITC_outcome,0,undefined,0,0,145,334666,1344547
19,19,female,Belg,2,44,guess,loss,10,right,2,guess_start,389,space,0,0,145,334276,1344937
19,19,female,Belg,2,44,guess,loss,10,right,2,guess_choice,1131,j,0,0,145,333140,1346073
19,19,female,Belg,2,44,guess,loss,10,right,2,guess_outcome,0,undefined,0,0,130,331580,1347633
19,19,female,Belg,2,44,ITC,loss,10,right,2,ITC_start,952,space,0,0,130,330625,1348588
19,19,female,Belg,2,44,ITC,loss,10,right,2,ITC_choice,822,j,0,0,130,329800,1349413
19,19,female,Belg,2,44,ITC,loss,10,right,2,ITC_wait,0,undefined,0,0,130,319793,1359420
19,19,female,Belg,2,44,ITC,loss,10,right,2,ITC_collect,819,k,0,0,130,318972,1360241
19,19,female,Belg,2,44,ITC,loss,10,right,2,ITC_outcome,0,undefined,0,0,150,317963,1361250
19,19,female,Belg,2,45,guess,win,5,left,11,guess_start,520,space,0,0,150,317440,1361773
19,19,female,Belg,2,45,guess,win,5,left,11,guess_choice,695,f,0,0,150,316741,1362472
19,19,female,Belg,2,45,guess,win,5,left,11,guess_outcome,0,undefined,0,0,170,315181,1364032
19,19,female,Belg,2,45,ITC,win,5,left,11,ITC_start,958,space,0,0,170,314220,1364993
19,19,female,Belg,2,45,ITC,win,5,left,11,ITC_choice,739,f,0,0,170,313479,1365734
19,19,female,Belg,2,45,ITC,win,5,left,11,ITC_wait,0,undefined,0,0,170,308472,1370741
19,19,female,Belg,2,45,ITC,win,5,left,11,ITC_collect,336,k,0,0,170,308133,1371080
19,19,female,Belg,2,45,ITC,win,5,left,11,ITC_outcome,0,undefined,0,0,190,307124,1372089
19,19,female,Belg,2,46,guess,win,5,right,8,guess_start,620,space,0,0,190,306500,1372713
19,19,female,Belg,2,46,guess,win,5,right,8,guess_choice,883,j,0,0,190,305613,1373600
19,19,female,Belg,2,46,guess,win,5,right,8,guess_outcome,0,undefined,0,0,210,304052,1375161
19,19,female,Belg,2,46,ITC,win,5,right,8,ITC_start,430,space,0,0,210,303620,1375593
19,19,female,Belg,2,46,ITC,win,5,right,8,ITC_choice,1270,j,0,0,210,302348,1376865
19,19,female,Belg,2,46,ITC,win,5,right,8,ITC_wait,0,undefined,0,0,210,297341,1381872
19,19,female,Belg,2,46,ITC,win,5,right,8,ITC_collect,496,k,0,0,210,296843,1382370
19,19,female,Belg,2,46,ITC,win,5,right,8,ITC_outcome,0,undefined,0,0,230,295834,1383379
19,19,female,Belg,2,47,guess,neutral,5,right,4,guess_start,573,space,0,0,230,295257,1383956
19,19,female,Belg,2,47,guess,neutral,5,right,4,guess_choice,583,f,0,0,230,294669,1384544
19,19,female,Belg,2,47,guess,neutral,5,right,4,guess_outcome,0,undefined,0,0,230,293109,1386104
19,19,female,Belg,2,47,ITC,neutral,5,right,4,ITC_start,546,space,0,0,230,292561,1386652
19,19,female,Belg,2,47,ITC,neutral,5,right,4,ITC_choice,1065,j,0,0,230,291492,1387721
19,19,female,Belg,2,47,ITC,neutral,5,right,4,ITC_wait,0,undefined,0,0,230,286485,1392728
19,19,female,Belg,2,47,ITC,neutral,5,right,4,ITC_collect,557,k,0,0,230,285927,1393286
19,19,female,Belg,2,47,ITC,neutral,5,right,4,ITC_outcome,0,undefined,0,0,250,284917,1394296
19,19,female,Belg,2,48,guess,neutral,5,right,6,guess_start,415,space,0,0,250,284500,1394713
19,19,female,Belg,2,48,guess,neutral,5,right,6,guess_choice,524,j,0,0,250,283973,1395240
19,19,female,Belg,2,48,guess,neutral,5,right,6,guess_outcome,0,undefined,0,0,250,282412,1396801
19,19,female,Belg,2,48,ITC,neutral,5,right,6,ITC_start,1313,space,0,0,250,281097,1398116
19,19,female,Belg,2,48,ITC,neutral,5,right,6,ITC_choice,690,j,0,0,250,280404,1398809
19,19,female,Belg,2,48,ITC,neutral,5,right,6,ITC_wait,0,undefined,0,0,250,275398,1403815
19,19,female,Belg,2,48,ITC,neutral,5,right,6,ITC_collect,989,k,0,0,250,274406,1404807
19,19,female,Belg,2,48,ITC,neutral,5,right,6,ITC_outcome,0,undefined,0,0,270,273396,1405817
19,19,female,Belg,2,49,guess,neutral,5,right,16,guess_start,651,space,0,0,270,272743,1406470
19,19,female,Belg,2,49,guess,neutral,5,right,16,guess_choice,750,j,0,0,270,271987,1407226
19,19,female,Belg,2,49,guess,neutral,5,right,16,guess_outcome,0,undefined,0,0,270,270427,1408786
19,19,female,Belg,2,49,ITC,neutral,5,right,16,ITC_start,2044,space,0,0,270,268380,1410833
19,19,female,Belg,2,49,ITC,neutral,5,right,16,ITC_choice,988,j,0,0,270,267389,1411824
19,19,female,Belg,2,49,ITC,neutral,5,right,16,ITC_wait,0,undefined,0,0,270,262382,1416831
19,19,female,Belg,2,49,ITC,neutral,5,right,16,ITC_collect,455,k,0,0,270,261925,1417288
19,19,female,Belg,2,49,ITC,neutral,5,right,16,ITC_outcome,0,undefined,0,0,290,260916,1418297
19,19,female,Belg,2,50,guess,loss,5,right,14,guess_start,566,space,0,0,290,260348,1418865
19,19,female,Belg,2,50,guess,loss,5,right,14,guess_choice,668,f,0,0,290,259674,1419539
19,19,female,Belg,2,50,guess,loss,5,right,14,guess_outcome,0,undefined,0,0,275,258114,1421099
19,19,female,Belg,2,50,ITC,loss,5,right,14,ITC_start,552,space,0,0,275,257561,1421652
19,19,female,Belg,2,50,ITC,loss,5,right,14,ITC_choice,937,j,0,0,275,256621,1422592
19,19,female,Belg,2,50,ITC,loss,5,right,14,ITC_wait,0,undefined,0,0,275,251614,1427599
19,19,female,Belg,2,50,ITC,loss,5,right,14,ITC_collect,537,k,0,0,275,251075,1428138
19,19,female,Belg,2,50,ITC,loss,5,right,14,ITC_outcome,0,undefined,0,0,295,250066,1429147
19,19,female,Belg,2,51,guess,neutral,5,right,14,guess_start,884,space,0,0,295,249179,1430034
19,19,female,Belg,2,51,guess,neutral,5,right,14,guess_choice,689,j,0,0,295,248486,1430727
19,19,female,Belg,2,51,guess,neutral,5,right,14,guess_outcome,0,undefined,0,0,295,246926,1432287
19,19,female,Belg,2,51,ITC,neutral,5,right,14,ITC_start,852,space,0,0,295,246072,1433141
19,19,female,Belg,2,51,ITC,neutral,5,right,14,ITC_choice,1189,j,0,0,295,244881,1434332
19,19,female,Belg,2,51,ITC,neutral,5,right,14,ITC_wait,0,undefined,0,0,295,239874,1439339
19,19,female,Belg,2,51,ITC,neutral,5,right,14,ITC_collect,889,k,0,0,295,238982,1440231
19,19,female,Belg,2,51,ITC,neutral,5,right,14,ITC_outcome,0,undefined,0,0,315,237973,1441240
19,19,female,Belg,2,52,guess,loss,5,left,1,guess_start,346,space,0,0,315,237624,1441589
19,19,female,Belg,2,52,guess,loss,5,left,1,guess_choice,890,f,0,0,315,236729,1442484
19,19,female,Belg,2,52,guess,loss,5,left,1,guess_outcome,0,undefined,0,0,300,235172,1444041
19,19,female,Belg,2,52,ITC,loss,5,left,1,ITC_start,734,space,0,0,300,234437,1444776
19,19,female,Belg,2,52,ITC,loss,5,left,1,ITC_choice,1086,f,0,0,300,233349,1445864
19,19,female,Belg,2,52,ITC,loss,5,left,1,ITC_wait,0,undefined,0,0,300,228341,1450872
19,19,female,Belg,2,52,ITC,loss,5,left,1,ITC_collect,719,k,0,0,300,227619,1451594
19,19,female,Belg,2,52,ITC,loss,5,left,1,ITC_outcome,0,undefined,0,0,320,226610,1452603
19,19,female,Belg,2,53,guess,win,5,right,5,guess_start,338,space,0,0,320,226270,1452943
19,19,female,Belg,2,53,guess,win,5,right,5,guess_choice,3579,f,0,0,320,222685,1456528
19,19,female,Belg,2,53,guess,win,5,right,5,guess_outcome,0,undefined,0,0,340,221125,1458088
19,19,female,Belg,2,53,ITC,win,5,right,5,ITC_start,616,space,0,0,340,220507,1458706
19,19,female,Belg,2,53,ITC,win,5,right,5,ITC_choice,1347,j,0,0,340,219157,1460056
19,19,female,Belg,2,53,ITC,win,5,right,5,ITC_wait,0,undefined,0,0,340,214149,1465064
19,19,female,Belg,2,53,ITC,win,5,right,5,ITC_collect,566,k,0,0,340,213580,1465633
19,19,female,Belg,2,53,ITC,win,5,right,5,ITC_outcome,0,undefined,0,0,360,212571,1466642
19,19,female,Belg,2,54,guess,loss,5,left,13,guess_start,478,space,0,0,360,212092,1467121
19,19,female,Belg,2,54,guess,loss,5,left,13,guess_choice,1238,f,0,0,360,210848,1468365
19,19,female,Belg,2,54,guess,loss,5,left,13,guess_outcome,0,undefined,0,0,345,209289,1469924
19,19,female,Belg,2,54,ITC,loss,5,left,13,ITC_start,789,space,0,0,345,208497,1470716
19,19,female,Belg,2,54,ITC,loss,5,left,13,ITC_choice,799,f,0,0,345,207698,1471515
19,19,female,Belg,2,54,ITC,loss,5,left,13,ITC_wait,0,undefined,0,0,345,202693,1476520
19,19,female,Belg,2,54,ITC,loss,5,left,13,ITC_collect,542,k,0,0,345,202148,1477065
19,19,female,Belg,2,54,ITC,loss,5,left,13,ITC_outcome,0,undefined,0,0,365,201139,1478074
19,19,female,Belg,2,55,guess,neutral,10,left,2,guess_start,491,space,0,0,365,200646,1478567
19,19,female,Belg,2,55,guess,neutral,10,left,2,guess_choice,651,f,0,0,365,199989,1479224
19,19,female,Belg,2,55,guess,neutral,10,left,2,guess_outcome,0,undefined,0,0,365,198430,1480783
19,19,female,Belg,2,55,ITC,neutral,10,left,2,ITC_start,1241,space,0,0,365,197186,1482027
19,19,female,Belg,2,55,ITC,neutral,10,left,2,ITC_choice,954,f,0,0,365,196229,1482984
19,19,female,Belg,2,55,ITC,neutral,10,left,2,ITC_wait,0,undefined,0,0,365,186224,1492989
19,19,female,Belg,2,55,ITC,neutral,10,left,2,ITC_collect,419,k,0,0,365,185802,1493411
19,19,female,Belg,2,55,ITC,neutral,10,left,2,ITC_outcome,0,undefined,0,0,385,184793,1494420
19,19,female,Belg,2,56,guess,win,5,left,4,guess_start,365,space,0,0,385,184426,1494787
19,19,female,Belg,2,56,guess,win,5,left,4,guess_choice,881,j,0,0,385,183539,1495674
19,19,female,Belg,2,56,guess,win,5,left,4,guess_outcome,0,undefined,0,0,405,181979,1497234
19,19,female,Belg,2,56,ITC,win,5,left,4,ITC_start,643,space,0,0,405,181334,1497879
19,19,female,Belg,2,56,ITC,win,5,left,4,ITC_choice,829,f,0,0,405,180503,1498710
19,19,female,Belg,2,56,ITC,win,5,left,4,ITC_wait,0,undefined,0,0,405,175495,1503718
19,19,female,Belg,2,56,ITC,win,5,left,4,ITC_collect,974,k,0,0,405,174518,1504695
19,19,female,Belg,2,56,ITC,win,5,left,4,ITC_outcome,0,undefined,0,0,425,173509,1505704
19,19,female,Belg,2,57,guess,win,10,left,1,guess_start,1001,space,0,0,425,172506,1506707
19,19,female,Belg,2,57,guess,win,10,left,1,guess_choice,1006,j,0,0,425,171496,1507717
19,19,female,Belg,2,57,guess,win,10,left,1,guess_outcome,0,undefined,0,0,445,169936,1509277
19,19,female,Belg,2,57,ITC,win,10,left,1,ITC_start,357,space,0,0,445,169576,1509637
19,19,female,Belg,2,57,ITC,win,10,left,1,ITC_choice,1047,f,0,0,445,168526,1510687
19,19,female,Belg,2,57,ITC,win,10,left,1,ITC_wait,0,undefined,0,0,445,158523,1520690
19,19,female,Belg,2,57,ITC,win,10,left,1,ITC_collect,520,k,0,0,445,158001,1521212
19,19,female,Belg,2,57,ITC,win,10,left,1,ITC_outcome,0,undefined,0,0,465,156990,1522223
19,19,female,Belg,2,58,guess,neutral,5,left,3,guess_start,439,space,0,0,465,156550,1522663
19,19,female,Belg,2,58,guess,neutral,5,left,3,guess_choice,621,f,0,0,465,155924,1523289
19,19,female,Belg,2,58,guess,neutral,5,left,3,guess_outcome,0,undefined,0,0,465,154365,1524848
19,19,female,Belg,2,58,ITC,neutral,5,left,3,ITC_start,485,space,0,0,465,153877,1525336
19,19,female,Belg,2,58,ITC,neutral,5,left,3,ITC_choice,722,f,0,0,465,153152,1526061
19,19,female,Belg,2,58,ITC,neutral,5,left,3,ITC_wait,0,undefined,0,0,465,148145,1531068
19,19,female,Belg,2,58,ITC,neutral,5,left,3,ITC_collect,546,k,0,0,465,147598,1531615
19,19,female,Belg,2,58,ITC,neutral,5,left,3,ITC_outcome,0,undefined,0,0,485,146588,1532625
19,19,female,Belg,2,59,guess,neutral,10,left,5,guess_start,384,space,0,0,485,146200,1533013
19,19,female,Belg,2,59,guess,neutral,10,left,5,guess_choice,591,f,0,0,485,145605,1533608
19,19,female,Belg,2,59,guess,neutral,10,left,5,guess_outcome,0,undefined,0,0,485,144044,1535169
19,19,female,Belg,2,59,ITC,neutral,10,left,5,ITC_start,339,space,0,0,485,143704,1535509
19,19,female,Belg,2,59,ITC,neutral,10,left,5,ITC_choice,852,f,0,0,485,142850,1536363
19,19,female,Belg,2,59,ITC,neutral,10,left,5,ITC_wait,0,undefined,0,0,485,132843,1546370
19,19,female,Belg,2,59,ITC,neutral,10,left,5,ITC_collect,414,k,0,0,485,132425,1546788
19,19,female,Belg,2,59,ITC,neutral,10,left,5,ITC_outcome,0,undefined,0,0,505,131415,1547798
19,19,female,Belg,2,60,guess,loss,10,left,1,guess_start,711,space,0,0,505,130701,1548512
19,19,female,Belg,2,60,guess,loss,10,left,1,guess_choice,726,j,0,0,505,129970,1549243
19,19,female,Belg,2,60,guess,loss,10,left,1,guess_outcome,0,undefined,0,0,490,128410,1550803
19,19,female,Belg,2,60,ITC,loss,10,left,1,ITC_start,323,space,0,0,490,128085,1551128
19,19,female,Belg,2,60,ITC,loss,10,left,1,ITC_choice,597,f,0,0,490,127486,1551727
19,19,female,Belg,2,60,ITC,loss,10,left,1,ITC_wait,0,undefined,0,0,490,117479,1561734
19,19,female,Belg,2,60,ITC,loss,10,left,1,ITC_collect,360,k,0,0,490,117117,1562096
19,19,female,Belg,2,60,ITC,loss,10,left,1,ITC_outcome,0,undefined,0,0,510,116112,1563101
19,19,female,Belg,2,61,guess,win,10,right,8,guess_start,567,space,0,0,510,115542,1563671
19,19,female,Belg,2,61,guess,win,10,right,8,guess_choice,913,f,0,0,510,114624,1564589
19,19,female,Belg,2,61,guess,win,10,right,8,guess_outcome,0,undefined,0,0,530,113065,1566148
19,19,female,Belg,2,61,ITC,win,10,right,8,ITC_start,300,space,0,0,530,112763,1566450
19,19,female,Belg,2,61,ITC,win,10,right,8,ITC_choice,932,j,0,0,530,111830,1567383
19,19,female,Belg,2,61,ITC,win,10,right,8,ITC_wait,0,undefined,0,0,530,101823,1577390
19,19,female,Belg,2,61,ITC,win,10,right,8,ITC_collect,651,k,0,0,530,101169,1578044
19,19,female,Belg,2,61,ITC,win,10,right,8,ITC_outcome,0,undefined,0,0,550,100159,1579054
19,19,female,Belg,2,62,guess,win,5,right,6,guess_start,381,space,0,0,550,99776,1579437
19,19,female,Belg,2,62,guess,win,5,right,6,guess_choice,550,j,0,0,550,99222,1579991
19,19,female,Belg,2,62,guess,win,5,right,6,guess_outcome,0,undefined,0,0,570,97663,1581550
19,19,female,Belg,2,62,ITC,win,5,right,6,ITC_start,297,space,0,0,570,97363,1581850
19,19,female,Belg,2,62,ITC,win,5,right,6,ITC_choice,1091,j,0,0,570,96270,1582943
19,19,female,Belg,2,62,ITC,win,5,right,6,ITC_wait,0,undefined,0,0,570,91262,1587951
19,19,female,Belg,2,62,ITC,win,5,right,6,ITC_collect,1191,k,0,0,570,90070,1589143
19,19,female,Belg,2,62,ITC,win,5,right,6,ITC_outcome,0,undefined,0,0,590,89061,1590152
19,19,female,Belg,2,63,guess,neutral,5,right,9,guess_start,555,space,0,0,590,88504,1590709
19,19,female,Belg,2,63,guess,neutral,5,right,9,guess_choice,541,j,0,0,590,87958,1591255
19,19,female,Belg,2,63,guess,neutral,5,right,9,guess_outcome,0,undefined,0,0,590,86398,1592815
19,19,female,Belg,2,63,ITC,neutral,5,right,9,ITC_start,1310,space,0,0,590,85085,1594128
19,19,female,Belg,2,63,ITC,neutral,5,right,9,ITC_choice,688,j,0,0,590,84395,1594818
19,19,female,Belg,2,63,ITC,neutral,5,right,9,ITC_wait,0,undefined,0,0,590,79387,1599826
19,19,female,Belg,2,63,ITC,neutral,5,right,9,ITC_collect,608,k,0,0,590,78777,1600436
19,19,female,Belg,2,63,ITC,neutral,5,right,9,ITC_outcome,0,undefined,0,0,610,77768,1601445
19,19,female,Belg,2,64,guess,win,5,right,3,guess_start,353,space,0,0,610,77410,1601803
19,19,female,Belg,2,64,guess,win,5,right,3,guess_choice,549,f,0,0,610,76857,1602356
19,19,female,Belg,2,64,guess,win,5,right,3,guess_outcome,0,undefined,0,0,630,75301,1603912
19,19,female,Belg,2,64,ITC,win,5,right,3,ITC_start,757,space,0,0,630,74541,1604672
19,19,female,Belg,2,64,ITC,win,5,right,3,ITC_choice,713,j,0,0,630,73826,1605387
19,19,female,Belg,2,64,ITC,win,5,right,3,ITC_wait,0,undefined,0,0,630,68819,1610394
19,19,female,Belg,2,64,ITC,win,5,right,3,ITC_collect,515,k,0,0,630,68302,1610911
19,19,female,Belg,2,64,ITC,win,5,right,3,ITC_outcome,0,undefined,0,0,650,67293,1611920
19,19,female,Belg,2,65,guess,loss,5,right,12,guess_start,432,space,0,0,650,66858,1612355
19,19,female,Belg,2,65,guess,loss,5,right,12,guess_choice,519,j,0,0,650,66332,1612881
19,19,female,Belg,2,65,guess,loss,5,right,12,guess_outcome,0,undefined,0,0,635,64773,1614440
19,19,female,Belg,2,65,ITC,loss,5,right,12,ITC_start,514,space,0,0,635,64257,1614956
19,19,female,Belg,2,65,ITC,loss,5,right,12,ITC_choice,751,j,0,0,635,63504,1615709
19,19,female,Belg,2,65,ITC,loss,5,right,12,ITC_wait,0,undefined,0,0,635,58501,1620712
19,19,female,Belg,2,65,ITC,loss,5,right,12,ITC_collect,708,k,0,0,635,57791,1621422
19,19,female,Belg,2,65,ITC,loss,5,right,12,ITC_outcome,0,undefined,0,0,655,56784,1622429
19,19,female,Belg,2,66,guess,win,5,right,15,guess_start,427,space,0,0,655,56354,1622859
19,19,female,Belg,2,66,guess,win,5,right,15,guess_choice,525,f,0,0,655,55824,1623389
19,19,female,Belg,2,66,guess,win,5,right,15,guess_outcome,0,undefined,0,0,675,54263,1624950
19,19,female,Belg,2,66,ITC,win,5,right,15,ITC_start,430,space,0,0,675,53830,1625383
19,19,female,Belg,2,66,ITC,win,5,right,15,ITC_choice,588,j,0,0,675,53240,1625973
19,19,female,Belg,2,66,ITC,win,5,right,15,ITC_wait,0,undefined,0,0,675,48233,1630980
19,19,female,Belg,2,66,ITC,win,5,right,15,ITC_collect,520,k,0,0,675,47711,1631502
19,19,female,Belg,2,66,ITC,win,5,right,15,ITC_outcome,0,undefined,0,0,695,46704,1632509
19,19,female,Belg,2,67,guess,win,5,left,14,guess_start,410,space,0,0,695,46292,1632921
19,19,female,Belg,2,67,guess,win,5,left,14,guess_choice,493,j,0,0,695,45794,1633419
19,19,female,Belg,2,67,guess,win,5,left,14,guess_outcome,0,undefined,0,0,715,44234,1634979
19,19,female,Belg,2,67,ITC,win,5,left,14,ITC_start,453,space,0,0,715,43778,1635435
19,19,female,Belg,2,67,ITC,win,5,left,14,ITC_choice,819,f,0,0,715,42957,1636256
19,19,female,Belg,2,67,ITC,win,5,left,14,ITC_wait,0,undefined,0,0,715,37950,1641263
19,19,female,Belg,2,67,ITC,win,5,left,14,ITC_collect,436,k,0,0,715,37510,1641703
19,19,female,Belg,2,67,ITC,win,5,left,14,ITC_outcome,0,undefined,0,0,735,36501,1642712
19,19,female,Belg,2,68,guess,win,5,left,9,guess_start,755,space,0,0,735,35743,1643470
19,19,female,Belg,2,68,guess,win,5,left,9,guess_choice,589,f,0,0,735,35148,1644065
19,19,female,Belg,2,68,guess,win,5,left,9,guess_outcome,0,undefined,0,0,755,33589,1645624
19,19,female,Belg,2,68,ITC,win,5,left,9,ITC_start,328,space,0,0,755,33258,1645955
19,19,female,Belg,2,68,ITC,win,5,left,9,ITC_choice,788,f,0,0,755,32467,1646746
19,19,female,Belg,2,68,ITC,win,5,left,9,ITC_wait,0,undefined,0,0,755,27461,1651752
19,19,female,Belg,2,68,ITC,win,5,left,9,ITC_collect,429,k,0,0,755,27029,1652184
19,19,female,Belg,2,68,ITC,win,5,left,9,ITC_outcome,0,undefined,0,0,775,26019,1653194
19,19,female,Belg,2,69,guess,win,5,left,1,guess_start,407,space,0,0,775,25610,1653603
19,19,female,Belg,2,69,guess,win,5,left,1,guess_choice,798,j,0,0,775,24806,1654407
19,19,female,Belg,2,69,guess,win,5,left,1,guess_outcome,0,undefined,0,0,795,23246,1655967
19,19,female,Belg,2,69,ITC,win,5,left,1,ITC_start,332,space,0,0,795,22913,1656300
19,19,female,Belg,2,69,ITC,win,5,left,1,ITC_choice,717,f,0,0,795,22193,1657020
19,19,female,Belg,2,69,ITC,win,5,left,1,ITC_wait,0,undefined,0,0,795,17190,1662023
19,19,female,Belg,2,69,ITC,win,5,left,1,ITC_collect,481,k,0,0,795,16707,1662506
19,19,female,Belg,2,69,ITC,win,5,left,1,ITC_outcome,0,undefined,0,0,815,15697,1663516
19,19,female,Belg,2,70,guess,win,10,left,7,guess_start,1236,space,0,0,815,14458,1664755
19,19,female,Belg,2,70,guess,win,10,left,7,guess_choice,632,f,0,0,815,13820,1665393
19,19,female,Belg,2,70,guess,win,10,left,7,guess_outcome,0,undefined,0,0,835,12261,1666952
19,19,female,Belg,2,70,ITC,win,10,left,7,ITC_start,491,space,0,0,835,11768,1667445
19,19,female,Belg,2,70,ITC,win,10,left,7,ITC_choice,724,f,0,0,835,11040,1668173
19,19,female,Belg,2,70,ITC,win,10,left,7,ITC_wait,0,undefined,0,0,835,1033,1678180
19,19,female,Belg,2,70,ITC,win,10,left,7,ITC_collect,349,k,0,0,835,682,1678531
19,19,female,Belg,2,70,ITC,win,10,left,7,ITC_outcome,0,undefined,0,0,855,-10,1679223
19,19,female,Belg,3,71,guess,loss,10,right,3,guess_start,625,space,0,0,0,479373,1824241
19,19,female,Belg,3,71,guess,loss,10,right,3,guess_choice,592,f,0,0,0,478775,1824839
19,19,female,Belg,3,71,guess,loss,10,right,3,guess_outcome,0,undefined,0,0,-15,477217,1826397
19,19,female,Belg,3,71,ITC,loss,10,right,3,ITC_start,451,space,0,0,-15,476763,1826851
19,19,female,Belg,3,71,ITC,loss,10,right,3,ITC_choice,919,j,0,0,-15,475841,1827773
19,19,female,Belg,3,71,ITC,loss,10,right,3,ITC_wait,0,undefined,0,0,-15,465834,1837780
19,19,female,Belg,3,71,ITC,loss,10,right,3,ITC_collect,358,k,0,0,-15,465473,1838141
19,19,female,Belg,3,71,ITC,loss,10,right,3,ITC_outcome,0,undefined,0,0,5,464463,1839151
19,19,female,Belg,3,72,guess,neutral,10,left,6,guess_start,588,space,0,0,5,463873,1839741
19,19,female,Belg,3,72,guess,neutral,10,left,6,guess_choice,666,f,0,0,5,463201,1840413
19,19,female,Belg,3,72,guess,neutral,10,left,6,guess_outcome,0,undefined,0,0,5,461642,1841972
19,19,female,Belg,3,72,ITC,neutral,10,left,6,ITC_start,1062,space,0,0,5,460577,1843037
19,19,female,Belg,3,72,ITC,neutral,10,left,6,ITC_choice,834,f,0,0,5,459741,1843873
19,19,female,Belg,3,72,ITC,neutral,10,left,6,ITC_wait,0,undefined,0,0,5,449734,1853880
19,19,female,Belg,3,72,ITC,neutral,10,left,6,ITC_collect,612,k,0,0,5,449119,1854495
19,19,female,Belg,3,72,ITC,neutral,10,left,6,ITC_outcome,0,undefined,0,0,25,448113,1855501
19,19,female,Belg,3,73,guess,neutral,5,left,15,guess_start,567,space,0,0,25,447543,1856071
19,19,female,Belg,3,73,guess,neutral,5,left,15,guess_choice,546,f,0,0,25,446991,1856623
19,19,female,Belg,3,73,guess,neutral,5,left,15,guess_outcome,0,undefined,0,0,25,445431,1858183
19,19,female,Belg,3,73,ITC,neutral,5,left,15,ITC_start,342,space,0,0,25,445087,1858527
19,19,female,Belg,3,73,ITC,neutral,5,left,15,ITC_choice,677,f,0,0,25,444409,1859205
19,19,female,Belg,3,73,ITC,neutral,5,left,15,ITC_wait,0,undefined,0,0,25,439401,1864213
19,19,female,Belg,3,73,ITC,neutral,5,left,15,ITC_collect,1174,k,0,0,25,438225,1865389
19,19,female,Belg,3,73,ITC,neutral,5,left,15,ITC_outcome,0,undefined,0,0,45,437215,1866399
19,19,female,Belg,3,74,guess,loss,10,right,2,guess_start,477,space,0,0,45,436736,1866878
19,19,female,Belg,3,74,guess,loss,10,right,2,guess_choice,736,j,0,0,45,435993,1867621
19,19,female,Belg,3,74,guess,loss,10,right,2,guess_outcome,0,undefined,0,0,30,434434,1869180
19,19,female,Belg,3,74,ITC,loss,10,right,2,ITC_start,729,space,0,0,30,433702,1869912
19,19,female,Belg,3,74,ITC,loss,10,right,2,ITC_choice,767,j,0,0,30,432934,1870680
19,19,female,Belg,3,74,ITC,loss,10,right,2,ITC_wait,0,undefined,0,0,30,422926,1880688
19,19,female,Belg,3,74,ITC,loss,10,right,2,ITC_collect,406,k,0,0,30,422518,1881096
19,19,female,Belg,3,74,ITC,loss,10,right,2,ITC_outcome,0,undefined,0,0,50,421509,1882105
19,19,female,Belg,3,75,guess,neutral,10,right,5,guess_start,437,space,0,0,50,421069,1882545
19,19,female,Belg,3,75,guess,neutral,10,right,5,guess_choice,580,f,0,0,50,420483,1883131
19,19,female,Belg,3,75,guess,neutral,10,right,5,guess_outcome,0,undefined,0,0,50,418923,1884691
19,19,female,Belg,3,75,ITC,neutral,10,right,5,ITC_start,462,space,0,0,50,418459,1885155
19,19,female,Belg,3,75,ITC,neutral,10,right,5,ITC_choice,779,j,0,0,50,417677,1885937
19,19,female,Belg,3,75,ITC,neutral,10,right,5,ITC_wait,0,undefined,0,0,50,407670,1895944
19,19,female,Belg,3,75,ITC,neutral,10,right,5,ITC_collect,348,k,0,0,50,407321,1896293
19,19,female,Belg,3,75,ITC,neutral,10,right,5,ITC_outcome,0,undefined,0,0,70,406311,1897303
19,19,female,Belg,3,76,guess,loss,5,right,1,guess_start,382,space,0,0,70,405927,1897687
19,19,female,Belg,3,76,guess,loss,5,right,1,guess_choice,1809,f,0,0,70,404113,1899501
19,19,female,Belg,3,76,guess,loss,5,right,1,guess_outcome,0,undefined,0,0,55,402556,1901058
19,19,female,Belg,3,76,ITC,loss,5,right,1,ITC_start,573,space,0,0,55,401981,1901633
19,19,female,Belg,3,76,ITC,loss,5,right,1,ITC_choice,590,j,0,0,55,401388,1902226
19,19,female,Belg,3,76,ITC,loss,5,right,1,ITC_wait,0,undefined,0,0,55,396383,1907231
19,19,female,Belg,3,76,ITC,loss,5,right,1,ITC_collect,1032,k,0,0,55,395348,1908266
19,19,female,Belg,3,76,ITC,loss,5,right,1,ITC_outcome,0,undefined,0,0,75,394340,1909274
19,19,female,Belg,3,77,guess,neutral,10,left,6,guess_start,410,space,0,0,75,393928,1909686
19,19,female,Belg,3,77,guess,neutral,10,left,6,guess_choice,601,f,0,0,75,393323,1910291
19,19,female,Belg,3,77,guess,neutral,10,left,6,guess_outcome,0,undefined,0,0,75,391762,1911852
19,19,female,Belg,3,77,ITC,neutral,10,left,6,ITC_start,671,space,0,0,75,391090,1912524
19,19,female,Belg,3,77,ITC,neutral,10,left,6,ITC_choice,578,f,0,0,75,390509,1913105
19,19,female,Belg,3,77,ITC,neutral,10,left,6,ITC_wait,0,undefined,0,0,75,380503,1923111
19,19,female,Belg,3,77,ITC,neutral,10,left,6,ITC_collect,436,k,0,0,75,380063,1923551
19,19,female,Belg,3,77,ITC,neutral,10,left,6,ITC_outcome,0,undefined,0,0,95,379053,1924561
19,19,female,Belg,3,78,guess,neutral,5,right,8,guess_start,532,space,0,0,95,378517,1925097
19,19,female,Belg,3,78,guess,neutral,5,right,8,guess_choice,1146,j,0,0,95,377366,1926248
19,19,female,Belg,3,78,guess,neutral,5,right,8,guess_outcome,0,undefined,0,0,95,375807,1927807
19,19,female,Belg,3,78,ITC,neutral,5,right,8,ITC_start,487,space,0,0,95,375317,1928297
19,19,female,Belg,3,78,ITC,neutral,5,right,8,ITC_choice,675,j,0,0,95,374641,1928973
19,19,female,Belg,3,78,ITC,neutral,5,right,8,ITC_wait,0,undefined,0,0,95,369634,1933980
19,19,female,Belg,3,78,ITC,neutral,5,right,8,ITC_collect,1968,k,0,0,95,367663,1935951
19,19,female,Belg,3,78,ITC,neutral,5,right,8,ITC_outcome,0,undefined,0,0,115,366653,1936961
19,19,female,Belg,3,79,guess,loss,5,left,15,guess_start,364,space,0,0,115,366287,1937327
19,19,female,Belg,3,79,guess,loss,5,left,15,guess_choice,510,j,0,0,115,365772,1937842
19,19,female,Belg,3,79,guess,loss,5,left,15,guess_outcome,0,undefined,0,0,100,364213,1939401
19,19,female,Belg,3,79,ITC,loss,5,left,15,ITC_start,320,space,0,0,100,363889,1939725
19,19,female,Belg,3,79,ITC,loss,5,left,15,ITC_choice,669,f,0,0,100,363217,1940397
19,19,female,Belg,3,79,ITC,loss,5,left,15,ITC_wait,0,undefined,0,0,100,358209,1945405
19,19,female,Belg,3,79,ITC,loss,5,left,15,ITC_collect,318,k,0,0,100,357889,1945725
19,19,female,Belg,3,79,ITC,loss,5,left,15,ITC_outcome,0,undefined,0,0,120,356880,1946734
19,19,female,Belg,3,80,guess,loss,10,left,5,guess_start,643,space,0,0,120,356234,1947380
19,19,female,Belg,3,80,guess,loss,10,left,5,guess_choice,698,f,0,0,120,355532,1948082
19,19,female,Belg,3,80,guess,loss,10,left,5,guess_outcome,0,undefined,0,0,105,353973,1949641
19,19,female,Belg,3,80,ITC,loss,10,left,5,ITC_start,605,space,0,0,105,353366,1950248
19,19,female,Belg,3,80,ITC,loss,10,left,5,ITC_choice,598,f,0,0,105,352765,1950849
19,19,female,Belg,3,80,ITC,loss,10,left,5,ITC_wait,0,undefined,0,0,105,342759,1960855
19,19,female,Belg,3,80,ITC,loss,10,left,5,ITC_collect,808,k,0,0,105,341949,1961665
19,19,female,Belg,3,80,ITC,loss,10,left,5,ITC_outcome,0,undefined,0,0,125,340940,1962674
19,19,female,Belg,3,81,guess,neutral,10,right,3,guess_start,339,space,0,0,125,340599,1963015
19,19,female,Belg,3,81,guess,neutral,10,right,3,guess_choice,608,f,0,0,125,339985,1963629
19,19,female,Belg,3,81,guess,neutral,10,right,3,guess_outcome,0,undefined,0,0,125,338425,1965189
19,19,female,Belg,3,81,ITC,neutral,10,right,3,ITC_start,2119,space,0,0,125,336304,1967310
19,19,female,Belg,3,81,ITC,neutral,10,right,3,ITC_choice,966,j,0,0,125,335335,1968279
19,19,female,Belg,3,81,ITC,neutral,10,right,3,ITC_wait,0,undefined,0,0,125,325328,1978286
19,19,female,Belg,3,81,ITC,neutral,10,right,3,ITC_collect,1044,k,0,0,125,324281,1979333
19,19,female,Belg,3,81,ITC,neutral,10,right,3,ITC_outcome,0,undefined,0,0,145,323273,1980341
19,19,female,Belg,3,82,guess,neutral,5,left,10,guess_start,376,space,0,0,145,322895,1980719
19,19,female,Belg,3,82,guess,neutral,5,left,10,guess_choice,701,j,0,0,145,322189,1981425
19,19,female,Belg,3,82,guess,neutral,5,left,10,guess_outcome,0,undefined,0,0,145,320628,1982986
19,19,female,Belg,3,82,ITC,neutral,5,left,10,ITC_start,1072,space,0,0,145,319553,1984061
19,19,female,Belg,3,82,ITC,neutral,5,left,10,ITC_choice,890,f,0,0,145,318661,1984953
19,19,female,Belg,3,82,ITC,neutral,5,left,10,ITC_wait,0,undefined,0,0,145,313654,1989960
19,19,female,Belg,3,82,ITC,neutral,5,left,10,ITC_collect,899,k,0,0,145,312752,1990862
19,19,female,Belg,3,82,ITC,neutral,5,left,10,ITC_outcome,0,undefined,0,0,165,311746,1991868
19,19,female,Belg,3,83,guess,loss,5,right,3,guess_start,522,space,0,0,165,311221,1992393
19,19,female,Belg,3,83,guess,loss,5,right,3,guess_choice,514,f,0,0,165,310702,1992912
19,19,female,Belg,3,83,guess,loss,5,right,3,guess_outcome,0,undefined,0,0,150,309142,1994472
19,19,female,Belg,3,83,ITC,loss,5,right,3,ITC_start,947,space,0,0,150,308191,1995423
19,19,female,Belg,3,83,ITC,loss,5,right,3,ITC_choice,776,j,0,0,150,307413,1996201
19,19,female,Belg,3,83,ITC,loss,5,right,3,ITC_wait,0,undefined,0,0,150,302405,2001209
19,19,female,Belg,3,83,ITC,loss,5,right,3,ITC_collect,1016,k,0,0,150,301386,2002228
19,19,female,Belg,3,83,ITC,loss,5,right,3,ITC_outcome,0,undefined,0,0,170,300377,2003237
19,19,female,Belg,3,84,guess,win,10,right,3,guess_start,361,space,0,0,170,300014,2003600
19,19,female,Belg,3,84,guess,win,10,right,3,guess_choice,1668,f,0,0,170,298340,2005274
19,19,female,Belg,3,84,guess,win,10,right,3,guess_outcome,0,undefined,0,0,190,296781,2006833
19,19,female,Belg,3,84,ITC,win,10,right,3,ITC_start,701,space,0,0,190,296076,2007538
19,19,female,Belg,3,84,ITC,win,10,right,3,ITC_choice,660,j,0,0,190,295413,2008201
19,19,female,Belg,3,84,ITC,win,10,right,3,ITC_wait,0,undefined,0,0,190,285407,2018207
19,19,female,Belg,3,84,ITC,win,10,right,3,ITC_collect,282,k,0,0,190,285121,2018493
19,19,female,Belg,3,84,ITC,win,10,right,3,ITC_outcome,0,undefined,0,0,210,284111,2019503
19,19,female,Belg,3,85,guess,win,10,right,7,guess_start,315,space,0,0,210,283794,2019820
19,19,female,Belg,3,85,guess,win,10,right,7,guess_choice,760,j,0,0,210,283031,2020583
19,19,female,Belg,3,85,guess,win,10,right,7,guess_outcome,0,undefined,0,0,230,281473,2022141
19,19,female,Belg,3,85,ITC,win,10,right,7,ITC_start,407,space,0,0,230,281064,2022550
19,19,female,Belg,3,85,ITC,win,10,right,7,ITC_choice,616,j,0,0,230,280446,2023168
19,19,female,Belg,3,85,ITC,win,10,right,7,ITC_wait,0,undefined,0,0,230,270439,2033175
19,19,female,Belg,3,85,ITC,win,10,right,7,ITC_collect,536,k,0,0,230,269899,2033715
19,19,female,Belg,3,85,ITC,win,10,right,7,ITC_outcome,0,undefined,0,0,250,268889,2034725
19,19,female,Belg,3,86,guess,win,5,right,12,guess_start,456,space,0,0,250,268430,2035184
19,19,female,Belg,3,86,guess,win,5,right,12,guess_choice,554,f,0,0,250,267871,2035743
19,19,female,Belg,3,86,guess,win,5,right,12,guess_outcome,0,undefined,0,0,270,266311,2037303
19,19,female,Belg,3,86,ITC,win,5,right,12,ITC_start,282,space,0,0,270,266026,2037588
19,19,female,Belg,3,86,ITC,win,5,right,12,ITC_choice,602,j,0,0,270,265421,2038193
19,19,female,Belg,3,86,ITC,win,5,right,12,ITC_wait,0,undefined,0,0,270,260414,2043200
19,19,female,Belg,3,86,ITC,win,5,right,12,ITC_collect,687,k,0,0,270,259723,2043891
19,19,female,Belg,3,86,ITC,win,5,right,12,ITC_outcome,0,undefined,0,0,290,258713,2044901
19,19,female,Belg,3,87,guess,win,10,right,6,guess_start,581,space,0,0,290,258130,2045484
19,19,female,Belg,3,87,guess,win,10,right,6,guess_choice,648,j,0,0,290,257477,2046137
19,19,female,Belg,3,87,guess,win,10,right,6,guess_outcome,0,undefined,0,0,310,255917,2047697
19,19,female,Belg,3,87,ITC,win,10,right,6,ITC_start,285,space,0,0,310,255629,2047985
19,19,female,Belg,3,87,ITC,win,10,right,6,ITC_choice,544,j,0,0,310,255083,2048531
19,19,female,Belg,3,87,ITC,win,10,right,6,ITC_wait,0,undefined,0,0,310,245075,2058539
19,19,female,Belg,3,87,ITC,win,10,right,6,ITC_collect,407,k,0,0,310,244665,2058949
19,19,female,Belg,3,87,ITC,win,10,right,6,ITC_outcome,0,undefined,0,0,330,243657,2059957
19,19,female,Belg,3,88,guess,neutral,5,left,4,guess_start,419,space,0,0,330,243235,2060379
19,19,female,Belg,3,88,guess,neutral,5,left,4,guess_choice,601,f,0,0,330,242630,2060984
19,19,female,Belg,3,88,guess,neutral,5,left,4,guess_outcome,0,undefined,0,0,330,241073,2062541
19,19,female,Belg,3,88,ITC,neutral,5,left,4,ITC_start,623,space,0,0,330,240447,2063167
19,19,female,Belg,3,88,ITC,neutral,5,left,4,ITC_choice,981,f,0,0,330,239463,2064151
19,19,female,Belg,3,88,ITC,neutral,5,left,4,ITC_wait,0,undefined,0,0,330,234456,2069158
19,19,female,Belg,3,88,ITC,neutral,5,left,4,ITC_collect,1207,k,0,0,330,233247,2070367
19,19,female,Belg,3,88,ITC,neutral,5,left,4,ITC_outcome,0,undefined,0,0,350,232237,2071377
19,19,female,Belg,3,89,guess,win,10,left,5,guess_start,401,space,0,0,350,231833,2071781
19,19,female,Belg,3,89,guess,win,10,left,5,guess_choice,562,j,0,0,350,231266,2072348
19,19,female,Belg,3,89,guess,win,10,left,5,guess_outcome,0,undefined,0,0,370,229708,2073906
19,19,female,Belg,3,89,ITC,win,10,left,5,ITC_start,359,space,0,0,370,229346,2074268
19,19,female,Belg,3,89,ITC,win,10,left,5,ITC_choice,669,f,0,0,370,228676,2074938
19,19,female,Belg,3,89,ITC,win,10,left,5,ITC_wait,0,undefined,0,0,370,218739,2084875
19,19,female,Belg,3,89,ITC,win,10,left,5,ITC_collect,519,k,0,0,370,218217,2085397
19,19,female,Belg,3,89,ITC,win,10,left,5,ITC_outcome,0,undefined,0,0,390,217208,2086406
19,19,female,Belg,3,90,guess,loss,5,left,14,guess_start,508,space,0,0,390,216697,2086917
19,19,female,Belg,3,90,guess,loss,5,left,14,guess_choice,691,j,0,0,390,216001,2087613
19,19,female,Belg,3,90,guess,loss,5,left,14,guess_outcome,0,undefined,0,0,375,214445,2089169
19,19,female,Belg,3,90,ITC,loss,5,left,14,ITC_start,425,space,0,0,375,214017,2089597
19,19,female,Belg,3,90,ITC,loss,5,left,14,ITC_choice,847,f,0,0,375,213167,2090447
19,19,female,Belg,3,90,ITC,loss,5,left,14,ITC_wait,0,undefined,0,0,375,208159,2095455
19,19,female,Belg,3,90,ITC,loss,5,left,14,ITC_collect,389,k,0,0,375,207769,2095845
19,19,female,Belg,3,90,ITC,loss,5,left,14,ITC_outcome,0,undefined,0,0,395,206764,2096850
19,19,female,Belg,3,91,guess,neutral,5,right,3,guess_start,376,space,0,0,395,206385,2097229
19,19,female,Belg,3,91,guess,neutral,5,right,3,guess_choice,567,f,0,0,395,205813,2097801
19,19,female,Belg,3,91,guess,neutral,5,right,3,guess_outcome,0,undefined,0,0,395,204253,2099361
19,19,female,Belg,3,91,ITC,neutral,5,right,3,ITC_start,388,space,0,0,395,203863,2099751
19,19,female,Belg,3,91,ITC,neutral,5,right,3,ITC_choice,1082,j,0,0,395,202779,2100835
19,19,female,Belg,3,91,ITC,neutral,5,right,3,ITC_wait,0,undefined,0,0,395,197771,2105843
19,19,female,Belg,3,91,ITC,neutral,5,right,3,ITC_collect,476,k,0,0,395,197292,2106322
19,19,female,Belg,3,91,ITC,neutral,5,right,3,ITC_outcome,0,undefined,0,0,415,196284,2107330
19,19,female,Belg,3,92,guess,win,5,left,2,guess_start,472,space,0,0,415,195808,2107806
19,19,female,Belg,3,92,guess,win,5,left,2,guess_choice,521,j,0,0,415,195280,2108334
19,19,female,Belg,3,92,guess,win,5,left,2,guess_outcome,0,undefined,0,0,435,193720,2109894
19,19,female,Belg,3,92,ITC,win,5,left,2,ITC_start,311,space,0,0,435,193407,2110207
19,19,female,Belg,3,92,ITC,win,5,left,2,ITC_choice,838,f,0,0,435,192567,2111047
19,19,female,Belg,3,92,ITC,win,5,left,2,ITC_wait,0,undefined,0,0,435,187559,2116055
19,19,female,Belg,3,92,ITC,win,5,left,2,ITC_collect,478,k,0,0,435,187079,2116535
19,19,female,Belg,3,92,ITC,win,5,left,2,ITC_outcome,0,undefined,0,0,455,186069,2117545
19,19,female,Belg,3,93,guess,win,10,right,2,guess_start,404,space,0,0,455,185663,2117951
19,19,female,Belg,3,93,guess,win,10,right,2,guess_choice,621,f,0,0,455,185036,2118578
19,19,female,Belg,3,93,guess,win,10,right,2,guess_outcome,0,undefined,0,0,475,183478,2120136
19,19,female,Belg,3,93,ITC,win,10,right,2,ITC_start,327,space,0,0,475,183150,2120464
19,19,female,Belg,3,93,ITC,win,10,right,2,ITC_choice,504,j,0,0,475,182643,2120971
19,19,female,Belg,3,93,ITC,win,10,right,2,ITC_wait,0,undefined,0,0,475,172639,2130975
19,19,female,Belg,3,93,ITC,win,10,right,2,ITC_collect,282,k,0,0,475,172355,2131259
19,19,female,Belg,3,93,ITC,win,10,right,2,ITC_outcome,0,undefined,0,0,495,171347,2132267
19,19,female,Belg,3,94,guess,win,5,right,13,guess_start,377,space,0,0,495,170966,2132648
19,19,female,Belg,3,94,guess,win,5,right,13,guess_choice,414,j,0,0,495,170547,2133067
19,19,female,Belg,3,94,guess,win,5,right,13,guess_outcome,0,undefined,0,0,515,168987,2134627
19,19,female,Belg,3,94,ITC,win,5,right,13,ITC_start,267,space,0,0,515,168717,2134897
19,19,female,Belg,3,94,ITC,win,5,right,13,ITC_choice,737,j,0,0,515,167978,2135636
19,19,female,Belg,3,94,ITC,win,5,right,13,ITC_wait,0,undefined,0,0,515,162971,2140643
19,19,female,Belg,3,94,ITC,win,5,right,13,ITC_collect,594,k,0,0,515,162375,2141239
19,19,female,Belg,3,94,ITC,win,5,right,13,ITC_outcome,0,undefined,0,0,535,161364,2142250
19,19,female,Belg,3,95,guess,loss,5,right,9,guess_start,505,space,0,0,535,160857,2142757
19,19,female,Belg,3,95,guess,loss,5,right,9,guess_choice,450,f,0,0,535,160402,2143212
19,19,female,Belg,3,95,guess,loss,5,right,9,guess_outcome,0,undefined,0,0,520,158842,2144772
19,19,female,Belg,3,95,ITC,loss,5,right,9,ITC_start,283,space,0,0,520,158557,2145057
19,19,female,Belg,3,95,ITC,loss,5,right,9,ITC_choice,492,j,0,0,520,158061,2145553
19,19,female,Belg,3,95,ITC,loss,5,right,9,ITC_wait,0,undefined,0,0,520,153053,2150561
19,19,female,Belg,3,95,ITC,loss,5,right,9,ITC_collect,514,k,0,0,520,152537,2151077
19,19,female,Belg,3,95,ITC,loss,5,right,9,ITC_outcome,0,undefined,0,0,540,151530,2152084
19,19,female,Belg,3,96,guess,loss,5,right,5,guess_start,325,space,0,0,540,151202,2152412
19,19,female,Belg,3,96,guess,loss,5,right,5,guess_choice,935,f,0,0,540,150261,2153353
19,19,female,Belg,3,96,guess,loss,5,right,5,guess_outcome,0,undefined,0,0,525,148703,2154911
19,19,female,Belg,3,96,ITC,loss,5,right,5,ITC_start,636,space,0,0,525,148064,2155550
19,19,female,Belg,3,96,ITC,loss,5,right,5,ITC_choice,479,j,0,0,525,147583,2156031
19,19,female,Belg,3,96,ITC,loss,5,right,5,ITC_wait,0,undefined,0,0,525,142576,2161038
19,19,female,Belg,3,96,ITC,loss,5,right,5,ITC_collect,643,k,0,0,525,141932,2161682
19,19,female,Belg,3,96,ITC,loss,5,right,5,ITC_outcome,0,undefined,0,0,545,140922,2162692
19,19,female,Belg,3,97,guess,neutral,10,left,8,guess_start,415,space,0,0,545,140505,2163109
19,19,female,Belg,3,97,guess,neutral,10,left,8,guess_choice,629,f,0,0,545,139871,2163743
19,19,female,Belg,3,97,guess,neutral,10,left,8,guess_outcome,0,undefined,0,0,545,138314,2165300
19,19,female,Belg,3,97,ITC,neutral,10,left,8,ITC_start,978,space,0,0,545,137333,2166281
19,19,female,Belg,3,97,ITC,neutral,10,left,8,ITC_choice,734,f,0,0,545,136597,2167017
19,19,female,Belg,3,97,ITC,neutral,10,left,8,ITC_wait,0,undefined,0,0,545,126589,2177025
19,19,female,Belg,3,97,ITC,neutral,10,left,8,ITC_collect,278,k,0,0,545,126309,2177305
19,19,female,Belg,3,97,ITC,neutral,10,left,8,ITC_outcome,0,undefined,0,0,565,125299,2178315
19,19,female,Belg,3,98,guess,loss,5,left,16,guess_start,438,space,0,0,565,124858,2178756
19,19,female,Belg,3,98,guess,loss,5,left,16,guess_choice,639,j,0,0,565,124215,2179399
19,19,female,Belg,3,98,guess,loss,5,left,16,guess_outcome,0,undefined,0,0,550,122655,2180959
19,19,female,Belg,3,98,ITC,loss,5,left,16,ITC_start,1094,space,0,0,550,121558,2182056
19,19,female,Belg,3,98,ITC,loss,5,left,16,ITC_choice,855,f,0,0,550,120700,2182914
19,19,female,Belg,3,98,ITC,loss,5,left,16,ITC_wait,0,undefined,0,0,550,115693,2187921
19,19,female,Belg,3,98,ITC,loss,5,left,16,ITC_collect,476,k,0,0,550,115214,2188400
19,19,female,Belg,3,98,ITC,loss,5,left,16,ITC_outcome,0,undefined,0,0,570,114206,2189408
19,19,female,Belg,3,99,guess,neutral,5,left,11,guess_start,346,space,0,0,570,113856,2189758
19,19,female,Belg,3,99,guess,neutral,5,left,11,guess_choice,538,j,0,0,570,113313,2190301
19,19,female,Belg,3,99,guess,neutral,5,left,11,guess_outcome,0,undefined,0,0,570,111753,2191861
19,19,female,Belg,3,99,ITC,neutral,5,left,11,ITC_start,604,space,0,0,570,111147,2192467
19,19,female,Belg,3,99,ITC,neutral,5,left,11,ITC_choice,589,f,0,0,570,110555,2193059
19,19,female,Belg,3,99,ITC,neutral,5,left,11,ITC_wait,0,undefined,0,0,570,105547,2198067
19,19,female,Belg,3,99,ITC,neutral,5,left,11,ITC_collect,626,k,0,0,570,104919,2198695
19,19,female,Belg,3,99,ITC,neutral,5,left,11,ITC_outcome,0,undefined,0,0,590,103913,2199701
19,19,female,Belg,3,100,guess,loss,5,left,13,guess_start,515,space,0,0,590,103394,2200220
19,19,female,Belg,3,100,guess,loss,5,left,13,guess_choice,569,f,0,0,590,102821,2200793
19,19,female,Belg,3,100,guess,loss,5,left,13,guess_outcome,0,undefined,0,0,575,101263,2202351
19,19,female,Belg,3,100,ITC,loss,5,left,13,ITC_start,538,space,0,0,575,100722,2202892
19,19,female,Belg,3,100,ITC,loss,5,left,13,ITC_choice,606,f,0,0,575,100114,2203500
19,19,female,Belg,3,100,ITC,loss,5,left,13,ITC_wait,0,undefined,0,0,575,95106,2208508
19,19,female,Belg,3,100,ITC,loss,5,left,13,ITC_collect,401,k,0,0,575,94702,2208912
19,19,female,Belg,3,100,ITC,loss,5,left,13,ITC_outcome,0,undefined,0,0,595,93692,2209922
19,19,female,Belg,3,101,guess,loss,10,right,7,guess_start,315,space,0,0,595,93373,2210241
19,19,female,Belg,3,101,guess,loss,10,right,7,guess_choice,321,f,0,0,595,93047,2210567
19,19,female,Belg,3,101,guess,loss,10,right,7,guess_outcome,0,undefined,0,0,580,91488,2212126
19,19,female,Belg,3,101,ITC,loss,10,right,7,ITC_start,318,space,0,0,580,91167,2212447
19,19,female,Belg,3,101,ITC,loss,10,right,7,ITC_choice,505,j,0,0,580,90660,2212954
19,19,female,Belg,3,101,ITC,loss,10,right,7,ITC_wait,0,undefined,0,0,580,80652,2222962
19,19,female,Belg,3,101,ITC,loss,10,right,7,ITC_collect,326,k,0,0,580,80322,2223292
19,19,female,Belg,3,101,ITC,loss,10,right,7,ITC_outcome,0,undefined,0,0,600,79313,2224301
19,19,female,Belg,3,102,guess,loss,10,left,4,guess_start,292,space,0,0,600,79017,2224597
19,19,female,Belg,3,102,guess,loss,10,left,4,guess_choice,821,f,0,0,600,78192,2225422
19,19,female,Belg,3,102,guess,loss,10,left,4,guess_outcome,0,undefined,0,0,585,76633,2226981
19,19,female,Belg,3,102,ITC,loss,10,left,4,ITC_start,291,space,0,0,585,76339,2227275
19,19,female,Belg,3,102,ITC,loss,10,left,4,ITC_choice,528,f,0,0,585,75809,2227805
19,19,female,Belg,3,102,ITC,loss,10,left,4,ITC_wait,0,undefined,0,0,585,65801,2237813
19,19,female,Belg,3,102,ITC,loss,10,left,4,ITC_collect,307,k,0,0,585,65492,2238122
19,19,female,Belg,3,102,ITC,loss,10,left,4,ITC_outcome,0,undefined,0,0,605,64482,2239132
19,19,female,Belg,3,103,guess,neutral,5,left,13,guess_start,342,space,0,0,605,64138,2239476
19,19,female,Belg,3,103,guess,neutral,5,left,13,guess_choice,499,j,0,0,605,63632,2239982
19,19,female,Belg,3,103,guess,neutral,5,left,13,guess_outcome,0,undefined,0,0,605,62072,2241542
19,19,female,Belg,3,103,ITC,neutral,5,left,13,ITC_start,374,space,0,0,605,61696,2241918
19,19,female,Belg,3,103,ITC,neutral,5,left,13,ITC_choice,506,f,0,0,605,61187,2242427
19,19,female,Belg,3,103,ITC,neutral,5,left,13,ITC_wait,0,undefined,0,0,605,56180,2247434
19,19,female,Belg,3,103,ITC,neutral,5,left,13,ITC_collect,208,k,0,0,605,55970,2247644
19,19,female,Belg,3,103,ITC,neutral,5,left,13,ITC_outcome,0,undefined,0,0,625,54961,2248653
19,19,female,Belg,3,104,guess,loss,10,left,1,guess_start,270,space,0,0,625,54688,2248926
19,19,female,Belg,3,104,guess,loss,10,left,1,guess_choice,417,f,0,0,625,54267,2249347
19,19,female,Belg,3,104,guess,loss,10,left,1,guess_outcome,0,undefined,0,0,610,52706,2250908
19,19,female,Belg,3,104,ITC,loss,10,left,1,ITC_start,372,space,0,0,610,52331,2251283
19,19,female,Belg,3,104,ITC,loss,10,left,1,ITC_choice,605,f,0,0,610,51723,2251891
19,19,female,Belg,3,104,ITC,loss,10,left,1,ITC_wait,0,undefined,0,0,610,41716,2261898
19,19,female,Belg,3,104,ITC,loss,10,left,1,ITC_collect,414,k,0,0,610,41299,2262315
19,19,female,Belg,3,104,ITC,loss,10,left,1,ITC_outcome,0,undefined,0,0,630,40290,2263324
19,19,female,Belg,3,105,guess,win,10,right,1,guess_start,232,space,0,0,630,40055,2263559
19,19,female,Belg,3,105,guess,win,10,right,1,guess_choice,1477,j,0,0,630,38573,2265041
19,19,female,Belg,3,105,guess,win,10,right,1,guess_outcome,0,undefined,0,0,650,37014,2266600
19,19,female,Belg,3,105,ITC,win,10,right,1,ITC_start,325,space,0,0,650,36686,2266928
19,19,female,Belg,3,105,ITC,win,10,right,1,ITC_choice,678,j,0,0,650,36006,2267608
19,19,female,Belg,3,105,ITC,win,10,right,1,ITC_wait,0,undefined,0,0,650,26000,2277614
19,19,female,Belg,3,105,ITC,win,10,right,1,ITC_collect,393,k,0,0,650,25604,2278010
19,19,female,Belg,3,105,ITC,win,10,right,1,ITC_outcome,0,undefined,0,0,670,24594,2279020
19,19,female,Belg,3,106,guess,win,5,right,9,guess_start,374,space,0,0,670,24216,2279398
19,19,female,Belg,3,106,guess,win,5,right,9,guess_choice,597,j,0,0,670,23615,2279999
19,19,female,Belg,3,106,guess,win,5,right,9,guess_outcome,0,undefined,0,0,690,22054,2281560
19,19,female,Belg,3,106,ITC,win,5,right,9,ITC_start,642,space,0,0,690,21409,2282205
19,19,female,Belg,3,106,ITC,win,5,right,9,ITC_choice,536,j,0,0,690,20871,2282743
19,19,female,Belg,3,106,ITC,win,5,right,9,ITC_wait,0,undefined,0,0,690,15864,2287750
19,19,female,Belg,3,106,ITC,win,5,right,9,ITC_collect,425,k,0,0,690,15437,2288177
19,19,female,Belg,3,106,ITC,win,5,right,9,ITC_outcome,0,undefined,0,0,710,14427,2289187
19,19,female,Belg,3,107,guess,loss,5,right,2,guess_start,284,space,0,0,710,14141,2289473
19,19,female,Belg,3,107,guess,loss,5,right,2,guess_choice,421,j,0,0,710,13715,2289899
19,19,female,Belg,3,107,guess,loss,5,right,2,guess_outcome,0,undefined,0,0,695,12155,2291459
19,19,female,Belg,3,107,ITC,loss,5,right,2,ITC_start,293,space,0,0,695,11858,2291756
19,19,female,Belg,3,107,ITC,loss,5,right,2,ITC_choice,517,j,0,0,695,11339,2292275
19,19,female,Belg,3,107,ITC,loss,5,right,2,ITC_wait,0,undefined,0,0,695,6332,2297282
19,19,female,Belg,3,107,ITC,loss,5,right,2,ITC_collect,443,k,0,0,695,5886,2297728
19,19,female,Belg,3,107,ITC,loss,5,right,2,ITC_outcome,0,undefined,0,0,715,4877,2298737
19,19,female,Belg,3,108,guess,win,5,left,7,guess_start,460,space,0,0,715,4414,2299200
19,19,female,Belg,3,108,guess,win,5,left,7,guess_choice,623,j,0,0,715,3785,2299829
19,19,female,Belg,3,108,guess,win,5,left,7,guess_outcome,0,undefined,0,0,735,2225,2301389
19,19,female,Belg,3,108,ITC,win,5,left,7,ITC_start,304,space,0,0,735,1919,2301695
19,19,female,Belg,3,108,ITC,win,5,left,7,ITC_choice,794,f,0,0,735,1123,2302491
19,19,female,Belg,3,108,ITC,win,5,left,7,ITC_wait,0,undefined,0,0,735,-7,2303621
19,19,female,Belg,4,109,guess,loss,5,left,7,guess_start,637,space,0,0,0,479361,2414959
19,19,female,Belg,4,109,guess,loss,5,left,7,guess_choice,507,f,0,0,0,478848,2415472
19,19,female,Belg,4,109,guess,loss,5,left,7,guess_outcome,0,undefined,0,0,-15,477292,2417028
19,19,female,Belg,4,109,ITC,loss,5,left,7,ITC_start,447,space,0,0,-15,476842,2417478
19,19,female,Belg,4,109,ITC,loss,5,left,7,ITC_choice,1045,f,0,0,-15,475794,2418526
19,19,female,Belg,4,109,ITC,loss,5,left,7,ITC_wait,0,undefined,0,0,-15,470788,2423532
19,19,female,Belg,4,109,ITC,loss,5,left,7,ITC_collect,981,k,0,0,-15,469804,2424516
19,19,female,Belg,4,109,ITC,loss,5,left,7,ITC_outcome,0,undefined,0,0,5,468794,2425526
19,19,female,Belg,4,110,guess,win,5,right,5,guess_start,383,space,0,0,5,468409,2425911
19,19,female,Belg,4,110,guess,win,5,right,5,guess_choice,403,j,0,0,5,468002,2426318
19,19,female,Belg,4,110,guess,win,5,right,5,guess_outcome,0,undefined,0,0,25,466443,2427877
19,19,female,Belg,4,110,ITC,win,5,right,5,ITC_start,512,space,0,0,25,465929,2428391
19,19,female,Belg,4,110,ITC,win,5,right,5,ITC_choice,832,j,0,0,25,465095,2429225
19,19,female,Belg,4,110,ITC,win,5,right,5,ITC_wait,0,undefined,0,0,25,460087,2434233
19,19,female,Belg,4,110,ITC,win,5,right,5,ITC_collect,839,k,0,0,25,459246,2435074
19,19,female,Belg,4,110,ITC,win,5,right,5,ITC_outcome,0,undefined,0,0,45,458241,2436079
19,19,female,Belg,4,111,guess,neutral,10,left,1,guess_start,396,space,0,0,45,457842,2436478
19,19,female,Belg,4,111,guess,neutral,10,left,1,guess_choice,479,f,0,0,45,457358,2436962
19,19,female,Belg,4,111,guess,neutral,10,left,1,guess_outcome,0,undefined,0,0,45,455798,2438522
19,19,female,Belg,4,111,ITC,neutral,10,left,1,ITC_start,272,space,0,0,45,455523,2438797
19,19,female,Belg,4,111,ITC,neutral,10,left,1,ITC_choice,663,f,0,0,45,454857,2439463
19,19,female,Belg,4,111,ITC,neutral,10,left,1,ITC_wait,0,undefined,0,0,45,444849,2449471
19,19,female,Belg,4,111,ITC,neutral,10,left,1,ITC_collect,306,k,0,0,45,444540,2449780
19,19,female,Belg,4,111,ITC,neutral,10,left,1,ITC_outcome,0,undefined,0,0,65,443530,2450790
19,19,female,Belg,4,112,guess,loss,10,right,8,guess_start,389,space,0,0,65,443138,2451182
19,19,female,Belg,4,112,guess,loss,10,right,8,guess_choice,661,f,0,0,65,442471,2451849
19,19,female,Belg,4,112,guess,loss,10,right,8,guess_outcome,0,undefined,0,0,50,440915,2453405
19,19,female,Belg,4,112,ITC,loss,10,right,8,ITC_start,256,space,0,0,50,440657,2453663
19,19,female,Belg,4,112,ITC,loss,10,right,8,ITC_choice,597,j,0,0,50,440057,2454263
19,19,female,Belg,4,112,ITC,loss,10,right,8,ITC_wait,0,undefined,0,0,50,430049,2464271
19,19,female,Belg,4,112,ITC,loss,10,right,8,ITC_collect,326,k,0,0,50,429721,2464599
19,19,female,Belg,4,112,ITC,loss,10,right,8,ITC_outcome,0,undefined,0,0,70,428711,2465609
19,19,female,Belg,4,113,guess,loss,5,left,8,guess_start,421,space,0,0,70,428288,2466032
19,19,female,Belg,4,113,guess,loss,5,left,8,guess_choice,580,j,0,0,70,427702,2466618
19,19,female,Belg,4,113,guess,loss,5,left,8,guess_outcome,0,undefined,0,0,55,426141,2468179
19,19,female,Belg,4,113,ITC,loss,5,left,8,ITC_start,559,space,0,0,55,425580,2468740
19,19,female,Belg,4,113,ITC,loss,5,left,8,ITC_choice,582,f,0,0,55,424996,2469324
19,19,female,Belg,4,113,ITC,loss,5,left,8,ITC_wait,0,undefined,0,0,55,419989,2474331
19,19,female,Belg,4,113,ITC,loss,5,left,8,ITC_collect,384,k,0,0,55,419601,2474719
19,19,female,Belg,4,113,ITC,loss,5,left,8,ITC_outcome,0,undefined,0,0,75,418594,2475726
19,19,female,Belg,4,114,guess,win,5,right,15,guess_start,302,space,0,0,75,418288,2476032
19,19,female,Belg,4,114,guess,win,5,right,15,guess_choice,473,f,0,0,75,417811,2476509
19,19,female,Belg,4,114,guess,win,5,right,15,guess_outcome,0,undefined,0,0,95,416251,2478069
19,19,female,Belg,4,114,ITC,win,5,right,15,ITC_start,219,space,0,0,95,416029,2478291
19,19,female,Belg,4,114,ITC,win,5,right,15,ITC_choice,468,j,0,0,95,415558,2478762
19,19,female,Belg,4,114,ITC,win,5,right,15,ITC_wait,0,undefined,0,0,95,410555,2483765
19,19,female,Belg,4,114,ITC,win,5,right,15,ITC_collect,750,k,0,0,95,409803,2484517
19,19,female,Belg,4,114,ITC,win,5,right,15,ITC_outcome,0,undefined,0,0,115,408793,2485527
19,19,female,Belg,4,115,guess,neutral,10,left,7,guess_start,637,space,0,0,115,408153,2486167
19,19,female,Belg,4,115,guess,neutral,10,left,7,guess_choice,563,j,0,0,115,407585,2486735
19,19,female,Belg,4,115,guess,neutral,10,left,7,guess_outcome,0,undefined,0,0,115,406025,2488295
19,19,female,Belg,4,115,ITC,neutral,10,left,7,ITC_start,503,space,0,0,115,405519,2488801
19,19,female,Belg,4,115,ITC,neutral,10,left,7,ITC_choice,585,f,0,0,115,404930,2489390
19,19,female,Belg,4,115,ITC,neutral,10,left,7,ITC_wait,0,undefined,0,0,115,394925,2499395
19,19,female,Belg,4,115,ITC,neutral,10,left,7,ITC_collect,403,k,0,0,115,394520,2499800
19,19,female,Belg,4,115,ITC,neutral,10,left,7,ITC_outcome,0,undefined,0,0,135,393510,2500810
19,19,female,Belg,4,116,guess,neutral,5,left,2,guess_start,215,space,0,0,135,393292,2501028
19,19,female,Belg,4,116,guess,neutral,5,left,2,guess_choice,343,f,0,0,135,392944,2501376
19,19,female,Belg,4,116,guess,neutral,5,left,2,guess_outcome,0,undefined,0,0,135,391385,2502935
19,19,female,Belg,4,116,ITC,neutral,5,left,2,ITC_start,426,space,0,0,135,390956,2503364
19,19,female,Belg,4,116,ITC,neutral,5,left,2,ITC_choice,456,f,0,0,135,390497,2503823
19,19,female,Belg,4,116,ITC,neutral,5,left,2,ITC_wait,0,undefined,0,0,135,385494,2508826
19,19,female,Belg,4,116,ITC,neutral,5,left,2,ITC_collect,287,k,0,0,135,385204,2509116
19,19,female,Belg,4,116,ITC,neutral,5,left,2,ITC_outcome,0,undefined,0,0,155,384194,2510126
19,19,female,Belg,4,117,guess,win,5,left,10,guess_start,309,space,0,0,155,383882,2510438
19,19,female,Belg,4,117,guess,win,5,left,10,guess_choice,528,j,0,0,155,383349,2510971
19,19,female,Belg,4,117,guess,win,5,left,10,guess_outcome,0,undefined,0,0,175,381790,2512530
19,19,female,Belg,4,117,ITC,win,5,left,10,ITC_start,73,space,0,0,175,381715,2512605
19,19,female,Belg,4,117,ITC,win,5,left,10,ITC_choice,625,f,0,0,175,381088,2513232
19,19,female,Belg,4,117,ITC,win,5,left,10,ITC_wait,0,undefined,0,0,175,376081,2518239
19,19,female,Belg,4,117,ITC,win,5,left,10,ITC_collect,452,k,0,0,175,375626,2518694
19,19,female,Belg,4,117,ITC,win,5,left,10,ITC_outcome,0,undefined,0,0,195,374617,2519703
19,19,female,Belg,4,118,guess,loss,10,left,3,guess_start,308,space,0,0,195,374305,2520015
19,19,female,Belg,4,118,guess,loss,10,left,3,guess_choice,485,f,0,0,195,373815,2520505
19,19,female,Belg,4,118,guess,loss,10,left,3,guess_outcome,0,undefined,0,0,180,372255,2522065
19,19,female,Belg,4,118,ITC,loss,10,left,3,ITC_start,75,space,0,0,180,372177,2522143
19,19,female,Belg,4,118,ITC,loss,10,left,3,ITC_choice,1041,f,0,0,180,371134,2523186
19,19,female,Belg,4,118,ITC,loss,10,left,3,ITC_wait,0,undefined,0,0,180,361126,2533194
19,19,female,Belg,4,118,ITC,loss,10,left,3,ITC_collect,478,k,0,0,180,360646,2533674
19,19,female,Belg,4,118,ITC,loss,10,left,3,ITC_outcome,0,undefined,0,0,200,359641,2534679
19,19,female,Belg,4,119,guess,neutral,5,right,6,guess_start,564,space,0,0,200,359074,2535246
19,19,female,Belg,4,119,guess,neutral,5,right,6,guess_choice,620,f,0,0,200,358449,2535871
19,19,female,Belg,4,119,guess,neutral,5,right,6,guess_outcome,0,undefined,0,0,200,356888,2537432
19,19,female,Belg,4,119,ITC,neutral,5,right,6,ITC_start,628,space,0,0,200,356257,2538063
19,19,female,Belg,4,119,ITC,neutral,5,right,6,ITC_choice,591,j,0,0,200,355663,2538657
19,19,female,Belg,4,119,ITC,neutral,5,right,6,ITC_wait,0,undefined,0,0,200,350656,2543664
19,19,female,Belg,4,119,ITC,neutral,5,right,6,ITC_collect,607,k,0,0,200,350047,2544273
19,19,female,Belg,4,119,ITC,neutral,5,right,6,ITC_outcome,0,undefined,0,0,220,349040,2545280
19,19,female,Belg,4,120,guess,win,5,right,14,guess_start,403,space,0,0,220,348632,2545688
19,19,female,Belg,4,120,guess,win,5,right,14,guess_choice,489,f,0,0,220,348140,2546180
19,19,female,Belg,4,120,guess,win,5,right,14,guess_outcome,0,undefined,0,0,240,346579,2547741
19,19,female,Belg,4,120,ITC,win,5,right,14,ITC_start,269,space,0,0,240,346307,2548013
19,19,female,Belg,4,120,ITC,win,5,right,14,ITC_choice,996,j,0,0,240,345308,2549012
19,19,female,Belg,4,120,ITC,win,5,right,14,ITC_wait,0,undefined,0,0,240,340301,2554019
19,19,female,Belg,4,120,ITC,win,5,right,14,ITC_collect,345,k,0,0,240,339954,2554366
19,19,female,Belg,4,120,ITC,win,5,right,14,ITC_outcome,0,undefined,0,0,260,338946,2555374
19,19,female,Belg,4,121,guess,neutral,5,right,5,guess_start,364,space,0,0,260,338579,2555741
19,19,female,Belg,4,121,guess,neutral,5,right,5,guess_choice,520,j,0,0,260,338054,2556266
19,19,female,Belg,4,121,guess,neutral,5,right,5,guess_outcome,0,undefined,0,0,260,336495,2557825
19,19,female,Belg,4,121,ITC,neutral,5,right,5,ITC_start,627,space,0,0,260,335864,2558456
19,19,female,Belg,4,121,ITC,neutral,5,right,5,ITC_choice,1650,j,0,0,260,334211,2560109
19,19,female,Belg,4,121,ITC,neutral,5,right,5,ITC_wait,0,undefined,0,0,260,329209,2565111
19,19,female,Belg,4,121,ITC,neutral,5,right,5,ITC_collect,453,k,0,0,260,328753,2565567
19,19,female,Belg,4,121,ITC,neutral,5,right,5,ITC_outcome,0,undefined,0,0,280,327743,2566577
19,19,female,Belg,4,122,guess,win,5,left,3,guess_start,558,space,0,0,280,327181,2567139
19,19,female,Belg,4,122,guess,win,5,left,3,guess_choice,594,f,0,0,280,326583,2567737
19,19,female,Belg,4,122,guess,win,5,left,3,guess_outcome,0,undefined,0,0,300,325024,2569296
19,19,female,Belg,4,122,ITC,win,5,left,3,ITC_start,1694,space,0,0,300,323327,2570993
19,19,female,Belg,4,122,ITC,win,5,left,3,ITC_choice,755,f,0,0,300,322570,2571750
19,19,female,Belg,4,122,ITC,win,5,left,3,ITC_wait,0,undefined,0,0,300,317563,2576757
19,19,female,Belg,4,122,ITC,win,5,left,3,ITC_collect,550,k,0,0,300,317010,2577310
19,19,female,Belg,4,122,ITC,win,5,left,3,ITC_outcome,0,undefined,0,0,320,316003,2578317
19,19,female,Belg,4,123,guess,loss,10,right,6,guess_start,343,space,0,0,320,315657,2578663
19,19,female,Belg,4,123,guess,loss,10,right,6,guess_choice,446,j,0,0,320,315204,2579116
19,19,female,Belg,4,123,guess,loss,10,right,6,guess_outcome,0,undefined,0,0,305,313644,2580676
19,19,female,Belg,4,123,ITC,loss,10,right,6,ITC_start,246,space,0,0,305,313396,2580924
19,19,female,Belg,4,123,ITC,loss,10,right,6,ITC_choice,564,j,0,0,305,312830,2581490
19,19,female,Belg,4,123,ITC,loss,10,right,6,ITC_wait,0,undefined,0,0,305,302823,2591497
19,19,female,Belg,4,123,ITC,loss,10,right,6,ITC_collect,420,k,0,0,305,302400,2591920
19,19,female,Belg,4,123,ITC,loss,10,right,6,ITC_outcome,0,undefined,0,0,325,301392,2592928
19,19,female,Belg,4,124,guess,loss,5,left,12,guess_start,734,space,0,0,325,300653,2593667
19,19,female,Belg,4,124,guess,loss,5,left,12,guess_choice,497,j,0,0,325,300151,2594169
19,19,female,Belg,4,124,guess,loss,5,left,12,guess_outcome,0,undefined,0,0,310,298591,2595729
19,19,female,Belg,4,124,ITC,loss,5,left,12,ITC_start,234,space,0,0,310,298357,2595963
19,19,female,Belg,4,124,ITC,loss,5,left,12,ITC_choice,689,f,0,0,310,297665,2596655
19,19,female,Belg,4,124,ITC,loss,5,left,12,ITC_wait,0,undefined,0,0,310,292658,2601662
19,19,female,Belg,4,124,ITC,loss,5,left,12,ITC_collect,1008,k,0,0,310,291646,2602674
19,19,female,Belg,4,124,ITC,loss,5,left,12,ITC_outcome,0,undefined,0,0,330,290642,2603678
19,19,female,Belg,4,125,guess,neutral,5,left,12,guess_start,391,space,0,0,330,290249,2604071
19,19,female,Belg,4,125,guess,neutral,5,left,12,guess_choice,911,j,0,0,330,289332,2604988
19,19,female,Belg,4,125,guess,neutral,5,left,12,guess_outcome,0,undefined,0,0,330,287773,2606547
19,19,female,Belg,4,125,ITC,neutral,5,left,12,ITC_start,1110,space,0,0,330,286660,2607660
19,19,female,Belg,4,125,ITC,neutral,5,left,12,ITC_choice,704,f,0,0,330,285953,2608367
19,19,female,Belg,4,125,ITC,neutral,5,left,12,ITC_wait,0,undefined,0,0,330,280946,2613374
19,19,female,Belg,4,125,ITC,neutral,5,left,12,ITC_collect,835,k,0,0,330,280109,2614211
19,19,female,Belg,4,125,ITC,neutral,5,left,12,ITC_outcome,0,undefined,0,0,350,279099,2615221
19,19,female,Belg,4,126,guess,win,5,right,8,guess_start,329,space,0,0,350,278767,2615553
19,19,female,Belg,4,126,guess,win,5,right,8,guess_choice,629,f,0,0,350,278134,2616186
19,19,female,Belg,4,126,guess,win,5,right,8,guess_outcome,0,undefined,0,0,370,276573,2617747
19,19,female,Belg,4,126,ITC,win,5,right,8,ITC_start,210,space,0,0,370,276360,2617960
19,19,female,Belg,4,126,ITC,win,5,right,8,ITC_choice,594,j,0,0,370,275764,2618556
19,19,female,Belg,4,126,ITC,win,5,right,8,ITC_wait,0,undefined,0,0,370,270756,2623564
19,19,female,Belg,4,126,ITC,win,5,right,8,ITC_collect,409,k,0,0,370,270345,2623975
19,19,female,Belg,4,126,ITC,win,5,right,8,ITC_outcome,0,undefined,0,0,390,269335,2624985
19,19,female,Belg,4,127,guess,win,10,right,4,guess_start,265,space,0,0,390,269067,2625253
19,19,female,Belg,4,127,guess,win,10,right,4,guess_choice,553,f,0,0,390,268509,2625811
19,19,female,Belg,4,127,guess,win,10,right,4,guess_outcome,0,undefined,0,0,410,266949,2627371
19,19,female,Belg,4,127,ITC,win,10,right,4,ITC_start,525,space,0,0,410,266421,2627899
19,19,female,Belg,4,127,ITC,win,10,right,4,ITC_choice,609,j,0,0,410,265808,2628512
19,19,female,Belg,4,127,ITC,win,10,right,4,ITC_wait,0,undefined,0,0,410,255802,2638518
19,19,female,Belg,4,127,ITC,win,10,right,4,ITC_collect,308,k,0,0,410,255490,2638830
19,19,female,Belg,4,127,ITC,win,10,right,4,ITC_outcome,0,undefined,0,0,430,254480,2639840
19,19,female,Belg,4,128,guess,win,5,right,4,guess_start,240,space,0,0,430,254237,2640083
19,19,female,Belg,4,128,guess,win,5,right,4,guess_choice,497,j,0,0,430,253735,2640585
19,19,female,Belg,4,128,guess,win,5,right,4,guess_outcome,0,undefined,0,0,450,252178,2642142
19,19,female,Belg,4,128,ITC,win,5,right,4,ITC_start,254,space,0,0,450,251923,2642397
19,19,female,Belg,4,128,ITC,win,5,right,4,ITC_choice,546,j,0,0,450,251374,2642946
19,19,female,Belg,4,128,ITC,win,5,right,4,ITC_wait,0,undefined,0,0,450,246367,2647953
19,19,female,Belg,4,128,ITC,win,5,right,4,ITC_collect,375,k,0,0,450,245989,2648331
19,19,female,Belg,4,128,ITC,win,5,right,4,ITC_outcome,0,undefined,0,0,470,244978,2649342
19,19,female,Belg,4,129,guess,neutral,5,right,7,guess_start,308,space,0,0,470,244667,2649653
19,19,female,Belg,4,129,guess,neutral,5,right,7,guess_choice,416,f,0,0,470,244246,2650074
19,19,female,Belg,4,129,guess,neutral,5,right,7,guess_outcome,0,undefined,0,0,470,242687,2651633
19,19,female,Belg,4,129,ITC,neutral,5,right,7,ITC_start,218,space,0,0,470,242465,2651855
19,19,female,Belg,4,129,ITC,neutral,5,right,7,ITC_choice,540,j,0,0,470,241923,2652397
19,19,female,Belg,4,129,ITC,neutral,5,right,7,ITC_wait,0,undefined,0,0,470,236915,2657405
19,19,female,Belg,4,129,ITC,neutral,5,right,7,ITC_collect,424,k,0,0,470,236488,2657832
19,19,female,Belg,4,129,ITC,neutral,5,right,7,ITC_outcome,0,undefined,0,0,490,235478,2658842
19,19,female,Belg,4,130,guess,win,5,left,1,guess_start,251,space,0,0,490,235223,2659097
19,19,female,Belg,4,130,guess,win,5,left,1,guess_choice,418,j,0,0,490,234800,2659520
19,19,female,Belg,4,130,guess,win,5,left,1,guess_outcome,0,undefined,0,0,510,233242,2661078
19,19,female,Belg,4,130,ITC,win,5,left,1,ITC_start,422,space,0,0,510,232818,2661502
19,19,female,Belg,4,130,ITC,win,5,left,1,ITC_choice,614,f,0,0,510,232201,2662119
19,19,female,Belg,4,130,ITC,win,5,left,1,ITC_wait,0,undefined,0,0,510,227196,2667124
19,19,female,Belg,4,130,ITC,win,5,left,1,ITC_collect,475,k,0,0,510,226719,2667601
19,19,female,Belg,4,130,ITC,win,5,left,1,ITC_outcome,0,undefined,0,0,530,225711,2668609
19,19,female,Belg,4,131,guess,neutral,10,right,2,guess_start,282,space,0,0,530,225426,2668894
19,19,female,Belg,4,131,guess,neutral,10,right,2,guess_choice,437,j,0,0,530,224983,2669337
19,19,female,Belg,4,131,guess,neutral,10,right,2,guess_outcome,0,undefined,0,0,530,223423,2670897
19,19,female,Belg,4,131,ITC,neutral,10,right,2,ITC_start,1226,space,0,0,530,222195,2672125
19,19,female,Belg,4,131,ITC,neutral,10,right,2,ITC_choice,614,j,0,0,530,221578,2672742
19,19,female,Belg,4,131,ITC,neutral,10,right,2,ITC_wait,0,undefined,0,0,530,211571,2682749
19,19,female,Belg,4,131,ITC,neutral,10,right,2,ITC_collect,377,k,0,0,530,211192,2683128
19,19,female,Belg,4,131,ITC,neutral,10,right,2,ITC_outcome,0,undefined,0,0,550,210181,2684139
19,19,female,Belg,4,132,guess,neutral,5,left,16,guess_start,378,space,0,0,550,209800,2684520
19,19,female,Belg,4,132,guess,neutral,5,left,16,guess_choice,428,j,0,0,550,209367,2684953
19,19,female,Belg,4,132,guess,neutral,5,left,16,guess_outcome,0,undefined,0,0,550,207809,2686511
19,19,female,Belg,4,132,ITC,neutral,5,left,16,ITC_start,354,space,0,0,550,207454,2686866
19,19,female,Belg,4,132,ITC,neutral,5,left,16,ITC_choice,728,f,0,0,550,206721,2687599
19,19,female,Belg,4,132,ITC,neutral,5,left,16,ITC_wait,0,undefined,0,0,550,201714,2692606
19,19,female,Belg,4,132,ITC,neutral,5,left,16,ITC_collect,555,k,0,0,550,201158,2693162
19,19,female,Belg,4,132,ITC,neutral,5,left,16,ITC_outcome,0,undefined,0,0,570,200148,2694172
19,19,female,Belg,4,133,guess,win,5,left,11,guess_start,304,space,0,0,570,199842,2694478
19,19,female,Belg,4,133,guess,win,5,left,11,guess_choice,558,f,0,0,570,199279,2695041
19,19,female,Belg,4,133,guess,win,5,left,11,guess_outcome,0,undefined,0,0,590,197720,2696600
19,19,female,Belg,4,133,ITC,win,5,left,11,ITC_start,268,space,0,0,590,197448,2696872
19,19,female,Belg,4,133,ITC,win,5,left,11,ITC_choice,658,f,0,0,590,196789,2697531
19,19,female,Belg,4,133,ITC,win,5,left,11,ITC_wait,0,undefined,0,0,590,191782,2702538
19,19,female,Belg,4,133,ITC,win,5,left,11,ITC_collect,623,k,0,0,590,191157,2703163
19,19,female,Belg,4,133,ITC,win,5,left,11,ITC_outcome,0,undefined,0,0,610,190149,2704171
19,19,female,Belg,4,134,guess,loss,5,left,6,guess_start,396,space,0,0,610,189750,2704570
19,19,female,Belg,4,134,guess,loss,5,left,6,guess_choice,492,j,0,0,610,189253,2705067
19,19,female,Belg,4,134,guess,loss,5,left,6,guess_outcome,0,undefined,0,0,595,187694,2706626
19,19,female,Belg,4,134,ITC,loss,5,left,6,ITC_start,127,space,0,0,595,187565,2706755
19,19,female,Belg,4,134,ITC,loss,5,left,6,ITC_choice,783,f,0,0,595,186780,2707540
19,19,female,Belg,4,134,ITC,loss,5,left,6,ITC_wait,0,undefined,0,0,595,181772,2712548
19,19,female,Belg,4,134,ITC,loss,5,left,6,ITC_collect,601,k,0,0,595,181168,2713152
19,19,female,Belg,4,134,ITC,loss,5,left,6,ITC_outcome,0,undefined,0,0,615,180159,2714161
19,19,female,Belg,4,135,guess,win,5,right,16,guess_start,324,space,0,0,615,179833,2714487
19,19,female,Belg,4,135,guess,win,5,right,16,guess_choice,520,f,0,0,615,179309,2715011
19,19,female,Belg,4,135,guess,win,5,right,16,guess_outcome,0,undefined,0,0,635,177748,2716572
19,19,female,Belg,4,135,ITC,win,5,right,16,ITC_start,314,space,0,0,635,177431,2716889
19,19,female,Belg,4,135,ITC,win,5,right,16,ITC_choice,723,j,0,0,635,176706,2717614
19,19,female,Belg,4,135,ITC,win,5,right,16,ITC_wait,0,undefined,0,0,635,171698,2722622
19,19,female,Belg,4,135,ITC,win,5,right,16,ITC_collect,771,k,0,0,635,170923,2723397
19,19,female,Belg,4,135,ITC,win,5,right,16,ITC_outcome,0,undefined,0,0,655,169916,2724404
19,19,female,Belg,4,136,guess,loss,5,left,4,guess_start,417,space,0,0,655,169496,2724824
19,19,female,Belg,4,136,guess,loss,5,left,4,guess_choice,569,j,0,0,655,168922,2725398
19,19,female,Belg,4,136,guess,loss,5,left,4,guess_outcome,0,undefined,0,0,640,167364,2726956
19,19,female,Belg,4,136,ITC,loss,5,left,4,ITC_start,1392,space,0,0,640,165970,2728350
19,19,female,Belg,4,136,ITC,loss,5,left,4,ITC_choice,682,f,0,0,640,165285,2729035
19,19,female,Belg,4,136,ITC,loss,5,left,4,ITC_wait,0,undefined,0,0,640,160278,2734042
19,19,female,Belg,4,136,ITC,loss,5,left,4,ITC_collect,468,k,0,0,640,159806,2734514
19,19,female,Belg,4,136,ITC,loss,5,left,4,ITC_outcome,0,undefined,0,0,660,158795,2735525
19,19,female,Belg,4,137,guess,loss,5,left,10,guess_start,398,space,0,0,660,158395,2735925
19,19,female,Belg,4,137,guess,loss,5,left,10,guess_choice,506,j,0,0,660,157885,2736435
19,19,female,Belg,4,137,guess,loss,5,left,10,guess_outcome,0,undefined,0,0,645,156326,2737994
19,19,female,Belg,4,137,ITC,loss,5,left,10,ITC_start,374,space,0,0,645,155950,2738370
19,19,female,Belg,4,137,ITC,loss,5,left,10,ITC_choice,675,f,0,0,645,155271,2739049
19,19,female,Belg,4,137,ITC,loss,5,left,10,ITC_wait,0,undefined,0,0,645,150262,2744058
19,19,female,Belg,4,137,ITC,loss,5,left,10,ITC_collect,850,k,0,0,645,149410,2744910
19,19,female,Belg,4,137,ITC,loss,5,left,10,ITC_outcome,0,undefined,0,0,665,148400,2745920
19,19,female,Belg,4,138,guess,win,5,left,6,guess_start,608,space,0,0,665,147789,2746531
19,19,female,Belg,4,138,guess,win,5,left,6,guess_choice,558,j,0,0,665,147226,2747094
19,19,female,Belg,4,138,guess,win,5,left,6,guess_outcome,0,undefined,0,0,685,145667,2748653
19,19,female,Belg,4,138,ITC,win,5,left,6,ITC_start,277,space,0,0,685,145388,2748932
19,19,female,Belg,4,138,ITC,win,5,left,6,ITC_choice,641,f,0,0,685,144743,2749577
19,19,female,Belg,4,138,ITC,win,5,left,6,ITC_wait,0,undefined,0,0,685,139740,2754580
19,19,female,Belg,4,138,ITC,win,5,left,6,ITC_collect,493,k,0,0,685,139244,2755076
19,19,female,Belg,4,138,ITC,win,5,left,6,ITC_outcome,0,undefined,0,0,705,138235,2756085
19,19,female,Belg,4,139,guess,win,10,right,8,guess_start,431,space,0,0,705,137801,2756519
19,19,female,Belg,4,139,guess,win,10,right,8,guess_choice,619,j,0,0,705,137177,2757143
19,19,female,Belg,4,139,guess,win,10,right,8,guess_outcome,0,undefined,0,0,725,135616,2758704
19,19,female,Belg,4,139,ITC,win,10,right,8,ITC_start,214,space,0,0,725,135400,2758920
19,19,female,Belg,4,139,ITC,win,10,right,8,ITC_choice,477,j,0,0,725,134919,2759401
19,19,female,Belg,4,139,ITC,win,10,right,8,ITC_wait,0,undefined,0,0,725,124912,2769408
19,19,female,Belg,4,139,ITC,win,10,right,8,ITC_collect,350,k,0,0,725,124560,2769760
19,19,female,Belg,4,139,ITC,win,10,right,8,ITC_outcome,0,undefined,0,0,745,123549,2770771
19,19,female,Belg,4,140,guess,loss,5,right,11,guess_start,452,space,0,0,745,123095,2771225
19,19,female,Belg,4,140,guess,loss,5,right,11,guess_choice,427,j,0,0,745,122662,2771658
19,19,female,Belg,4,140,guess,loss,5,right,11,guess_outcome,0,undefined,0,0,730,121101,2773219
19,19,female,Belg,4,140,ITC,loss,5,right,11,ITC_start,230,space,0,0,730,120868,2773452
19,19,female,Belg,4,140,ITC,loss,5,right,11,ITC_choice,485,j,0,0,730,120382,2773938
19,19,female,Belg,4,140,ITC,loss,5,right,11,ITC_wait,0,undefined,0,0,730,115374,2778946
19,19,female,Belg,4,140,ITC,loss,5,right,11,ITC_collect,427,k,0,0,730,114944,2779376
19,19,female,Belg,4,140,ITC,loss,5,right,11,ITC_outcome,0,undefined,0,0,750,113934,2780386
19,19,female,Belg,4,141,guess,neutral,5,left,1,guess_start,418,space,0,0,750,113513,2780807
19,19,female,Belg,4,141,guess,neutral,5,left,1,guess_choice,565,j,0,0,750,112943,2781377
19,19,female,Belg,4,141,guess,neutral,5,left,1,guess_outcome,0,undefined,0,0,750,111383,2782937
19,19,female,Belg,4,141,ITC,neutral,5,left,1,ITC_start,572,space,0,0,750,110808,2783512
19,19,female,Belg,4,141,ITC,neutral,5,left,1,ITC_choice,583,f,0,0,750,110223,2784097
19,19,female,Belg,4,141,ITC,neutral,5,left,1,ITC_wait,0,undefined,0,0,750,105215,2789105
19,19,female,Belg,4,141,ITC,neutral,5,left,1,ITC_collect,503,k,0,0,750,104708,2789612
19,19,female,Belg,4,141,ITC,neutral,5,left,1,ITC_outcome,0,undefined,0,0,770,103699,2790621
19,19,female,Belg,4,142,guess,neutral,5,left,14,guess_start,296,space,0,0,770,103400,2790920
19,19,female,Belg,4,142,guess,neutral,5,left,14,guess_choice,400,j,0,0,770,102994,2791326
19,19,female,Belg,4,142,guess,neutral,5,left,14,guess_outcome,0,undefined,0,0,770,101434,2792886
19,19,female,Belg,4,142,ITC,neutral,5,left,14,ITC_start,385,space,0,0,770,101047,2793273
19,19,female,Belg,4,142,ITC,neutral,5,left,14,ITC_choice,454,f,0,0,770,100591,2793729
19,19,female,Belg,4,142,ITC,neutral,5,left,14,ITC_wait,0,undefined,0,0,770,95583,2798737
19,19,female,Belg,4,142,ITC,neutral,5,left,14,ITC_collect,602,k,0,0,770,94977,2799343
19,19,female,Belg,4,142,ITC,neutral,5,left,14,ITC_outcome,0,undefined,0,0,790,93970,2800350
19,19,female,Belg,4,143,guess,neutral,5,right,9,guess_start,211,space,0,0,790,93756,2800564
19,19,female,Belg,4,143,guess,neutral,5,right,9,guess_choice,405,j,0,0,790,93346,2800974
19,19,female,Belg,4,143,guess,neutral,5,right,9,guess_outcome,0,undefined,0,0,790,91786,2802534
19,19,female,Belg,4,143,ITC,neutral,5,right,9,ITC_start,417,space,0,0,790,91367,2802953
19,19,female,Belg,4,143,ITC,neutral,5,right,9,ITC_choice,516,j,0,0,790,90849,2803471
19,19,female,Belg,4,143,ITC,neutral,5,right,9,ITC_wait,0,undefined,0,0,790,85841,2808479
19,19,female,Belg,4,143,ITC,neutral,5,right,9,ITC_collect,929,k,0,0,790,84909,2809411
19,19,female,Belg,4,143,ITC,neutral,5,right,9,ITC_outcome,0,undefined,0,0,810,83900,2810420
19,19,female,Belg,4,144,guess,neutral,10,left,4,guess_start,191,space,0,0,810,83706,2810614
19,19,female,Belg,4,144,guess,neutral,10,left,4,guess_choice,321,j,0,0,810,83380,2810940
19,19,female,Belg,4,144,guess,neutral,10,left,4,guess_outcome,0,undefined,0,0,810,81820,2812500
19,19,female,Belg,4,144,ITC,neutral,10,left,4,ITC_start,254,space,0,0,810,81564,2812756
19,19,female,Belg,4,144,ITC,neutral,10,left,4,ITC_choice,627,f,0,0,810,80932,2813388
19,19,female,Belg,4,144,ITC,neutral,10,left,4,ITC_wait,0,undefined,0,0,810,70924,2823396
19,19,female,Belg,4,144,ITC,neutral,10,left,4,ITC_collect,747,k,0,0,810,70176,2824144
19,19,female,Belg,4,144,ITC,neutral,10,left,4,ITC_outcome,0,undefined,0,0,830,69166,2825154
19,19,female,Belg,4,145,guess,win,5,left,3,guess_start,282,space,0,0,830,68881,2825439
