subjectID,age,gender,nationality,block_number,trial_number,trial_type,guess_outcome,delay_time,delay_pos,immediate_amount,stage,respRT,respKey,blur_count,focus_count,total_points,remaining_duration,time_elapsed
41,20,female,Belgian,1,1,guess,loss,5,right,11,guess_start,4305,space,0,0,0,475691,242668
41,20,female,Belgian,1,1,guess,loss,5,right,11,guess_choice,2410,f,0,0,0,473268,245091
41,20,female,Belgian,1,1,guess,loss,5,right,11,guess_outcome,0,undefined,0,0,-15,471702,246657
41,20,female,Belgian,1,1,ITC,loss,5,right,11,ITC_start,1389,space,0,0,-15,470311,248048
41,20,female,Belgian,1,1,ITC,loss,5,right,11,ITC_choice,3037,f,0,0,-15,467267,251092
41,20,female,Belgian,1,1,ITC,loss,5,right,11,ITC_wait,0,undefined,0,0,-15,467260,251099
41,20,female,Belgian,1,1,ITC,loss,5,right,11,ITC_collect,502,k,0,0,-15,466753,251606
41,20,female,Belgian,1,1,ITC,loss,5,right,11,ITC_outcome,0,undefined,0,0,-4,465740,252619
41,20,female,Belgian,1,2,guess,loss,5,right,7,guess_start,2342,space,0,0,-4,463386,254973
41,20,female,Belgian,1,2,guess,loss,5,right,7,guess_choice,1778,f,0,0,-4,461602,256757
41,20,female,Belgian,1,2,guess,loss,5,right,7,guess_outcome,0,undefined,0,0,-19,460043,258316
41,20,female,Belgian,1,2,ITC,loss,5,right,7,ITC_start,1057,space,0,0,-19,458982,259377
41,20,female,Belgian,1,2,ITC,loss,5,right,7,ITC_choice,1698,j,0,0,-19,457280,261079
41,20,female,Belgian,1,2,ITC,loss,5,right,7,ITC_wait,0,undefined,0,0,-19,452278,266081
41,20,female,Belgian,1,2,ITC,loss,5,right,7,ITC_collect,1062,k,0,0,-19,451212,267147
41,20,female,Belgian,1,2,ITC,loss,5,right,7,ITC_outcome,0,undefined,0,0,1,450199,268160
41,20,female,Belgian,1,3,guess,loss,10,left,6,guess_start,982,space,0,0,1,449214,269145
41,20,female,Belgian,1,3,guess,loss,10,left,6,guess_choice,1087,j,0,0,1,448108,270251
41,20,female,Belgian,1,3,guess,loss,10,left,6,guess_outcome,0,undefined,0,0,-14,446540,271819
41,20,female,Belgian,1,3,ITC,loss,10,left,6,ITC_start,911,space,0,0,-14,445626,272733
41,20,female,Belgian,1,3,ITC,loss,10,left,6,ITC_choice,2353,f,0,0,-14,443268,275091
41,20,female,Belgian,1,3,ITC,loss,10,left,6,ITC_wait,0,undefined,0,0,-14,433264,285095
41,20,female,Belgian,1,3,ITC,loss,10,left,6,ITC_collect,1081,k,0,0,-14,432178,286181
41,20,female,Belgian,1,3,ITC,loss,10,left,6,ITC_outcome,0,undefined,0,0,6,431165,287194
41,20,female,Belgian,1,4,guess,neutral,5,right,16,guess_start,999,space,0,0,6,430161,288198
41,20,female,Belgian,1,4,guess,neutral,5,right,16,guess_choice,3995,j,0,0,6,426148,292211
41,20,female,Belgian,1,4,ITC,neutral,5,right,16,ITC_start,1008,space,0,0,6,423569,294790
41,20,female,Belgian,1,4,guess,neutral,5,right,16,guess_outcome,0,undefined,0,0,6,424581,293778
41,20,female,Belgian,1,4,ITC,neutral,5,right,16,ITC_choice,2126,j,0,0,6,421439,296920
41,20,female,Belgian,1,4,ITC,neutral,5,right,16,ITC_wait,0,undefined,0,0,6,416434,301925
41,20,female,Belgian,1,4,ITC,neutral,5,right,16,ITC_collect,1156,k,0,0,6,415272,303087
41,20,female,Belgian,1,4,ITC,neutral,5,right,16,ITC_outcome,0,undefined,0,0,26,414252,304107
41,20,female,Belgian,1,5,guess,loss,10,left,5,guess_start,1170,space,0,0,26,413079,305280
41,20,female,Belgian,1,5,guess,loss,10,left,5,guess_choice,1289,f,0,0,26,411765,306594
41,20,female,Belgian,1,5,guess,loss,10,left,5,guess_outcome,0,undefined,0,0,11,410189,308170
41,20,female,Belgian,1,5,ITC,loss,10,left,5,ITC_start,1893,space,0,0,11,408291,310068
41,20,female,Belgian,1,5,ITC,loss,10,left,5,ITC_choice,3279,f,0,0,11,405005,313354
41,20,female,Belgian,1,5,ITC,loss,10,left,5,ITC_wait,0,undefined,0,0,11,395000,323359
41,20,female,Belgian,1,5,ITC,loss,10,left,5,ITC_collect,1163,k,0,0,11,393835,324524
41,20,female,Belgian,1,5,ITC,loss,10,left,5,ITC_outcome,0,undefined,0,0,31,392821,325538
41,20,female,Belgian,1,6,guess,neutral,5,left,7,guess_start,1676,space,0,0,31,391141,327218
41,20,female,Belgian,1,6,guess,neutral,5,left,7,guess_choice,1160,f,0,0,31,389954,328405
41,20,female,Belgian,1,6,guess,neutral,5,left,7,guess_outcome,0,undefined,0,0,31,388391,329968
41,20,female,Belgian,1,6,ITC,neutral,5,left,7,ITC_start,1367,space,0,0,31,387020,331339
41,20,female,Belgian,1,6,ITC,neutral,5,left,7,ITC_choice,3125,f,0,0,31,383892,334467
41,20,female,Belgian,1,6,ITC,neutral,5,left,7,ITC_wait,0,undefined,0,0,31,378889,339470
41,20,female,Belgian,1,6,ITC,neutral,5,left,7,ITC_collect,2481,k,0,0,31,376404,341955
41,20,female,Belgian,1,6,ITC,neutral,5,left,7,ITC_outcome,0,undefined,0,0,51,375395,342964
41,20,female,Belgian,1,7,guess,neutral,10,left,5,guess_start,2105,space,0,0,51,373286,345073
41,20,female,Belgian,1,7,guess,neutral,10,left,5,guess_choice,1206,f,0,0,51,372066,346293
41,20,female,Belgian,1,7,guess,neutral,10,left,5,guess_outcome,0,undefined,0,0,51,370503,347856
41,20,female,Belgian,1,7,ITC,neutral,10,left,5,ITC_start,1160,space,0,0,51,369338,349021
41,20,female,Belgian,1,7,ITC,neutral,10,left,5,ITC_choice,2118,j,0,0,51,367214,351145
41,20,female,Belgian,1,7,ITC,neutral,10,left,5,ITC_wait,0,undefined,0,0,51,367209,351150
41,20,female,Belgian,1,7,ITC,neutral,10,left,5,ITC_collect,1086,k,0,0,51,366121,352238
41,20,female,Belgian,1,7,ITC,neutral,10,left,5,ITC_outcome,0,undefined,0,0,56,365112,353247
41,20,female,Belgian,1,8,guess,win,5,left,13,guess_start,869,space,0,0,56,364241,354118
41,20,female,Belgian,1,8,guess,win,5,left,13,guess_choice,1104,j,0,0,56,363130,355229
41,20,female,Belgian,1,8,guess,win,5,left,13,guess_outcome,0,undefined,0,0,76,361562,356797
41,20,female,Belgian,1,8,ITC,win,5,left,13,ITC_start,523,space,0,0,76,361037,357322
41,20,female,Belgian,1,8,ITC,win,5,left,13,ITC_choice,1740,j,0,0,76,359292,359067
41,20,female,Belgian,1,8,ITC,win,5,left,13,ITC_wait,0,undefined,0,0,76,359282,359077
41,20,female,Belgian,1,8,ITC,win,5,left,13,ITC_collect,1462,k,0,0,76,357814,360545
41,20,female,Belgian,1,8,ITC,win,5,left,13,ITC_outcome,0,undefined,0,0,89,356798,361561
41,20,female,Belgian,1,9,guess,win,5,left,6,guess_start,1419,space,0,0,89,355371,362988
41,20,female,Belgian,1,9,guess,win,5,left,6,guess_choice,1446,f,0,0,89,353914,364445
41,20,female,Belgian,1,9,guess,win,5,left,6,guess_outcome,0,undefined,0,0,109,352347,366012
41,20,female,Belgian,1,9,ITC,win,5,left,6,ITC_start,580,space,0,0,109,351764,366595
41,20,female,Belgian,1,9,ITC,win,5,left,6,ITC_choice,2224,j,0,0,109,349538,368821
41,20,female,Belgian,1,9,ITC,win,5,left,6,ITC_wait,0,undefined,0,0,109,349528,368831
41,20,female,Belgian,1,9,ITC,win,5,left,6,ITC_collect,670,k,0,0,109,348853,369506
41,20,female,Belgian,1,9,ITC,win,5,left,6,ITC_outcome,0,undefined,0,0,115,347837,370522
41,20,female,Belgian,1,10,guess,win,5,right,14,guess_start,1032,space,0,0,115,346799,371560
41,20,female,Belgian,1,10,guess,win,5,right,14,guess_choice,1128,j,0,0,115,345653,372706
41,20,female,Belgian,1,10,guess,win,5,right,14,guess_outcome,0,undefined,0,0,135,344085,374274
41,20,female,Belgian,1,10,ITC,win,5,right,14,ITC_start,647,space,0,0,135,343436,374923
41,20,female,Belgian,1,10,ITC,win,5,right,14,ITC_choice,1411,f,0,0,135,342021,376338
41,20,female,Belgian,1,10,ITC,win,5,right,14,ITC_wait,0,undefined,0,0,135,342011,376348
41,20,female,Belgian,1,10,ITC,win,5,right,14,ITC_collect,1412,k,0,0,135,340594,377765
41,20,female,Belgian,1,10,ITC,win,5,right,14,ITC_outcome,0,undefined,0,0,149,339587,378772
41,20,female,Belgian,1,11,guess,win,5,left,4,guess_start,609,space,0,0,149,338972,379387
41,20,female,Belgian,1,11,guess,win,5,left,4,guess_choice,1228,j,0,0,149,337721,380638
41,20,female,Belgian,1,11,guess,win,5,left,4,guess_outcome,0,undefined,0,0,169,336149,382210
41,20,female,Belgian,1,11,ITC,win,5,left,4,ITC_start,783,space,0,0,169,335360,382999
41,20,female,Belgian,1,11,ITC,win,5,left,4,ITC_choice,2093,j,0,0,169,333263,385096
41,20,female,Belgian,1,11,ITC,win,5,left,4,ITC_wait,0,undefined,0,0,169,333256,385103
41,20,female,Belgian,1,11,ITC,win,5,left,4,ITC_collect,2258,k,0,0,169,330992,387367
41,20,female,Belgian,1,12,guess,neutral,5,left,3,guess_start,593,space,0,0,173,329371,388988
41,20,female,Belgian,1,12,guess,neutral,5,left,3,guess_choice,955,j,0,0,173,328393,389966
41,20,female,Belgian,1,11,ITC,win,5,left,4,ITC_outcome,0,undefined,0,0,173,329969,388390
41,20,female,Belgian,1,12,ITC,neutral,5,left,3,ITC_start,963,space,0,0,173,325855,392504
41,20,female,Belgian,1,12,guess,neutral,5,left,3,guess_outcome,0,undefined,0,0,173,326824,391535
41,20,female,Belgian,1,12,ITC,neutral,5,left,3,ITC_choice,1431,j,0,0,173,324420,393939
41,20,female,Belgian,1,12,ITC,neutral,5,left,3,ITC_collect,1673,k,0,0,173,322733,395626
41,20,female,Belgian,1,12,ITC,neutral,5,left,3,ITC_wait,0,undefined,0,0,173,324410,393949
41,20,female,Belgian,1,13,guess,loss,5,left,3,guess_choice,830,j,0,0,176,320318,398041
41,20,female,Belgian,1,12,ITC,neutral,5,left,3,ITC_outcome,0,undefined,0,0,176,321720,396639
41,20,female,Belgian,1,13,guess,loss,5,left,3,guess_start,543,space,0,0,176,321172,397187
41,20,female,Belgian,1,13,guess,loss,5,left,3,guess_outcome,0,undefined,0,0,161,318744,399615
41,20,female,Belgian,1,13,ITC,loss,5,left,3,ITC_start,772,space,0,0,161,317968,400391
41,20,female,Belgian,1,13,ITC,loss,5,left,3,ITC_choice,1710,f,0,0,161,316252,402107
41,20,female,Belgian,1,13,ITC,loss,5,left,3,ITC_wait,0,undefined,0,0,161,311247,407112
41,20,female,Belgian,1,13,ITC,loss,5,left,3,ITC_collect,1530,k,0,0,161,309713,408646
41,20,female,Belgian,1,13,ITC,loss,5,left,3,ITC_outcome,0,undefined,0,0,181,308708,409651
41,20,female,Belgian,1,14,guess,win,5,left,5,guess_start,755,space,0,0,181,307950,410409
41,20,female,Belgian,1,14,guess,win,5,left,5,guess_choice,1142,j,0,0,181,306807,411552
41,20,female,Belgian,1,14,guess,win,5,left,5,guess_outcome,0,undefined,0,0,201,305253,413106
41,20,female,Belgian,1,14,ITC,win,5,left,5,ITC_start,1375,space,0,0,201,303877,414482
41,20,female,Belgian,1,14,ITC,win,5,left,5,ITC_choice,1863,f,0,0,201,302011,416348
41,20,female,Belgian,1,14,ITC,win,5,left,5,ITC_wait,0,undefined,0,0,201,297008,421351
41,20,female,Belgian,1,14,ITC,win,5,left,5,ITC_collect,465,k,0,0,201,296540,421819
41,20,female,Belgian,1,14,ITC,win,5,left,5,ITC_outcome,0,undefined,0,0,221,295528,422831
41,20,female,Belgian,1,15,guess,neutral,10,left,2,guess_start,722,space,0,0,221,294801,423558
41,20,female,Belgian,1,15,guess,neutral,10,left,2,guess_choice,743,j,0,0,221,294046,424313
41,20,female,Belgian,1,15,guess,neutral,10,left,2,guess_outcome,0,undefined,0,0,221,292483,425876
41,20,female,Belgian,1,15,ITC,neutral,10,left,2,ITC_start,947,space,0,0,221,291533,426826
41,20,female,Belgian,1,15,ITC,neutral,10,left,2,ITC_choice,2615,f,0,0,221,288913,429446
41,20,female,Belgian,1,15,ITC,neutral,10,left,2,ITC_wait,0,undefined,0,0,221,278909,439450
41,20,female,Belgian,1,15,ITC,neutral,10,left,2,ITC_collect,1253,k,0,0,221,277652,440707
41,20,female,Belgian,1,15,ITC,neutral,10,left,2,ITC_outcome,0,undefined,0,0,241,276639,441720
41,20,female,Belgian,1,16,guess,loss,5,right,14,guess_start,674,space,0,0,241,275961,442398
41,20,female,Belgian,1,16,guess,loss,5,right,14,guess_choice,825,j,0,0,241,275124,443235
41,20,female,Belgian,1,16,guess,loss,5,right,14,guess_outcome,0,undefined,0,0,226,273557,444802
41,20,female,Belgian,1,16,ITC,loss,5,right,14,ITC_start,576,space,0,0,226,272976,445383
41,20,female,Belgian,1,16,ITC,loss,5,right,14,ITC_choice,1994,j,0,0,226,270979,447380
41,20,female,Belgian,1,16,ITC,loss,5,right,14,ITC_wait,0,undefined,0,0,226,265976,452383
41,20,female,Belgian,1,16,ITC,loss,5,right,14,ITC_collect,560,k,0,0,226,265410,452949
41,20,female,Belgian,1,16,ITC,loss,5,right,14,ITC_outcome,0,undefined,0,0,246,264392,453967
41,20,female,Belgian,1,17,guess,win,5,right,2,guess_start,802,space,0,0,246,263586,454773
41,20,female,Belgian,1,17,guess,win,5,right,2,guess_choice,1104,j,0,0,246,262463,455896
41,20,female,Belgian,1,17,guess,win,5,right,2,guess_outcome,0,undefined,0,0,266,260902,457457
41,20,female,Belgian,1,17,ITC,win,5,right,2,ITC_choice,2034,j,0,0,266,257754,460605
41,20,female,Belgian,1,17,ITC,win,5,right,2,ITC_start,1107,space,0,0,266,259793,458566
41,20,female,Belgian,1,17,ITC,win,5,right,2,ITC_wait,0,undefined,0,0,266,252748,465611
41,20,female,Belgian,1,17,ITC,win,5,right,2,ITC_collect,1045,k,0,0,266,251697,466662
41,20,female,Belgian,1,17,ITC,win,5,right,2,ITC_outcome,0,undefined,0,0,286,250677,467682
41,20,female,Belgian,1,18,guess,win,5,right,12,guess_start,1106,space,0,0,286,249565,468794
41,20,female,Belgian,1,18,guess,win,5,right,12,guess_choice,1865,f,0,0,286,247689,470670
41,20,female,Belgian,1,18,guess,win,5,right,12,guess_outcome,0,undefined,0,0,306,246116,472243
41,20,female,Belgian,1,18,ITC,win,5,right,12,ITC_start,1450,space,0,0,306,244661,473698
41,20,female,Belgian,1,18,ITC,win,5,right,12,ITC_choice,1620,j,0,0,306,243036,475323
41,20,female,Belgian,1,18,ITC,win,5,right,12,ITC_wait,0,undefined,0,0,306,238029,480330
41,20,female,Belgian,1,18,ITC,win,5,right,12,ITC_collect,3202,k,0,0,306,234821,483538
41,20,female,Belgian,1,18,ITC,win,5,right,12,ITC_outcome,0,undefined,0,0,326,233797,484562
41,20,female,Belgian,1,19,guess,loss,5,right,5,guess_start,1194,space,0,0,326,232598,485761
41,20,female,Belgian,1,19,guess,loss,5,right,5,guess_choice,938,j,0,0,326,231641,486718
41,20,female,Belgian,1,19,guess,loss,5,right,5,guess_outcome,0,undefined,0,0,311,230065,488294
41,20,female,Belgian,1,19,ITC,loss,5,right,5,ITC_choice,1578,j,0,0,311,227048,491311
41,20,female,Belgian,1,19,ITC,loss,5,right,5,ITC_start,1431,space,0,0,311,228630,489729
41,20,female,Belgian,1,19,ITC,loss,5,right,5,ITC_outcome,0,undefined,0,0,331,220188,498171
41,20,female,Belgian,1,19,ITC,loss,5,right,5,ITC_collect,822,k,0,0,311,221213,497146
41,20,female,Belgian,1,19,ITC,loss,5,right,5,ITC_wait,0,undefined,0,0,311,222042,496317
41,20,female,Belgian,1,20,guess,loss,5,right,12,guess_choice,778,j,0,0,331,218379,499980
41,20,female,Belgian,1,20,guess,loss,5,right,12,guess_start,998,space,0,0,331,219183,499176
41,20,female,Belgian,1,20,guess,loss,5,right,12,guess_outcome,0,undefined,0,0,316,216819,501540
41,20,female,Belgian,1,20,ITC,loss,5,right,12,ITC_start,565,space,0,0,316,216251,502108
41,20,female,Belgian,1,20,ITC,loss,5,right,12,ITC_choice,1370,j,0,0,316,214877,503482
41,20,female,Belgian,1,20,ITC,loss,5,right,12,ITC_wait,0,undefined,0,0,316,209874,508485
41,20,female,Belgian,1,20,ITC,loss,5,right,12,ITC_collect,5596,k,0,0,316,204276,514083
41,20,female,Belgian,1,20,ITC,loss,5,right,12,ITC_outcome,0,undefined,0,0,336,203263,515096
41,20,female,Belgian,1,21,guess,neutral,10,right,8,guess_start,565,space,0,0,336,202694,515665
41,20,female,Belgian,1,21,guess,neutral,10,right,8,guess_choice,1047,j,0,0,336,201633,516726
41,20,female,Belgian,1,21,guess,neutral,10,right,8,guess_outcome,0,undefined,0,0,336,200071,518288
41,20,female,Belgian,1,21,ITC,neutral,10,right,8,ITC_start,1163,space,0,0,336,198904,519455
41,20,female,Belgian,1,21,ITC,neutral,10,right,8,ITC_choice,1294,j,0,0,336,197606,520753
41,20,female,Belgian,1,21,ITC,neutral,10,right,8,ITC_wait,0,undefined,0,0,336,187602,530757
41,20,female,Belgian,1,21,ITC,neutral,10,right,8,ITC_collect,779,k,0,0,336,186819,531540
41,20,female,Belgian,1,21,ITC,neutral,10,right,8,ITC_outcome,0,undefined,0,0,356,185804,532555
41,20,female,Belgian,1,22,guess,neutral,5,right,6,guess_choice,884,f,0,0,356,184173,534186
41,20,female,Belgian,1,22,guess,neutral,5,right,6,guess_outcome,0,undefined,0,0,356,182606,535753
41,20,female,Belgian,1,22,guess,neutral,5,right,6,guess_start,725,space,0,0,356,185074,533285
41,20,female,Belgian,1,22,ITC,neutral,5,right,6,ITC_start,828,space,0,0,356,181770,536589
41,20,female,Belgian,1,22,ITC,neutral,5,right,6,ITC_choice,1109,j,0,0,356,180656,537703
41,20,female,Belgian,1,22,ITC,neutral,5,right,6,ITC_wait,0,undefined,0,0,356,175651,542708
41,20,female,Belgian,1,22,ITC,neutral,5,right,6,ITC_collect,4542,k,0,0,356,171104,547255
41,20,female,Belgian,1,22,ITC,neutral,5,right,6,ITC_outcome,0,undefined,0,0,376,170088,548271
41,20,female,Belgian,1,23,guess,loss,5,right,16,guess_start,6983,space,0,0,376,163100,555259
41,20,female,Belgian,1,23,guess,loss,5,right,16,guess_choice,2116,j,0,0,376,160961,557398
41,20,female,Belgian,1,23,guess,loss,5,right,16,guess_outcome,0,undefined,0,0,361,159392,558967
41,20,female,Belgian,1,23,ITC,loss,5,right,16,ITC_start,1799,space,0,0,361,157588,560771
41,20,female,Belgian,1,23,ITC,loss,5,right,16,ITC_choice,1028,j,0,0,361,156554,561805
41,20,female,Belgian,1,23,ITC,loss,5,right,16,ITC_wait,0,undefined,0,0,361,151548,566811
41,20,female,Belgian,1,23,ITC,loss,5,right,16,ITC_collect,1023,k,0,0,361,150521,567838
41,20,female,Belgian,1,23,ITC,loss,5,right,16,ITC_outcome,0,undefined,0,0,381,149500,568859
41,20,female,Belgian,1,24,guess,neutral,5,right,12,guess_start,1787,space,0,0,381,147707,570652
41,20,female,Belgian,1,24,guess,neutral,5,right,12,guess_choice,1174,j,0,0,381,146514,571845
41,20,female,Belgian,1,24,guess,neutral,5,right,12,guess_outcome,0,undefined,0,0,381,144941,573418
41,20,female,Belgian,1,24,ITC,neutral,5,right,12,ITC_start,2455,space,0,0,381,142481,575878
41,20,female,Belgian,1,24,ITC,neutral,5,right,12,ITC_choice,4717,f,0,0,381,137759,580600
41,20,female,Belgian,1,24,ITC,neutral,5,right,12,ITC_wait,0,undefined,0,0,381,137752,580607
41,20,female,Belgian,1,24,ITC,neutral,5,right,12,ITC_collect,3816,k,0,0,381,133932,584427
41,20,female,Belgian,1,24,ITC,neutral,5,right,12,ITC_outcome,0,undefined,0,0,393,132907,585452
41,20,female,Belgian,1,25,guess,neutral,10,left,6,guess_start,1338,space,0,0,393,131565,586794
41,20,female,Belgian,1,25,guess,neutral,10,left,6,guess_choice,862,j,0,0,393,130694,587665
41,20,female,Belgian,1,25,guess,neutral,10,left,6,guess_outcome,0,undefined,0,0,393,129133,589226
41,20,female,Belgian,1,25,ITC,neutral,10,left,6,ITC_start,898,space,0,0,393,128232,590127
41,20,female,Belgian,1,25,ITC,neutral,10,left,6,ITC_wait,0,undefined,0,0,393,126883,591476
41,20,female,Belgian,1,25,ITC,neutral,10,left,6,ITC_choice,1342,j,0,0,393,126888,591471
41,20,female,Belgian,1,25,ITC,neutral,10,left,6,ITC_outcome,0,undefined,0,0,399,124337,594022
41,20,female,Belgian,1,25,ITC,neutral,10,left,6,ITC_collect,1532,k,0,0,393,125349,593010
41,20,female,Belgian,1,26,guess,loss,5,right,8,guess_choice,1060,f,0,0,399,122484,595875
41,20,female,Belgian,1,26,guess,loss,5,right,8,guess_start,762,space,0,0,399,123567,594792
41,20,female,Belgian,1,26,guess,loss,5,right,8,guess_outcome,0,undefined,0,0,384,120921,597438
41,20,female,Belgian,1,26,ITC,loss,5,right,8,ITC_start,677,space,0,0,384,120239,598120
41,20,female,Belgian,1,26,ITC,loss,5,right,8,ITC_wait,0,undefined,0,0,384,118620,599739
41,20,female,Belgian,1,26,ITC,loss,5,right,8,ITC_collect,1178,k,0,0,384,117436,600923
41,20,female,Belgian,1,26,ITC,loss,5,right,8,ITC_choice,1600,f,0,0,384,118633,599726
41,20,female,Belgian,1,26,ITC,loss,5,right,8,ITC_outcome,0,undefined,0,0,392,116402,601957
41,20,female,Belgian,1,27,guess,loss,5,right,1,guess_start,539,space,0,0,392,115857,602502
41,20,female,Belgian,1,27,guess,loss,5,right,1,guess_choice,973,j,0,0,392,114863,603496
41,20,female,Belgian,1,27,guess,loss,5,right,1,guess_outcome,0,undefined,0,0,377,113305,605054
41,20,female,Belgian,1,27,ITC,loss,5,right,1,ITC_start,647,space,0,0,377,112655,605704
41,20,female,Belgian,1,27,ITC,loss,5,right,1,ITC_choice,1334,j,0,0,377,111316,607043
41,20,female,Belgian,1,27,ITC,loss,5,right,1,ITC_wait,0,undefined,0,0,377,106311,612048
41,20,female,Belgian,1,27,ITC,loss,5,right,1,ITC_collect,5657,k,0,0,377,100650,617709
41,20,female,Belgian,1,27,ITC,loss,5,right,1,ITC_outcome,0,undefined,0,0,397,99639,618720
41,20,female,Belgian,1,28,guess,loss,10,right,7,guess_start,642,space,0,0,397,98992,619367
41,20,female,Belgian,1,28,guess,loss,10,right,7,guess_choice,955,f,0,0,397,98026,620333
41,20,female,Belgian,1,28,ITC,loss,10,right,7,ITC_start,2126,space,0,0,382,94333,624026
41,20,female,Belgian,1,28,ITC,loss,10,right,7,ITC_choice,999,j,0,0,382,93330,625029
41,20,female,Belgian,1,28,guess,loss,10,right,7,guess_outcome,0,undefined,0,0,382,96463,621896
41,20,female,Belgian,1,28,ITC,loss,10,right,7,ITC_collect,923,k,0,0,382,82400,635959
41,20,female,Belgian,1,29,guess,neutral,5,left,10,guess_choice,798,j,0,0,402,79932,638427
41,20,female,Belgian,1,29,guess,neutral,5,left,10,guess_start,640,space,0,0,402,80747,637612
41,20,female,Belgian,1,29,guess,neutral,5,left,10,guess_outcome,0,undefined,0,0,402,78363,639996
41,20,female,Belgian,1,29,ITC,neutral,5,left,10,ITC_start,1394,space,0,0,402,76965,641394
41,20,female,Belgian,1,28,ITC,loss,10,right,7,ITC_wait,0,undefined,0,0,382,83326,635033
41,20,female,Belgian,1,28,ITC,loss,10,right,7,ITC_outcome,0,undefined,0,0,402,81390,636969
41,20,female,Belgian,1,29,ITC,neutral,5,left,10,ITC_choice,1325,j,0,0,402,75637,642722
41,20,female,Belgian,1,29,ITC,neutral,5,left,10,ITC_wait,0,undefined,0,0,402,75633,642726
41,20,female,Belgian,1,29,ITC,neutral,5,left,10,ITC_collect,965,k,0,0,402,74665,643694
41,20,female,Belgian,1,30,guess,loss,10,right,1,guess_choice,795,j,0,0,412,72191,646168
41,20,female,Belgian,1,30,guess,loss,10,right,1,guess_outcome,0,undefined,0,0,397,70626,647733
41,20,female,Belgian,1,30,guess,loss,10,right,1,guess_start,636,space,0,0,412,73007,645352
41,20,female,Belgian,1,30,ITC,loss,10,right,1,ITC_start,915,space,0,0,397,69707,648652
41,20,female,Belgian,1,29,ITC,neutral,5,left,10,ITC_outcome,0,undefined,0,0,412,73647,644712
41,20,female,Belgian,1,30,ITC,loss,10,right,1,ITC_choice,1030,j,0,0,397,68673,649686
41,20,female,Belgian,1,30,ITC,loss,10,right,1,ITC_wait,0,undefined,0,0,397,58667,659692
41,20,female,Belgian,1,30,ITC,loss,10,right,1,ITC_collect,1517,k,0,0,397,57145,661214
41,20,female,Belgian,1,30,ITC,loss,10,right,1,ITC_outcome,0,undefined,0,0,417,56126,662233
41,20,female,Belgian,1,31,guess,loss,5,right,10,guess_start,638,space,0,0,417,55481,662878
41,20,female,Belgian,1,31,guess,loss,5,right,10,guess_choice,1773,f,0,0,417,53686,664673
41,20,female,Belgian,1,31,guess,loss,5,right,10,guess_outcome,0,undefined,0,0,402,52111,666248
41,20,female,Belgian,1,31,ITC,loss,5,right,10,ITC_start,767,space,0,0,402,51338,667021
41,20,female,Belgian,1,31,ITC,loss,5,right,10,ITC_choice,1135,j,0,0,402,50198,668161
41,20,female,Belgian,1,31,ITC,loss,5,right,10,ITC_wait,0,undefined,0,0,402,45189,673170
41,20,female,Belgian,1,31,ITC,loss,5,right,10,ITC_collect,1991,k,0,0,402,43193,675166
41,20,female,Belgian,1,31,ITC,loss,5,right,10,ITC_outcome,0,undefined,0,0,422,42174,676185
41,20,female,Belgian,1,32,guess,win,5,right,11,guess_start,690,space,0,0,422,41480,676879
41,20,female,Belgian,1,32,guess,win,5,right,11,guess_choice,834,j,0,0,422,40629,677730
41,20,female,Belgian,1,32,guess,win,5,right,11,guess_outcome,0,undefined,0,0,442,39054,679305
41,20,female,Belgian,1,32,ITC,win,5,right,11,ITC_start,971,space,0,0,442,38076,680283
41,20,female,Belgian,1,32,ITC,win,5,right,11,ITC_choice,1099,j,0,0,442,36974,681385
41,20,female,Belgian,1,32,ITC,win,5,right,11,ITC_wait,0,undefined,0,0,442,31971,686388
41,20,female,Belgian,1,32,ITC,win,5,right,11,ITC_collect,19459,k,0,0,442,12506,705853
41,20,female,Belgian,1,32,ITC,win,5,right,11,ITC_outcome,0,undefined,0,0,462,11499,706860
41,20,female,Belgian,1,33,guess,loss,5,right,6,guess_start,4956,space,0,0,462,6541,711818
41,20,female,Belgian,1,33,guess,loss,5,right,6,guess_choice,1272,j,0,0,462,5265,713094
41,20,female,Belgian,1,33,ITC,loss,5,right,6,ITC_start,912,space,0,0,447,2791,715568
41,20,female,Belgian,1,33,ITC,loss,5,right,6,ITC_choice,1016,j,0,0,447,1772,716587
41,20,female,Belgian,1,33,guess,loss,5,right,6,guess_outcome,0,undefined,0,0,447,3705,714654
41,20,female,Belgian,1,33,ITC,loss,5,right,6,ITC_wait,0,undefined,0,0,447,-3,718362
41,20,female,Belgian,2,34,ITC,neutral,5,left,4,ITC_choice,2281,f,0,0,0,470978,741032
41,20,female,Belgian,2,34,guess,neutral,5,left,4,guess_start,2678,space,0,0,0,477320,734690
41,20,female,Belgian,2,34,guess,neutral,5,left,4,guess_outcome,0,undefined,0,0,0,474466,737544
41,20,female,Belgian,2,34,ITC,neutral,5,left,4,ITC_start,1201,space,0,0,0,473262,738748
41,20,female,Belgian,2,34,guess,neutral,5,left,4,guess_choice,1281,f,0,0,0,476031,735979
41,20,female,Belgian,2,34,ITC,neutral,5,left,4,ITC_wait,0,undefined,0,0,0,465972,746038
41,20,female,Belgian,2,34,ITC,neutral,5,left,4,ITC_collect,2921,k,0,0,0,463048,748962
41,20,female,Belgian,2,34,ITC,neutral,5,left,4,ITC_outcome,0,undefined,0,0,20,462027,749983
41,20,female,Belgian,2,35,guess,neutral,5,right,15,guess_start,1483,space,0,0,20,460539,751471
41,20,female,Belgian,2,35,guess,neutral,5,right,15,guess_choice,2073,j,0,0,20,458449,753561
41,20,female,Belgian,2,35,guess,neutral,5,right,15,guess_outcome,0,undefined,0,0,20,456880,755130
41,20,female,Belgian,2,35,ITC,neutral,5,right,15,ITC_start,2878,space,0,0,20,453998,758012
41,20,female,Belgian,2,35,ITC,neutral,5,right,15,ITC_choice,1664,j,0,0,20,452329,759681
41,20,female,Belgian,2,35,ITC,neutral,5,right,15,ITC_wait,0,undefined,0,0,20,447325,764685
41,20,female,Belgian,2,35,ITC,neutral,5,right,15,ITC_collect,7649,k,0,0,20,439672,772338
41,20,female,Belgian,2,35,ITC,neutral,5,right,15,ITC_outcome,0,undefined,0,0,40,438658,773352
41,20,female,Belgian,2,36,guess,loss,10,right,4,guess_start,5981,space,0,0,40,432671,779339
41,20,female,Belgian,2,36,guess,loss,10,right,4,guess_choice,1394,j,0,0,40,431252,780758
41,20,female,Belgian,2,36,guess,loss,10,right,4,guess_outcome,0,undefined,0,0,25,429682,782328
41,20,female,Belgian,2,36,ITC,loss,10,right,4,ITC_start,811,space,0,0,25,428866,783144
41,20,female,Belgian,2,36,ITC,loss,10,right,4,ITC_choice,1587,j,0,0,25,427274,784736
41,20,female,Belgian,2,36,ITC,loss,10,right,4,ITC_wait,0,undefined,0,0,25,417268,794742
41,20,female,Belgian,2,36,ITC,loss,10,right,4,ITC_collect,1431,k,0,0,25,415829,796181
41,20,female,Belgian,2,36,ITC,loss,10,right,4,ITC_outcome,0,undefined,0,0,45,414807,797203
41,20,female,Belgian,2,37,guess,win,5,right,7,guess_choice,1738,f,0,0,45,412545,799465
41,20,female,Belgian,2,37,guess,win,5,right,7,guess_start,511,space,0,0,45,414294,797716
41,20,female,Belgian,2,37,guess,win,5,right,7,guess_outcome,0,undefined,0,0,65,410985,801025
41,20,female,Belgian,2,37,ITC,win,5,right,7,ITC_start,3621,space,0,0,65,407361,804649
41,20,female,Belgian,2,37,ITC,win,5,right,7,ITC_choice,1586,j,0,0,65,405768,806242
41,20,female,Belgian,2,37,ITC,win,5,right,7,ITC_wait,0,undefined,0,0,65,400764,811246
41,20,female,Belgian,2,37,ITC,win,5,right,7,ITC_collect,1425,k,0,0,65,399335,812675
41,20,female,Belgian,2,37,ITC,win,5,right,7,ITC_outcome,0,undefined,0,0,85,398312,813698
41,20,female,Belgian,2,38,guess,neutral,5,left,9,guess_start,3004,space,0,0,85,395304,816706
41,20,female,Belgian,2,38,guess,neutral,5,left,9,guess_choice,876,j,0,0,85,394419,817591
41,20,female,Belgian,2,38,guess,neutral,5,left,9,guess_outcome,0,undefined,0,0,85,392858,819152
41,20,female,Belgian,2,38,ITC,neutral,5,left,9,ITC_start,1304,space,0,0,85,391552,820458
41,20,female,Belgian,2,38,ITC,neutral,5,left,9,ITC_choice,1410,f,0,0,85,390137,821873
41,20,female,Belgian,2,38,ITC,neutral,5,left,9,ITC_wait,0,undefined,0,0,85,385133,826877
41,20,female,Belgian,2,38,ITC,neutral,5,left,9,ITC_collect,983,k,0,0,85,384146,827864
41,20,female,Belgian,2,38,ITC,neutral,5,left,9,ITC_outcome,0,undefined,0,0,105,383135,828875
41,20,female,Belgian,2,39,guess,win,5,left,8,guess_choice,1093,j,0,0,105,380763,831247
41,20,female,Belgian,2,39,guess,win,5,left,8,guess_start,1260,space,0,0,105,381870,830140
41,20,female,Belgian,2,39,guess,win,5,left,8,guess_outcome,0,undefined,0,0,125,379203,832807
41,20,female,Belgian,2,39,ITC,win,5,left,8,ITC_start,1055,space,0,0,125,378144,833866
41,20,female,Belgian,2,39,ITC,win,5,left,8,ITC_choice,2676,f,0,0,125,375464,836546
41,20,female,Belgian,2,39,ITC,win,5,left,8,ITC_wait,0,undefined,0,0,125,370459,841551
41,20,female,Belgian,2,39,ITC,win,5,left,8,ITC_collect,2055,k,0,0,125,368397,843613
41,20,female,Belgian,2,39,ITC,win,5,left,8,ITC_outcome,0,undefined,0,0,145,367380,844630
41,20,female,Belgian,2,40,guess,loss,5,right,9,guess_start,2294,space,0,0,145,365081,846929
41,20,female,Belgian,2,40,guess,loss,5,right,9,guess_choice,1318,f,0,0,145,363749,848261
41,20,female,Belgian,2,40,guess,loss,5,right,9,guess_outcome,0,undefined,0,0,130,362192,849818
41,20,female,Belgian,2,40,ITC,loss,5,right,9,ITC_start,3381,space,0,0,130,358804,853206
41,20,female,Belgian,2,40,ITC,loss,5,right,9,ITC_choice,2029,j,0,0,130,356771,855239
41,20,female,Belgian,2,40,ITC,loss,5,right,9,ITC_wait,0,undefined,0,0,130,351766,860244
41,20,female,Belgian,2,40,ITC,loss,5,right,9,ITC_collect,8556,k,0,0,130,343205,868805
41,20,female,Belgian,2,40,ITC,loss,5,right,9,ITC_outcome,0,undefined,0,0,150,342181,869829
41,20,female,Belgian,2,41,guess,neutral,5,left,14,guess_start,52229,space,0,0,150,289945,922065
41,20,female,Belgian,2,41,guess,neutral,5,left,14,guess_choice,848,j,0,0,150,289075,922935
41,20,female,Belgian,2,41,guess,neutral,5,left,14,guess_outcome,0,undefined,0,0,150,287502,924508
41,20,female,Belgian,2,41,ITC,neutral,5,left,14,ITC_start,2243,space,0,0,150,285254,926756
41,20,female,Belgian,2,41,ITC,neutral,5,left,14,ITC_choice,2169,j,0,0,150,283079,928931
41,20,female,Belgian,2,41,ITC,neutral,5,left,14,ITC_wait,0,undefined,0,0,150,283068,928942
41,20,female,Belgian,2,42,guess,win,10,right,2,guess_start,631,space,0,0,164,280484,931526
41,20,female,Belgian,2,41,ITC,neutral,5,left,14,ITC_collect,912,k,0,0,150,282150,929860
41,20,female,Belgian,2,41,ITC,neutral,5,left,14,ITC_outcome,0,undefined,0,0,164,281122,930888
41,20,female,Belgian,2,42,guess,win,10,right,2,guess_choice,704,j,0,0,164,279755,932255
41,20,female,Belgian,2,42,guess,win,10,right,2,guess_outcome,0,undefined,0,0,184,278188,933822
41,20,female,Belgian,2,42,ITC,win,10,right,2,ITC_start,521,space,0,0,184,277663,934347
41,20,female,Belgian,2,42,ITC,win,10,right,2,ITC_choice,1200,j,0,0,184,276460,935550
41,20,female,Belgian,2,42,ITC,win,10,right,2,ITC_wait,0,undefined,0,0,184,266457,945553
41,20,female,Belgian,2,42,ITC,win,10,right,2,ITC_collect,3307,k,0,0,184,263145,948865
41,20,female,Belgian,2,42,ITC,win,10,right,2,ITC_outcome,0,undefined,0,0,204,262130,949880
41,20,female,Belgian,2,43,guess,neutral,5,left,13,guess_start,736,space,0,0,204,261392,950618
41,20,female,Belgian,2,43,guess,neutral,5,left,13,guess_choice,1066,j,0,0,204,260312,951698
41,20,female,Belgian,2,43,guess,neutral,5,left,13,guess_outcome,0,undefined,0,0,204,258749,953261
41,20,female,Belgian,2,43,ITC,neutral,5,left,13,ITC_start,923,space,0,0,204,257822,954188
41,20,female,Belgian,2,43,ITC,neutral,5,left,13,ITC_choice,1319,j,0,0,204,256499,955511
41,20,female,Belgian,2,43,ITC,neutral,5,left,13,ITC_wait,0,undefined,0,0,204,256489,955521
41,20,female,Belgian,2,43,ITC,neutral,5,left,13,ITC_collect,836,k,0,0,204,255650,956360
41,20,female,Belgian,2,43,ITC,neutral,5,left,13,ITC_outcome,0,undefined,0,0,217,254635,957375
41,20,female,Belgian,2,44,guess,win,10,right,8,guess_start,421,space,0,0,217,254210,957800
41,20,female,Belgian,2,44,guess,win,10,right,8,guess_choice,620,j,0,0,217,253575,958435
41,20,female,Belgian,2,44,guess,win,10,right,8,guess_outcome,0,undefined,0,0,237,252009,960001
41,20,female,Belgian,2,44,ITC,win,10,right,8,ITC_start,695,space,0,0,237,251311,960699
41,20,female,Belgian,2,44,ITC,win,10,right,8,ITC_choice,996,j,0,0,237,250311,961699
41,20,female,Belgian,2,44,ITC,win,10,right,8,ITC_wait,0,undefined,0,0,237,240307,971703
41,20,female,Belgian,2,44,ITC,win,10,right,8,ITC_collect,773,k,0,0,237,239529,972481
41,20,female,Belgian,2,44,ITC,win,10,right,8,ITC_outcome,0,undefined,0,0,257,238519,973491
41,20,female,Belgian,2,45,guess,win,5,left,1,guess_start,761,space,0,0,257,237753,974257
41,20,female,Belgian,2,45,guess,win,5,left,1,guess_choice,674,j,0,0,257,237063,974947
41,20,female,Belgian,2,45,guess,win,5,left,1,guess_outcome,0,undefined,0,0,277,235494,976516
41,20,female,Belgian,2,45,ITC,win,5,left,1,ITC_start,701,space,0,0,277,234790,977220
41,20,female,Belgian,2,45,ITC,win,5,left,1,ITC_choice,1235,j,0,0,277,233551,978459
41,20,female,Belgian,2,45,ITC,win,5,left,1,ITC_wait,0,undefined,0,0,277,233539,978471
41,20,female,Belgian,2,45,ITC,win,5,left,1,ITC_collect,596,k,0,0,277,232939,979071
41,20,female,Belgian,2,46,guess,loss,5,left,15,guess_start,611,space,0,0,278,231302,980708
41,20,female,Belgian,2,45,ITC,win,5,left,1,ITC_outcome,0,undefined,0,0,278,231920,980090
41,20,female,Belgian,2,46,guess,loss,5,left,15,guess_choice,706,j,0,0,278,230577,981433
41,20,female,Belgian,2,46,ITC,loss,5,left,15,ITC_choice,1022,j,0,0,263,227469,984541
41,20,female,Belgian,2,46,ITC,loss,5,left,15,ITC_start,507,space,0,0,263,228497,983513
41,20,female,Belgian,2,46,guess,loss,5,left,15,guess_outcome,0,undefined,0,0,263,229009,983001
41,20,female,Belgian,2,46,ITC,loss,5,left,15,ITC_wait,0,undefined,0,0,263,227464,984546
41,20,female,Belgian,2,46,ITC,loss,5,left,15,ITC_collect,1224,k,0,0,263,226234,985776
41,20,female,Belgian,2,47,guess,win,10,right,4,guess_start,484,space,0,0,278,224721,987289
41,20,female,Belgian,2,47,guess,win,10,right,4,guess_outcome,0,undefined,0,0,298,222550,989460
41,20,female,Belgian,2,47,ITC,win,10,right,4,ITC_start,527,space,0,0,298,222017,989993
41,20,female,Belgian,2,46,ITC,loss,5,left,15,ITC_outcome,0,undefined,0,0,278,225210,986800
41,20,female,Belgian,2,47,guess,win,10,right,4,guess_choice,582,j,0,0,278,224120,987890
41,20,female,Belgian,2,47,ITC,win,10,right,4,ITC_choice,1045,j,0,0,298,220965,991045
41,20,female,Belgian,2,47,ITC,win,10,right,4,ITC_wait,0,undefined,0,0,298,210959,1001051
41,20,female,Belgian,2,47,ITC,win,10,right,4,ITC_collect,990,k,0,0,298,209964,1002046
41,20,female,Belgian,2,47,ITC,win,10,right,4,ITC_outcome,0,undefined,0,0,318,208944,1003066
41,20,female,Belgian,2,48,guess,neutral,5,left,2,guess_choice,1113,f,0,0,318,207144,1004866
41,20,female,Belgian,2,48,guess,neutral,5,left,2,guess_start,669,space,0,0,318,208270,1003740
41,20,female,Belgian,2,48,guess,neutral,5,left,2,guess_outcome,0,undefined,0,0,318,205570,1006440
41,20,female,Belgian,2,48,ITC,neutral,5,left,2,ITC_start,785,space,0,0,318,204780,1007230
41,20,female,Belgian,2,48,ITC,neutral,5,left,2,ITC_wait,0,undefined,0,0,318,203649,1008361
41,20,female,Belgian,2,48,ITC,neutral,5,left,2,ITC_choice,1116,j,0,0,318,203656,1008354
41,20,female,Belgian,2,48,ITC,neutral,5,left,2,ITC_collect,792,k,0,0,318,202853,1009157
41,20,female,Belgian,2,48,ITC,neutral,5,left,2,ITC_outcome,0,undefined,0,0,320,201840,1010170
41,20,female,Belgian,2,49,guess,loss,10,right,2,guess_start,497,space,0,0,320,201337,1010673
41,20,female,Belgian,2,49,guess,loss,10,right,2,guess_choice,596,j,0,0,320,200718,1011292
41,20,female,Belgian,2,49,guess,loss,10,right,2,guess_outcome,0,undefined,0,0,305,199144,1012866
41,20,female,Belgian,2,49,ITC,loss,10,right,2,ITC_start,411,space,0,0,305,198727,1013283
41,20,female,Belgian,2,49,ITC,loss,10,right,2,ITC_choice,829,j,0,0,305,197893,1014117
41,20,female,Belgian,2,49,ITC,loss,10,right,2,ITC_wait,0,undefined,0,0,305,187889,1024121
41,20,female,Belgian,2,49,ITC,loss,10,right,2,ITC_collect,1095,k,0,0,305,186789,1025221
41,20,female,Belgian,2,50,guess,win,5,left,16,guess_start,803,space,0,0,325,184976,1027034
41,20,female,Belgian,2,49,ITC,loss,10,right,2,ITC_outcome,0,undefined,0,0,325,185780,1026230
41,20,female,Belgian,2,50,guess,win,5,left,16,guess_outcome,0,undefined,0,0,345,182395,1029615
41,20,female,Belgian,2,50,ITC,win,5,left,16,ITC_start,608,space,0,0,345,181785,1030225
41,20,female,Belgian,2,50,ITC,win,5,left,16,ITC_choice,1162,f,0,0,345,180621,1031389
41,20,female,Belgian,2,50,ITC,win,5,left,16,ITC_wait,0,undefined,0,0,345,175618,1036392
41,20,female,Belgian,2,50,guess,win,5,left,16,guess_choice,1008,f,0,0,325,183955,1028055
41,20,female,Belgian,2,50,ITC,win,5,left,16,ITC_outcome,0,undefined,0,0,365,172278,1039732
41,20,female,Belgian,2,50,ITC,win,5,left,16,ITC_collect,2319,k,0,0,345,173297,1038713
41,20,female,Belgian,2,51,guess,win,10,right,5,guess_start,538,space,0,0,365,171733,1040277
41,20,female,Belgian,2,51,guess,win,10,right,5,guess_choice,771,j,0,0,365,170947,1041063
41,20,female,Belgian,2,51,ITC,win,10,right,5,ITC_start,502,space,0,0,385,168875,1043135
41,20,female,Belgian,2,51,guess,win,10,right,5,guess_outcome,0,undefined,0,0,385,169382,1042628
41,20,female,Belgian,2,51,ITC,win,10,right,5,ITC_choice,928,j,0,0,385,167944,1044066
41,20,female,Belgian,2,51,ITC,win,10,right,5,ITC_wait,0,undefined,0,0,385,157939,1054071
41,20,female,Belgian,2,51,ITC,win,10,right,5,ITC_collect,1193,k,0,0,385,156741,1055269
41,20,female,Belgian,2,52,ITC,loss,10,right,8,ITC_start,990,space,0,0,390,151649,1060361
41,20,female,Belgian,2,52,ITC,loss,10,right,8,ITC_choice,868,j,0,0,390,150776,1061234
41,20,female,Belgian,2,51,ITC,win,10,right,5,ITC_outcome,0,undefined,0,0,405,155726,1056284
41,20,female,Belgian,2,52,guess,loss,10,right,8,guess_start,863,space,0,0,405,154858,1057152
41,20,female,Belgian,2,52,ITC,loss,10,right,8,ITC_wait,0,undefined,0,0,390,140773,1071237
41,20,female,Belgian,2,52,guess,loss,10,right,8,guess_choice,641,j,0,0,405,154199,1057811
41,20,female,Belgian,2,52,guess,loss,10,right,8,guess_outcome,0,undefined,0,0,390,152643,1059367
41,20,female,Belgian,2,52,ITC,loss,10,right,8,ITC_collect,833,k,0,0,390,139935,1072075
41,20,female,Belgian,2,52,ITC,loss,10,right,8,ITC_outcome,0,undefined,0,0,410,138920,1073090
41,20,female,Belgian,2,53,guess,neutral,10,right,3,guess_start,1357,space,0,0,410,137557,1074453
41,20,female,Belgian,2,53,guess,neutral,10,right,3,guess_choice,1108,f,0,0,410,136426,1075584
41,20,female,Belgian,2,53,ITC,neutral,10,right,3,ITC_start,775,space,0,0,410,134075,1077935
41,20,female,Belgian,2,53,ITC,neutral,10,right,3,ITC_choice,1049,j,0,0,410,133022,1078988
41,20,female,Belgian,2,53,guess,neutral,10,right,3,guess_outcome,0,undefined,0,0,410,134854,1077156
41,20,female,Belgian,2,53,ITC,neutral,10,right,3,ITC_wait,0,undefined,0,0,410,123016,1088994
41,20,female,Belgian,2,53,ITC,neutral,10,right,3,ITC_collect,866,k,0,0,410,122145,1089865
41,20,female,Belgian,2,53,ITC,neutral,10,right,3,ITC_outcome,0,undefined,0,0,430,121128,1090882
41,20,female,Belgian,2,54,guess,neutral,5,left,11,guess_start,857,space,0,0,430,120269,1091741
41,20,female,Belgian,2,54,guess,neutral,5,left,11,guess_choice,1002,f,0,0,430,119259,1092751
41,20,female,Belgian,2,54,guess,neutral,5,left,11,guess_outcome,0,undefined,0,0,430,117701,1094309
41,20,female,Belgian,2,54,ITC,neutral,5,left,11,ITC_start,964,space,0,0,430,116735,1095275
41,20,female,Belgian,2,54,ITC,neutral,5,left,11,ITC_choice,1561,f,0,0,430,115171,1096839
41,20,female,Belgian,2,54,ITC,neutral,5,left,11,ITC_collect,807,k,0,0,430,109360,1102650
41,20,female,Belgian,2,54,ITC,neutral,5,left,11,ITC_outcome,0,undefined,0,0,450,108349,1103661
41,20,female,Belgian,2,54,ITC,neutral,5,left,11,ITC_wait,0,undefined,0,0,430,110169,1101841
41,20,female,Belgian,2,55,guess,win,5,left,15,guess_start,581,space,0,0,450,107766,1104244
41,20,female,Belgian,2,55,guess,win,5,left,15,guess_choice,933,j,0,0,450,106824,1105186
41,20,female,Belgian,2,55,guess,win,5,left,15,guess_outcome,0,undefined,0,0,470,105251,1106759
41,20,female,Belgian,2,55,ITC,win,5,left,15,ITC_start,417,space,0,0,470,104831,1107179
41,20,female,Belgian,2,55,ITC,win,5,left,15,ITC_choice,1437,f,0,0,470,103390,1108620
41,20,female,Belgian,2,55,ITC,win,5,left,15,ITC_wait,0,undefined,0,0,470,98385,1113625
41,20,female,Belgian,2,55,ITC,win,5,left,15,ITC_collect,1169,k,0,0,470,97211,1114799
41,20,female,Belgian,2,55,ITC,win,5,left,15,ITC_outcome,0,undefined,0,0,490,96208,1115802
41,20,female,Belgian,2,56,guess,neutral,10,right,1,guess_start,803,space,0,0,490,95401,1116609
41,20,female,Belgian,2,56,guess,neutral,10,right,1,guess_choice,393,j,0,0,490,94999,1117011
41,20,female,Belgian,2,56,guess,neutral,10,right,1,guess_outcome,0,undefined,0,0,490,93441,1118569
41,20,female,Belgian,2,56,ITC,neutral,10,right,1,ITC_start,582,space,0,0,490,92858,1119152
41,20,female,Belgian,2,56,ITC,neutral,10,right,1,ITC_choice,1378,j,0,0,490,91477,1120533
41,20,female,Belgian,2,56,ITC,neutral,10,right,1,ITC_wait,0,undefined,0,0,490,81474,1130536
41,20,female,Belgian,2,56,ITC,neutral,10,right,1,ITC_collect,2481,k,0,0,490,78989,1133021
41,20,female,Belgian,2,56,ITC,neutral,10,right,1,ITC_outcome,0,undefined,0,0,510,77981,1134029
41,20,female,Belgian,2,57,guess,win,10,right,7,guess_start,593,space,0,0,510,77381,1134629
41,20,female,Belgian,2,57,guess,win,10,right,7,guess_choice,656,j,0,0,510,76710,1135300
41,20,female,Belgian,2,57,guess,win,10,right,7,guess_outcome,0,undefined,0,0,530,75148,1136862
41,20,female,Belgian,2,57,ITC,win,10,right,7,ITC_start,962,space,0,0,530,74182,1137828
41,20,female,Belgian,2,57,ITC,win,10,right,7,ITC_choice,1071,j,0,0,530,73107,1138903
41,20,female,Belgian,2,57,ITC,win,10,right,7,ITC_wait,0,undefined,0,0,530,63101,1148909
41,20,female,Belgian,2,57,ITC,win,10,right,7,ITC_collect,774,k,0,0,530,62323,1149687
41,20,female,Belgian,2,57,ITC,win,10,right,7,ITC_outcome,0,undefined,0,0,550,61310,1150700
41,20,female,Belgian,2,58,guess,win,10,right,3,guess_start,725,space,0,0,550,60580,1151430
41,20,female,Belgian,2,58,guess,win,10,right,3,guess_choice,1316,j,0,0,550,59259,1152751
41,20,female,Belgian,2,58,guess,win,10,right,3,guess_outcome,0,undefined,0,0,570,57690,1154320
41,20,female,Belgian,2,58,ITC,win,10,right,3,ITC_choice,1080,j,0,0,570,55856,1156154
41,20,female,Belgian,2,58,ITC,win,10,right,3,ITC_start,746,space,0,0,570,56940,1155070
41,20,female,Belgian,2,58,ITC,win,10,right,3,ITC_wait,0,undefined,0,0,570,45851,1166159
41,20,female,Belgian,2,58,ITC,win,10,right,3,ITC_collect,4229,k,0,0,570,41619,1170391
41,20,female,Belgian,2,58,ITC,win,10,right,3,ITC_outcome,0,undefined,0,0,590,40605,1171405
41,20,female,Belgian,2,59,guess,win,5,right,9,guess_start,1170,space,0,0,590,39432,1172578
41,20,female,Belgian,2,59,guess,win,5,right,9,guess_choice,1008,f,0,0,590,38418,1173592
41,20,female,Belgian,2,59,guess,win,5,right,9,guess_outcome,0,undefined,0,0,610,36860,1175150
41,20,female,Belgian,2,59,ITC,win,5,right,9,ITC_start,5464,space,0,0,610,31394,1180616
41,20,female,Belgian,2,59,ITC,win,5,right,9,ITC_choice,966,j,0,0,610,30423,1181587
41,20,female,Belgian,2,59,ITC,win,5,right,9,ITC_wait,0,undefined,0,0,610,25418,1186592
41,20,female,Belgian,2,59,ITC,win,5,right,9,ITC_collect,1369,k,0,0,610,24044,1187966
41,20,female,Belgian,2,59,ITC,win,5,right,9,ITC_outcome,0,undefined,0,0,630,23035,1188975
41,20,female,Belgian,2,60,guess,neutral,10,right,4,guess_start,1980,space,0,0,630,21047,1190963
41,20,female,Belgian,2,60,guess,neutral,10,right,4,guess_choice,819,j,0,0,630,20203,1191807
41,20,female,Belgian,2,60,guess,neutral,10,right,4,guess_outcome,0,undefined,0,0,630,18630,1193380
41,20,female,Belgian,2,60,ITC,neutral,10,right,4,ITC_start,918,space,0,0,630,17706,1194304
41,20,female,Belgian,2,60,ITC,neutral,10,right,4,ITC_choice,1298,j,0,0,630,16403,1195607
41,20,female,Belgian,2,60,ITC,neutral,10,right,4,ITC_wait,0,undefined,0,0,630,6398,1205612
41,20,female,Belgian,2,60,ITC,neutral,10,right,4,ITC_collect,820,k,0,0,630,5574,1206436
41,20,female,Belgian,2,60,ITC,neutral,10,right,4,ITC_outcome,0,undefined,0,0,650,4562,1207448
41,20,female,Belgian,2,61,guess,loss,10,right,3,guess_start,1032,space,0,0,650,3522,1208488
41,20,female,Belgian,2,61,guess,loss,10,right,3,guess_outcome,0,undefined,0,0,635,1294,1210716
41,20,female,Belgian,2,61,ITC,loss,10,right,3,ITC_start,944,space,0,0,635,344,1211666
41,20,female,Belgian,2,61,ITC,loss,10,right,3,ITC_choice,0,undefined,0,0,635,-7,1212017
41,20,female,Belgian,2,61,guess,loss,10,right,3,guess_choice,621,j,0,0,650,2872,1209138
41,20,female,Belgian,3,62,guess,win,10,left,1,guess_start,4491,space,0,0,0,475506,1270416
41,20,female,Belgian,3,62,guess,win,10,left,1,guess_choice,1171,f,0,0,0,474307,1271615
41,20,female,Belgian,3,62,guess,win,10,left,1,guess_outcome,0,undefined,0,0,20,472737,1273185
41,20,female,Belgian,3,62,ITC,win,10,left,1,ITC_start,583,space,0,0,20,472150,1273772
41,20,female,Belgian,3,62,ITC,win,10,left,1,ITC_choice,1443,f,0,0,20,470705,1275217
41,20,female,Belgian,3,62,ITC,win,10,left,1,ITC_wait,0,undefined,0,0,20,460698,1285224
41,20,female,Belgian,3,62,ITC,win,10,left,1,ITC_collect,1310,k,0,0,20,459380,1286542
41,20,female,Belgian,3,62,ITC,win,10,left,1,ITC_outcome,0,undefined,0,0,40,458358,1287564
41,20,female,Belgian,3,63,guess,loss,5,left,4,guess_start,948,space,0,0,40,457407,1288515
41,20,female,Belgian,3,63,guess,loss,5,left,4,guess_choice,1000,j,0,0,40,456385,1289537
41,20,female,Belgian,3,63,guess,loss,5,left,4,guess_outcome,0,undefined,0,0,25,454827,1291095
41,20,female,Belgian,3,63,ITC,loss,5,left,4,ITC_start,1145,space,0,0,25,453679,1292243
41,20,female,Belgian,3,63,ITC,loss,5,left,4,ITC_choice,1119,f,0,0,25,452555,1293367
41,20,female,Belgian,3,63,ITC,loss,5,left,4,ITC_wait,0,undefined,0,0,25,447549,1298373
41,20,female,Belgian,3,63,ITC,loss,5,left,4,ITC_collect,721,k,0,0,25,446822,1299100
41,20,female,Belgian,3,63,ITC,loss,5,left,4,ITC_outcome,0,undefined,0,0,45,445798,1300124
41,20,female,Belgian,3,64,guess,win,5,right,3,guess_start,792,space,0,0,45,445003,1300919
41,20,female,Belgian,3,64,guess,win,5,right,3,guess_choice,695,j,0,0,45,444289,1301633
41,20,female,Belgian,3,64,guess,win,5,right,3,guess_outcome,0,undefined,0,0,65,442713,1303209
41,20,female,Belgian,3,64,ITC,win,5,right,3,ITC_choice,1093,j,0,0,65,436718,1309204
41,20,female,Belgian,3,64,ITC,win,5,right,3,ITC_start,4891,space,0,0,65,437818,1308104
41,20,female,Belgian,3,64,ITC,win,5,right,3,ITC_wait,0,undefined,0,0,65,431713,1314209
41,20,female,Belgian,3,64,ITC,win,5,right,3,ITC_collect,675,k,0,0,65,431030,1314892
41,20,female,Belgian,3,64,ITC,win,5,right,3,ITC_outcome,0,undefined,0,0,85,430007,1315915
41,20,female,Belgian,3,65,guess,neutral,5,right,1,guess_start,1557,space,0,0,85,428442,1317480
41,20,female,Belgian,3,65,guess,neutral,5,right,1,guess_choice,981,f,0,0,85,427437,1318485
41,20,female,Belgian,3,65,guess,neutral,5,right,1,guess_outcome,0,undefined,0,0,85,425849,1320073
41,20,female,Belgian,3,65,ITC,neutral,5,right,1,ITC_start,939,space,0,0,85,424904,1321018
41,20,female,Belgian,3,65,ITC,neutral,5,right,1,ITC_choice,988,j,0,0,85,423910,1322012
41,20,female,Belgian,3,65,ITC,neutral,5,right,1,ITC_wait,0,undefined,0,0,85,418902,1327020
41,20,female,Belgian,3,65,ITC,neutral,5,right,1,ITC_outcome,0,undefined,0,0,105,417221,1328701
41,20,female,Belgian,3,65,ITC,neutral,5,right,1,ITC_collect,643,k,0,0,85,418252,1327670
41,20,female,Belgian,3,66,guess,loss,5,right,2,guess_start,2083,space,0,0,105,415132,1330790
41,20,female,Belgian,3,66,guess,loss,5,right,2,guess_choice,728,j,0,0,105,414401,1331521
41,20,female,Belgian,3,66,guess,loss,5,right,2,guess_outcome,0,undefined,0,0,90,412846,1333076
41,20,female,Belgian,3,66,ITC,loss,5,right,2,ITC_start,2154,space,0,0,90,410688,1335234
41,20,female,Belgian,3,66,ITC,loss,5,right,2,ITC_choice,760,j,0,0,90,409922,1336000
41,20,female,Belgian,3,66,ITC,loss,5,right,2,ITC_wait,0,undefined,0,0,90,404917,1341005
41,20,female,Belgian,3,66,ITC,loss,5,right,2,ITC_collect,840,k,0,0,90,404076,1341846
41,20,female,Belgian,3,66,ITC,loss,5,right,2,ITC_outcome,0,undefined,0,0,110,403072,1342850
41,20,female,Belgian,3,67,guess,win,5,left,10,guess_start,567,space,0,0,110,402499,1343423
41,20,female,Belgian,3,67,guess,win,5,left,10,guess_choice,1058,f,0,0,110,401437,1344485
41,20,female,Belgian,3,67,ITC,win,5,left,10,ITC_start,762,space,0,0,130,399109,1346813
41,20,female,Belgian,3,67,ITC,win,5,left,10,ITC_choice,1336,j,0,0,130,397769,1348153
41,20,female,Belgian,3,67,ITC,win,5,left,10,ITC_wait,0,undefined,0,0,130,397760,1348162
41,20,female,Belgian,3,67,ITC,win,5,left,10,ITC_collect,1083,k,0,0,130,396672,1349250
41,20,female,Belgian,3,68,guess,neutral,5,left,5,guess_start,592,space,0,0,140,395065,1350857
41,20,female,Belgian,3,67,ITC,win,5,left,10,ITC_outcome,0,undefined,0,0,140,395663,1350259
41,20,female,Belgian,3,67,guess,win,5,left,10,guess_outcome,0,undefined,0,0,130,399875,1346047
41,20,female,Belgian,3,68,ITC,neutral,5,left,5,ITC_start,780,space,0,0,140,392127,1353795
41,20,female,Belgian,3,68,guess,neutral,5,left,5,guess_choice,575,j,0,0,140,394476,1351446
41,20,female,Belgian,3,68,guess,neutral,5,left,5,guess_outcome,0,undefined,0,0,140,392910,1353012
41,20,female,Belgian,3,68,ITC,neutral,5,left,5,ITC_choice,865,j,0,0,140,391254,1354668
41,20,female,Belgian,3,68,ITC,neutral,5,left,5,ITC_wait,0,undefined,0,0,140,391249,1354673
41,20,female,Belgian,3,68,ITC,neutral,5,left,5,ITC_outcome,0,undefined,0,0,145,389619,1356303
41,20,female,Belgian,3,68,ITC,neutral,5,left,5,ITC_collect,613,k,0,0,140,390633,1355289
41,20,female,Belgian,3,69,guess,neutral,10,left,7,guess_start,411,space,0,0,145,389203,1356719
41,20,female,Belgian,3,69,ITC,neutral,10,left,7,ITC_start,998,space,0,0,145,385716,1360206
41,20,female,Belgian,3,69,guess,neutral,10,left,7,guess_outcome,0,undefined,0,0,145,386717,1359205
41,20,female,Belgian,3,69,guess,neutral,10,left,7,guess_choice,905,f,0,0,145,388283,1357639
41,20,female,Belgian,3,69,ITC,neutral,10,left,7,ITC_choice,1209,f,0,0,145,384502,1361420
41,20,female,Belgian,3,69,ITC,neutral,10,left,7,ITC_wait,0,undefined,0,0,145,374499,1371423
41,20,female,Belgian,3,69,ITC,neutral,10,left,7,ITC_collect,1561,k,0,0,145,372935,1372987
41,20,female,Belgian,3,69,ITC,neutral,10,left,7,ITC_outcome,0,undefined,0,0,165,371917,1374005
41,20,female,Belgian,3,70,guess,win,10,right,6,guess_start,1181,space,0,0,165,370733,1375189
41,20,female,Belgian,3,70,guess,win,10,right,6,guess_choice,1097,j,0,0,165,369622,1376300
41,20,female,Belgian,3,70,guess,win,10,right,6,guess_outcome,0,undefined,0,0,185,368056,1377866
41,20,female,Belgian,3,70,ITC,win,10,right,6,ITC_start,1021,space,0,0,185,367028,1378894
41,20,female,Belgian,3,70,ITC,win,10,right,6,ITC_choice,913,j,0,0,185,366109,1379813
41,20,female,Belgian,3,70,ITC,win,10,right,6,ITC_wait,0,undefined,0,0,185,356103,1389819
41,20,female,Belgian,3,70,ITC,win,10,right,6,ITC_collect,1132,k,0,0,185,354965,1390957
41,20,female,Belgian,3,70,ITC,win,10,right,6,ITC_outcome,0,undefined,0,0,205,353950,1391972
41,20,female,Belgian,3,71,guess,neutral,5,right,8,guess_choice,724,j,0,0,205,352576,1393346
41,20,female,Belgian,3,71,guess,neutral,5,right,8,guess_outcome,0,undefined,0,0,205,351005,1394917
41,20,female,Belgian,3,71,ITC,neutral,5,right,8,ITC_start,677,space,0,0,205,350323,1395599
41,20,female,Belgian,3,71,guess,neutral,5,right,8,guess_start,631,space,0,0,205,353316,1392606
41,20,female,Belgian,3,71,ITC,neutral,5,right,8,ITC_choice,1023,j,0,0,205,349296,1396626
41,20,female,Belgian,3,71,ITC,neutral,5,right,8,ITC_wait,0,undefined,0,0,205,344290,1401632
41,20,female,Belgian,3,71,ITC,neutral,5,right,8,ITC_collect,944,k,0,0,205,343341,1402581
41,20,female,Belgian,3,71,ITC,neutral,5,right,8,ITC_outcome,0,undefined,0,0,225,342320,1403602
41,20,female,Belgian,3,72,guess,loss,5,left,13,guess_start,831,space,0,0,225,341482,1404440
41,20,female,Belgian,3,72,guess,loss,5,left,13,guess_choice,687,j,0,0,225,340767,1405155
41,20,female,Belgian,3,72,guess,loss,5,left,13,guess_outcome,0,undefined,0,0,210,339198,1406724
41,20,female,Belgian,3,72,ITC,loss,5,left,13,ITC_start,651,space,0,0,210,338543,1407379
41,20,female,Belgian,3,72,ITC,loss,5,left,13,ITC_choice,1212,j,0,0,210,337325,1408597
41,20,female,Belgian,3,72,ITC,loss,5,left,13,ITC_wait,0,undefined,0,0,210,337317,1408605
41,20,female,Belgian,3,72,ITC,loss,5,left,13,ITC_collect,1138,k,0,0,210,336174,1409748
41,20,female,Belgian,3,72,ITC,loss,5,left,13,ITC_outcome,0,undefined,0,0,223,335144,1410778
41,20,female,Belgian,3,73,guess,loss,5,left,1,guess_start,552,space,0,0,223,334588,1411334
41,20,female,Belgian,3,73,guess,loss,5,left,1,guess_choice,490,j,0,0,223,334088,1411834
41,20,female,Belgian,3,73,guess,loss,5,left,1,guess_outcome,0,undefined,0,0,208,332535,1413387
41,20,female,Belgian,3,73,ITC,loss,5,left,1,ITC_choice,487,j,0,0,208,331708,1414214
41,20,female,Belgian,3,73,ITC,loss,5,left,1,ITC_start,335,space,0,0,208,332198,1413724
41,20,female,Belgian,3,73,ITC,loss,5,left,1,ITC_collect,711,k,0,0,208,330989,1414933
41,20,female,Belgian,3,73,ITC,loss,5,left,1,ITC_wait,0,undefined,0,0,208,331703,1414219
41,20,female,Belgian,3,73,ITC,loss,5,left,1,ITC_outcome,0,undefined,0,0,209,329981,1415941
41,20,female,Belgian,3,74,guess,neutral,5,right,16,guess_start,737,space,0,0,209,329240,1416682
41,20,female,Belgian,3,74,guess,neutral,5,right,16,guess_choice,496,j,0,0,209,328735,1417187
41,20,female,Belgian,3,74,guess,neutral,5,right,16,guess_outcome,0,undefined,0,0,209,327176,1418746
41,20,female,Belgian,3,74,ITC,neutral,5,right,16,ITC_start,566,space,0,0,209,326606,1419316
41,20,female,Belgian,3,74,ITC,neutral,5,right,16,ITC_choice,756,j,0,0,209,325847,1420075
41,20,female,Belgian,3,74,ITC,neutral,5,right,16,ITC_wait,0,undefined,0,0,209,320843,1425079
41,20,female,Belgian,3,74,ITC,neutral,5,right,16,ITC_collect,704,k,0,0,209,320134,1425788
41,20,female,Belgian,3,74,ITC,neutral,5,right,16,ITC_outcome,0,undefined,0,0,229,319125,1426797
41,20,female,Belgian,3,75,guess,loss,5,left,12,guess_start,565,space,0,0,229,318555,1427367
41,20,female,Belgian,3,75,guess,loss,5,left,12,guess_choice,596,j,0,0,229,317946,1427976
41,20,female,Belgian,3,75,guess,loss,5,left,12,guess_outcome,0,undefined,0,0,214,316382,1429540
41,20,female,Belgian,3,75,ITC,loss,5,left,12,ITC_start,682,space,0,0,214,315697,1430225
41,20,female,Belgian,3,75,ITC,loss,5,left,12,ITC_wait,0,undefined,0,0,214,314677,1431245
41,20,female,Belgian,3,75,ITC,loss,5,left,12,ITC_choice,1007,j,0,0,214,314687,1431235
41,20,female,Belgian,3,75,ITC,loss,5,left,12,ITC_collect,849,k,0,0,214,313823,1432099
41,20,female,Belgian,3,75,ITC,loss,5,left,12,ITC_outcome,0,undefined,0,0,226,312810,1433112
41,20,female,Belgian,3,76,guess,win,5,right,16,guess_start,77,space,0,0,226,312731,1433191
41,20,female,Belgian,3,76,guess,win,5,right,16,guess_choice,641,j,0,0,226,312085,1433837
41,20,female,Belgian,3,76,guess,win,5,right,16,guess_outcome,0,undefined,0,0,246,310530,1435392
41,20,female,Belgian,3,76,ITC,win,5,right,16,ITC_start,586,space,0,0,246,309940,1435982
41,20,female,Belgian,3,76,ITC,win,5,right,16,ITC_choice,1060,j,0,0,246,308876,1437046
41,20,female,Belgian,3,76,ITC,win,5,right,16,ITC_wait,0,undefined,0,0,246,303871,1442051
41,20,female,Belgian,3,76,ITC,win,5,right,16,ITC_collect,886,k,0,0,246,302979,1442943
41,20,female,Belgian,3,76,ITC,win,5,right,16,ITC_outcome,0,undefined,0,0,266,301962,1443960
41,20,female,Belgian,3,77,guess,loss,5,right,15,guess_start,512,space,0,0,266,301445,1444477
41,20,female,Belgian,3,77,guess,loss,5,right,15,guess_choice,561,j,0,0,266,300870,1445052
41,20,female,Belgian,3,77,guess,loss,5,right,15,guess_outcome,0,undefined,0,0,251,299303,1446619
41,20,female,Belgian,3,77,ITC,loss,5,right,15,ITC_start,1437,space,0,0,251,297862,1448060
41,20,female,Belgian,3,77,ITC,loss,5,right,15,ITC_choice,961,j,0,0,251,296897,1449025
41,20,female,Belgian,3,77,ITC,loss,5,right,15,ITC_wait,0,undefined,0,0,251,291893,1454029
41,20,female,Belgian,3,77,ITC,loss,5,right,15,ITC_collect,783,k,0,0,251,291105,1454817
41,20,female,Belgian,3,77,ITC,loss,5,right,15,ITC_outcome,0,undefined,0,0,271,290086,1455836
41,20,female,Belgian,3,78,guess,loss,5,left,6,guess_start,720,space,0,0,271,289361,1456561
41,20,female,Belgian,3,78,guess,loss,5,left,6,guess_choice,935,f,0,0,271,288407,1457515
41,20,female,Belgian,3,78,guess,loss,5,left,6,guess_outcome,0,undefined,0,0,256,286836,1459086
41,20,female,Belgian,3,78,ITC,loss,5,left,6,ITC_start,708,space,0,0,256,286122,1459800
41,20,female,Belgian,3,78,ITC,loss,5,left,6,ITC_choice,1358,f,0,0,256,284759,1461163
41,20,female,Belgian,3,78,ITC,loss,5,left,6,ITC_wait,0,undefined,0,0,256,279754,1466168
41,20,female,Belgian,3,78,ITC,loss,5,left,6,ITC_collect,886,k,0,0,256,278862,1467060
41,20,female,Belgian,3,78,ITC,loss,5,left,6,ITC_outcome,0,undefined,0,0,276,277844,1468078
41,20,female,Belgian,3,79,guess,win,5,left,8,guess_start,1095,space,0,0,276,276743,1469179
41,20,female,Belgian,3,79,guess,win,5,left,8,guess_choice,614,j,0,0,276,276119,1469803
41,20,female,Belgian,3,79,guess,win,5,left,8,guess_outcome,0,undefined,0,0,296,274555,1471367
41,20,female,Belgian,3,79,ITC,win,5,left,8,ITC_start,1602,space,0,0,296,272949,1472973
41,20,female,Belgian,3,79,ITC,win,5,left,8,ITC_choice,1054,f,0,0,296,271890,1474032
41,20,female,Belgian,3,79,ITC,win,5,left,8,ITC_wait,0,undefined,0,0,296,266884,1479038
41,20,female,Belgian,3,79,ITC,win,5,left,8,ITC_collect,1049,k,0,0,296,265829,1480093
41,20,female,Belgian,3,79,ITC,win,5,left,8,ITC_outcome,0,undefined,0,0,316,264809,1481113
41,20,female,Belgian,3,80,guess,win,5,left,2,guess_start,918,space,0,0,316,263885,1482037
41,20,female,Belgian,3,80,guess,win,5,left,2,guess_choice,587,j,0,0,316,263275,1482647
41,20,female,Belgian,3,80,guess,win,5,left,2,guess_outcome,0,undefined,0,0,336,261706,1484216
41,20,female,Belgian,3,80,ITC,win,5,left,2,ITC_start,921,space,0,0,336,260780,1485142
41,20,female,Belgian,3,80,ITC,win,5,left,2,ITC_choice,1003,f,0,0,336,259772,1486150
41,20,female,Belgian,3,80,ITC,win,5,left,2,ITC_collect,1028,k,0,0,336,253731,1492191
41,20,female,Belgian,3,80,ITC,win,5,left,2,ITC_wait,0,undefined,0,0,336,254765,1491157
41,20,female,Belgian,3,80,ITC,win,5,left,2,ITC_outcome,0,undefined,0,0,356,252712,1493210
41,20,female,Belgian,3,81,guess,neutral,10,left,2,guess_start,564,space,0,0,356,252140,1493782
41,20,female,Belgian,3,81,guess,neutral,10,left,2,guess_choice,993,f,0,0,356,251115,1494807
41,20,female,Belgian,3,81,guess,neutral,10,left,2,guess_outcome,0,undefined,0,0,356,249546,1496376
41,20,female,Belgian,3,81,ITC,neutral,10,left,2,ITC_start,914,space,0,0,356,248627,1497295
41,20,female,Belgian,3,81,ITC,neutral,10,left,2,ITC_choice,978,f,0,0,356,247643,1498279
41,20,female,Belgian,3,81,ITC,neutral,10,left,2,ITC_collect,849,k,0,0,356,236784,1509138
41,20,female,Belgian,3,81,ITC,neutral,10,left,2,ITC_wait,0,undefined,0,0,356,237638,1508284
41,20,female,Belgian,3,81,ITC,neutral,10,left,2,ITC_outcome,0,undefined,0,0,376,235775,1510147
41,20,female,Belgian,3,82,guess,win,5,right,11,guess_start,742,space,0,0,376,235032,1510890
41,20,female,Belgian,3,82,guess,win,5,right,11,guess_choice,678,j,0,0,376,234343,1511579
41,20,female,Belgian,3,82,guess,win,5,right,11,guess_outcome,0,undefined,0,0,396,232787,1513135
41,20,female,Belgian,3,82,ITC,win,5,right,11,ITC_start,726,space,0,0,396,232058,1513864
41,20,female,Belgian,3,82,ITC,win,5,right,11,ITC_choice,1311,j,0,0,396,230744,1515178
41,20,female,Belgian,3,83,guess,win,10,right,7,guess_start,544,space,0,0,416,223507,1522415
41,20,female,Belgian,3,83,guess,win,10,right,7,guess_choice,546,j,0,0,416,222949,1522973
41,20,female,Belgian,3,82,ITC,win,5,right,11,ITC_outcome,0,undefined,0,0,416,224057,1521865
41,20,female,Belgian,3,83,ITC,win,10,right,7,ITC_start,693,space,0,0,436,220694,1525228
41,20,female,Belgian,3,83,guess,win,10,right,7,guess_outcome,0,undefined,0,0,436,221390,1524532
41,20,female,Belgian,3,83,ITC,win,10,right,7,ITC_choice,921,j,0,0,436,219770,1526152
41,20,female,Belgian,3,82,ITC,win,5,right,11,ITC_wait,0,undefined,0,0,396,225740,1520182
41,20,female,Belgian,3,83,ITC,win,10,right,7,ITC_wait,0,undefined,0,0,436,209765,1536157
41,20,female,Belgian,3,83,ITC,win,10,right,7,ITC_collect,805,k,0,0,436,208956,1536966
41,20,female,Belgian,3,83,ITC,win,10,right,7,ITC_outcome,0,undefined,0,0,456,207941,1537981
41,20,female,Belgian,3,84,ITC,loss,10,left,2,ITC_choice,1188,f,0,0,441,203148,1542774
41,20,female,Belgian,3,84,ITC,loss,10,left,2,ITC_start,786,space,0,0,441,204340,1541582
41,20,female,Belgian,3,84,guess,loss,10,left,2,guess_choice,554,j,0,0,456,206697,1539225
41,20,female,Belgian,3,84,guess,loss,10,left,2,guess_outcome,0,undefined,0,0,441,205130,1540792
41,20,female,Belgian,3,84,guess,loss,10,left,2,guess_start,669,space,0,0,456,207267,1538655
41,20,female,Belgian,3,84,ITC,loss,10,left,2,ITC_wait,0,undefined,0,0,441,193142,1552780
41,20,female,Belgian,3,84,ITC,loss,10,left,2,ITC_collect,647,k,0,0,441,192490,1553432
41,20,female,Belgian,3,84,ITC,loss,10,left,2,ITC_outcome,0,undefined,0,0,461,191476,1554446
41,20,female,Belgian,3,85,guess,win,5,left,7,guess_start,708,space,0,0,461,190763,1555159
41,20,female,Belgian,3,85,guess,win,5,left,7,guess_choice,623,j,0,0,461,190135,1555787
41,20,female,Belgian,3,85,guess,win,5,left,7,guess_outcome,0,undefined,0,0,481,188570,1557352
41,20,female,Belgian,3,85,ITC,win,5,left,7,ITC_start,2994,space,0,0,481,185569,1560353
41,20,female,Belgian,3,85,ITC,win,5,left,7,ITC_wait,0,undefined,0,0,481,184574,1561348
41,20,female,Belgian,3,85,ITC,win,5,left,7,ITC_choice,985,j,0,0,481,184579,1561343
41,20,female,Belgian,3,85,ITC,win,5,left,7,ITC_collect,2468,k,0,0,481,182096,1563826
41,20,female,Belgian,3,86,guess,neutral,5,left,1,guess_start,546,space,0,0,488,180518,1565404
41,20,female,Belgian,3,85,ITC,win,5,left,7,ITC_outcome,0,undefined,0,0,488,181073,1564849
41,20,female,Belgian,3,86,ITC,neutral,5,left,1,ITC_choice,851,j,0,0,488,176779,1569143
41,20,female,Belgian,3,86,ITC,neutral,5,left,1,ITC_wait,0,undefined,0,0,488,176773,1569149
41,20,female,Belgian,3,86,ITC,neutral,5,left,1,ITC_collect,1006,k,0,0,488,175760,1570162
41,20,female,Belgian,3,86,ITC,neutral,5,left,1,ITC_outcome,0,undefined,0,0,489,174736,1571186
41,20,female,Belgian,3,87,guess,loss,10,left,8,guess_start,796,space,0,0,489,173931,1571991
41,20,female,Belgian,3,87,guess,loss,10,left,8,guess_choice,603,j,0,0,489,173306,1572616
41,20,female,Belgian,3,87,guess,loss,10,left,8,guess_outcome,0,undefined,0,0,474,171729,1574193
41,20,female,Belgian,3,87,ITC,loss,10,left,8,ITC_start,1167,space,0,0,474,170557,1575365
41,20,female,Belgian,3,86,guess,neutral,5,left,1,guess_outcome,0,undefined,0,0,488,178300,1567622
41,20,female,Belgian,3,86,guess,neutral,5,left,1,guess_choice,634,j,0,0,488,179871,1566051
41,20,female,Belgian,3,87,ITC,loss,10,left,8,ITC_choice,1219,f,0,0,474,169332,1576590
41,20,female,Belgian,3,86,ITC,neutral,5,left,1,ITC_start,660,space,0,0,488,177634,1568288
41,20,female,Belgian,3,87,ITC,loss,10,left,8,ITC_wait,0,undefined,0,0,474,159326,1586596
41,20,female,Belgian,3,87,ITC,loss,10,left,8,ITC_collect,856,k,0,0,474,158464,1587458
41,20,female,Belgian,3,87,ITC,loss,10,left,8,ITC_outcome,0,undefined,0,0,494,157451,1588471
41,20,female,Belgian,3,88,guess,loss,5,left,10,guess_choice,1067,f,0,0,494,155363,1590559
41,20,female,Belgian,3,88,guess,loss,5,left,10,guess_start,988,space,0,0,494,156455,1589467
41,20,female,Belgian,3,88,guess,loss,5,left,10,guess_outcome,0,undefined,0,0,479,153805,1592117
41,20,female,Belgian,3,88,ITC,loss,5,left,10,ITC_choice,1188,f,0,0,479,151020,1594902
41,20,female,Belgian,3,88,ITC,loss,5,left,10,ITC_start,1589,space,0,0,479,152211,1593711
41,20,female,Belgian,3,88,ITC,loss,5,left,10,ITC_wait,0,undefined,0,0,479,146015,1599907
41,20,female,Belgian,3,88,ITC,loss,5,left,10,ITC_collect,1310,k,0,0,479,144701,1601221
41,20,female,Belgian,3,88,ITC,loss,5,left,10,ITC_outcome,0,undefined,0,0,499,143691,1602231
41,20,female,Belgian,3,89,guess,neutral,10,left,3,guess_choice,981,j,0,0,499,141881,1604041
41,20,female,Belgian,3,89,guess,neutral,10,left,3,guess_outcome,0,undefined,0,0,499,140326,1605596
41,20,female,Belgian,3,89,ITC,neutral,10,left,3,ITC_start,958,space,0,0,499,139365,1606557
41,20,female,Belgian,3,89,ITC,neutral,10,left,3,ITC_choice,1207,f,0,0,499,138154,1607768
41,20,female,Belgian,3,89,guess,neutral,10,left,3,guess_start,821,space,0,0,499,142865,1603057
41,20,female,Belgian,3,89,ITC,neutral,10,left,3,ITC_wait,0,undefined,0,0,499,128149,1617773
41,20,female,Belgian,3,89,ITC,neutral,10,left,3,ITC_collect,1353,k,0,0,499,126794,1619128
41,20,female,Belgian,3,90,ITC,loss,5,left,7,ITC_start,1595,space,0,0,504,120831,1625091
41,20,female,Belgian,3,90,guess,loss,5,left,7,guess_outcome,0,undefined,0,0,504,122429,1623493
41,20,female,Belgian,3,90,ITC,loss,5,left,7,ITC_choice,1027,f,0,0,504,119802,1626120
41,20,female,Belgian,3,89,ITC,neutral,10,left,3,ITC_outcome,0,undefined,0,0,519,125790,1620132
41,20,female,Belgian,3,91,guess,win,10,right,8,guess_start,668,space,0,0,524,112104,1633818
41,20,female,Belgian,3,90,guess,loss,5,left,7,guess_start,795,space,0,0,519,124990,1620932
41,20,female,Belgian,3,91,guess,win,10,right,8,guess_outcome,0,undefined,0,0,544,109716,1636206
41,20,female,Belgian,3,91,guess,win,10,right,8,guess_choice,800,j,0,0,524,111286,1634636
41,20,female,Belgian,3,91,ITC,win,10,right,8,ITC_start,772,space,0,0,544,108939,1636983
41,20,female,Belgian,3,90,guess,loss,5,left,7,guess_choice,998,f,0,0,519,123986,1621936
41,20,female,Belgian,3,90,ITC,loss,5,left,7,ITC_wait,0,undefined,0,0,504,114798,1631124
41,20,female,Belgian,3,91,ITC,win,10,right,8,ITC_choice,1383,j,0,0,544,107553,1638369
41,20,female,Belgian,3,91,ITC,win,10,right,8,ITC_wait,0,undefined,0,0,544,97547,1648375
41,20,female,Belgian,3,91,ITC,win,10,right,8,ITC_collect,1490,k,0,0,544,96052,1649870
41,20,female,Belgian,3,92,guess,neutral,5,right,13,guess_start,566,space,0,0,564,94466,1651456
41,20,female,Belgian,3,92,guess,neutral,5,right,13,guess_choice,805,f,0,0,564,93645,1652277
41,20,female,Belgian,3,92,guess,neutral,5,right,13,guess_outcome,0,undefined,0,0,564,92073,1653849
41,20,female,Belgian,3,92,ITC,neutral,5,right,13,ITC_start,752,space,0,0,564,91317,1654605
41,20,female,Belgian,3,92,ITC,neutral,5,right,13,ITC_wait,0,undefined,0,0,564,89882,1656040
41,20,female,Belgian,3,92,ITC,neutral,5,right,13,ITC_choice,1423,f,0,0,564,89888,1656034
41,20,female,Belgian,3,92,ITC,neutral,5,right,13,ITC_collect,1733,k,0,0,564,88145,1657777
41,20,female,Belgian,3,91,ITC,win,10,right,8,ITC_outcome,0,undefined,0,0,564,95034,1650888
41,20,female,Belgian,3,92,ITC,neutral,5,right,13,ITC_outcome,0,undefined,0,0,577,87139,1658783
41,20,female,Belgian,3,93,guess,neutral,5,left,5,guess_start,526,space,0,0,577,86608,1659314
41,20,female,Belgian,3,93,ITC,neutral,5,left,5,ITC_choice,1298,f,0,0,577,81377,1664545
41,20,female,Belgian,3,93,ITC,neutral,5,left,5,ITC_start,1001,space,0,0,577,82681,1663241
41,20,female,Belgian,3,93,guess,neutral,5,left,5,guess_outcome,0,undefined,0,0,577,83687,1662235
41,20,female,Belgian,3,93,guess,neutral,5,left,5,guess_choice,1344,f,0,0,577,85246,1660676
41,20,female,Belgian,3,93,ITC,neutral,5,left,5,ITC_wait,0,undefined,0,0,577,76372,1669550
41,20,female,Belgian,3,93,ITC,neutral,5,left,5,ITC_collect,888,k,0,0,577,75479,1670443
41,20,female,Belgian,3,93,ITC,neutral,5,left,5,ITC_outcome,0,undefined,0,0,597,74455,1671467
41,20,female,Belgian,3,94,guess,neutral,10,right,8,guess_start,472,space,0,0,597,73976,1671946
41,20,female,Belgian,3,94,guess,neutral,10,right,8,guess_choice,530,j,0,0,597,73426,1672496
41,20,female,Belgian,3,94,guess,neutral,10,right,8,guess_outcome,0,undefined,0,0,597,71845,1674077
41,20,female,Belgian,3,94,ITC,neutral,10,right,8,ITC_start,627,space,0,0,597,71213,1674709
41,20,female,Belgian,3,94,ITC,neutral,10,right,8,ITC_choice,925,j,0,0,597,70286,1675636
41,20,female,Belgian,3,94,ITC,neutral,10,right,8,ITC_wait,0,undefined,0,0,597,60283,1685639
41,20,female,Belgian,3,94,ITC,neutral,10,right,8,ITC_collect,903,k,0,0,597,59375,1686547
41,20,female,Belgian,3,94,ITC,neutral,10,right,8,ITC_outcome,0,undefined,0,0,617,58368,1687554
41,20,female,Belgian,3,95,guess,win,10,left,6,guess_start,878,space,0,0,617,57486,1688436
41,20,female,Belgian,3,95,guess,win,10,left,6,guess_choice,4380,j,0,0,617,53097,1692825
41,20,female,Belgian,3,95,guess,win,10,left,6,guess_outcome,0,undefined,0,0,637,51537,1694385
41,20,female,Belgian,3,95,ITC,win,10,left,6,ITC_start,1120,space,0,0,637,50415,1695507
41,20,female,Belgian,3,95,ITC,win,10,left,6,ITC_choice,1306,j,0,0,637,49104,1696818
41,20,female,Belgian,3,95,ITC,win,10,left,6,ITC_wait,0,undefined,0,0,637,49099,1696823
41,20,female,Belgian,3,95,ITC,win,10,left,6,ITC_collect,893,k,0,0,637,48202,1697720
41,20,female,Belgian,3,95,ITC,win,10,left,6,ITC_outcome,0,undefined,0,0,643,47198,1698724
41,20,female,Belgian,3,96,guess,loss,10,left,4,guess_start,453,space,0,0,643,46737,1699185
41,20,female,Belgian,3,96,guess,loss,10,left,4,guess_choice,945,f,0,0,643,45780,1700142
41,20,female,Belgian,3,96,guess,loss,10,left,4,guess_outcome,0,undefined,0,0,628,44219,1701703
41,20,female,Belgian,3,96,ITC,loss,10,left,4,ITC_start,684,space,0,0,628,43531,1702391
41,20,female,Belgian,3,82,ITC,win,5,right,11,ITC_collect,664,k,0,0,396,225072,1520850
41,20,female,Belgian,3,96,ITC,loss,10,left,4,ITC_choice,888,j,0,0,628,42640,1703282
41,20,female,Belgian,3,96,ITC,loss,10,left,4,ITC_wait,0,undefined,0,0,628,42634,1703288
41,20,female,Belgian,3,96,ITC,loss,10,left,4,ITC_collect,660,k,0,0,628,41969,1703953
41,20,female,Belgian,3,96,ITC,loss,10,left,4,ITC_outcome,0,undefined,0,0,632,40957,1704965
41,20,female,Belgian,3,97,guess,neutral,5,left,3,guess_start,564,space,0,0,632,40391,1705531
41,20,female,Belgian,3,97,guess,neutral,5,left,3,guess_choice,557,j,0,0,632,39820,1706102
41,20,female,Belgian,3,97,guess,neutral,5,left,3,guess_outcome,0,undefined,0,0,632,38256,1707666
41,20,female,Belgian,3,97,ITC,neutral,5,left,3,ITC_start,1013,space,0,0,632,37242,1708680
41,20,female,Belgian,3,97,ITC,neutral,5,left,3,ITC_choice,696,j,0,0,632,36543,1709379
41,20,female,Belgian,3,97,ITC,neutral,5,left,3,ITC_collect,508,k,0,0,632,36025,1709897
41,20,female,Belgian,3,97,ITC,neutral,5,left,3,ITC_wait,0,undefined,0,0,632,36538,1709384
41,20,female,Belgian,3,98,ITC,neutral,5,left,2,ITC_wait,0,undefined,0,0,635,30705,1715217
41,20,female,Belgian,3,97,ITC,neutral,5,left,3,ITC_outcome,0,undefined,0,0,635,35021,1710901
41,20,female,Belgian,3,98,ITC,neutral,5,left,2,ITC_choice,959,j,0,0,635,30708,1715214
41,20,female,Belgian,3,98,guess,neutral,5,left,2,guess_start,365,space,0,0,635,34654,1711268
41,20,female,Belgian,3,98,ITC,neutral,5,left,2,ITC_start,800,space,0,0,635,31671,1714251
41,20,female,Belgian,3,98,guess,neutral,5,left,2,guess_choice,607,j,0,0,635,34031,1711891
41,20,female,Belgian,3,98,guess,neutral,5,left,2,guess_outcome,0,undefined,0,0,635,32474,1713448
41,20,female,Belgian,3,98,ITC,neutral,5,left,2,ITC_outcome,0,undefined,0,0,637,28907,1717015
41,20,female,Belgian,3,98,ITC,neutral,5,left,2,ITC_collect,783,k,0,0,635,29920,1716002
41,20,female,Belgian,3,99,guess,win,10,right,4,guess_start,439,space,0,0,637,28464,1717458
41,20,female,Belgian,3,99,guess,win,10,right,4,guess_choice,707,j,0,0,637,27748,1718174
41,20,female,Belgian,3,99,guess,win,10,right,4,guess_outcome,0,undefined,0,0,657,26179,1719743
41,20,female,Belgian,3,99,ITC,win,10,right,4,ITC_start,619,space,0,0,657,25556,1720366
41,20,female,Belgian,3,99,ITC,win,10,right,4,ITC_wait,0,undefined,0,0,657,24387,1721535
41,20,female,Belgian,3,99,ITC,win,10,right,4,ITC_choice,1162,f,0,0,657,24391,1721531
41,20,female,Belgian,3,99,ITC,win,10,right,4,ITC_collect,1063,k,0,0,657,23323,1722599
41,20,female,Belgian,3,99,ITC,win,10,right,4,ITC_outcome,0,undefined,0,0,661,22315,1723607
41,20,female,Belgian,3,100,guess,loss,10,right,6,guess_choice,803,j,0,0,661,21108,1724814
41,20,female,Belgian,3,100,guess,loss,10,right,6,guess_start,393,space,0,0,661,21919,1724003
41,20,female,Belgian,3,100,guess,loss,10,right,6,guess_outcome,0,undefined,0,0,646,19549,1726373
41,20,female,Belgian,3,100,ITC,loss,10,right,6,ITC_start,582,space,0,0,646,18965,1726957
41,20,female,Belgian,3,100,ITC,loss,10,right,6,ITC_wait,0,undefined,0,0,646,17952,1727970
41,20,female,Belgian,3,100,ITC,loss,10,right,6,ITC_collect,715,k,0,0,646,17235,1728687
41,20,female,Belgian,3,100,ITC,loss,10,right,6,ITC_choice,1007,f,0,0,646,17956,1727966
41,20,female,Belgian,3,100,ITC,loss,10,right,6,ITC_outcome,0,undefined,0,0,652,16225,1729697
41,20,female,Belgian,3,101,guess,loss,5,right,16,guess_start,311,space,0,0,652,15912,1730010
41,20,female,Belgian,3,101,guess,loss,5,right,16,guess_choice,1086,f,0,0,652,14817,1731105
41,20,female,Belgian,3,101,guess,loss,5,right,16,guess_outcome,0,undefined,0,0,637,13261,1732661
41,20,female,Belgian,3,101,ITC,loss,5,right,16,ITC_start,801,space,0,0,637,12457,1733465
41,20,female,Belgian,3,101,ITC,loss,5,right,16,ITC_wait,0,undefined,0,0,637,10691,1735231
41,20,female,Belgian,3,101,ITC,loss,5,right,16,ITC_collect,1431,k,0,0,637,9258,1736664
41,20,female,Belgian,3,102,guess,neutral,5,left,10,guess_start,1171,space,0,0,653,7066,1738856
41,20,female,Belgian,3,101,ITC,loss,5,right,16,ITC_outcome,0,undefined,0,0,653,8242,1737680
41,20,female,Belgian,3,102,guess,neutral,5,left,10,guess_choice,740,j,0,0,653,6320,1739602
41,20,female,Belgian,3,101,ITC,loss,5,right,16,ITC_choice,1759,f,0,0,637,10694,1735228
41,20,female,Belgian,3,102,guess,neutral,5,left,10,guess_outcome,0,undefined,0,0,653,4753,1741169
41,20,female,Belgian,3,102,ITC,neutral,5,left,10,ITC_start,838,space,0,0,653,3911,1742011
41,20,female,Belgian,3,102,ITC,neutral,5,left,10,ITC_wait,0,undefined,0,0,653,2871,1743051
41,20,female,Belgian,3,102,ITC,neutral,5,left,10,ITC_choice,1029,j,0,0,653,2877,1743045
41,20,female,Belgian,3,103,guess,loss,10,left,1,guess_start,372,space,0,0,663,1167,1744755
41,20,female,Belgian,3,103,guess,loss,10,left,1,guess_choice,551,j,0,0,663,593,1745329
41,20,female,Belgian,3,103,guess,loss,10,left,1,guess_outcome,0,undefined,0,0,648,-23,1745945
41,20,female,Belgian,3,102,ITC,neutral,5,left,10,ITC_collect,294,k,0,0,653,2571,1743351
41,20,female,Belgian,3,102,ITC,neutral,5,left,10,ITC_outcome,0,undefined,0,0,663,1548,1744374
41,20,female,Belgian,4,104,guess,loss,5,left,14,guess_start,2053,space,0,0,0,477945,1787519
41,20,female,Belgian,4,104,guess,loss,5,left,14,guess_choice,1029,j,0,0,0,476904,1788560
41,20,female,Belgian,4,104,guess,loss,5,left,14,guess_outcome,0,undefined,0,0,-15,475330,1790134
41,20,female,Belgian,4,104,ITC,loss,5,left,14,ITC_start,1085,space,0,0,-15,474241,1791223
41,20,female,Belgian,4,104,ITC,loss,5,left,14,ITC_choice,1679,f,0,0,-15,472558,1792906
41,20,female,Belgian,4,104,ITC,loss,5,left,14,ITC_wait,0,undefined,0,0,-15,467554,1797910
41,20,female,Belgian,4,104,ITC,loss,5,left,14,ITC_collect,1900,k,0,0,-15,465652,1799812
41,20,female,Belgian,4,104,ITC,loss,5,left,14,ITC_outcome,0,undefined,0,0,5,464638,1800826
41,20,female,Belgian,4,105,guess,neutral,5,right,14,guess_start,588,space,0,0,5,464044,1801420
41,20,female,Belgian,4,105,guess,neutral,5,right,14,guess_choice,1051,j,0,0,5,462984,1802480
41,20,female,Belgian,4,105,guess,neutral,5,right,14,guess_outcome,0,undefined,0,0,5,461418,1804046
41,20,female,Belgian,4,105,ITC,neutral,5,right,14,ITC_start,973,space,0,0,5,460440,1805024
41,20,female,Belgian,4,105,ITC,neutral,5,right,14,ITC_wait,0,undefined,0,0,5,458890,1806574
41,20,female,Belgian,4,105,ITC,neutral,5,right,14,ITC_choice,1539,f,0,0,5,458896,1806568
41,20,female,Belgian,4,105,ITC,neutral,5,right,14,ITC_collect,1982,k,0,0,5,456902,1808562
41,20,female,Belgian,4,106,guess,win,5,left,9,guess_outcome,0,undefined,0,0,39,452791,1812673
41,20,female,Belgian,4,105,ITC,neutral,5,right,14,ITC_outcome,0,undefined,0,0,19,455878,1809586
41,20,female,Belgian,4,106,guess,win,5,left,9,guess_choice,931,f,0,0,19,454364,1811100
41,20,female,Belgian,4,106,ITC,win,5,left,9,ITC_start,799,space,0,0,39,451991,1813473
41,20,female,Belgian,4,106,ITC,win,5,left,9,ITC_choice,1145,f,0,0,39,450840,1814624
41,20,female,Belgian,4,106,ITC,win,5,left,9,ITC_wait,0,undefined,0,0,39,445833,1819631
41,20,female,Belgian,4,106,ITC,win,5,left,9,ITC_collect,667,k,0,0,39,445161,1820303
41,20,female,Belgian,4,106,ITC,win,5,left,9,ITC_outcome,0,undefined,0,0,59,444153,1821311
41,20,female,Belgian,4,107,ITC,loss,5,left,13,ITC_start,833,space,0,0,44,440588,1824876
41,20,female,Belgian,4,107,guess,loss,5,left,13,guess_outcome,0,undefined,0,0,44,441426,1824038
41,20,female,Belgian,4,107,guess,loss,5,left,13,guess_choice,618,j,0,0,59,443001,1822463
41,20,female,Belgian,4,107,ITC,loss,5,left,13,ITC_collect,723,k,0,0,44,438586,1826878
41,20,female,Belgian,4,107,ITC,loss,5,left,13,ITC_wait,0,undefined,0,0,44,439311,1826153
41,20,female,Belgian,4,107,ITC,loss,5,left,13,ITC_choice,1272,j,0,0,44,439315,1826149
41,20,female,Belgian,4,108,guess,win,5,left,4,guess_start,872,space,0,0,57,436685,1828779
41,20,female,Belgian,4,107,ITC,loss,5,left,13,ITC_outcome,0,undefined,0,0,57,437562,1827902
41,20,female,Belgian,4,106,guess,win,5,left,9,guess_start,555,space,0,0,19,455317,1810147
41,20,female,Belgian,4,107,guess,loss,5,left,13,guess_start,503,space,0,0,59,443645,1821819
41,20,female,Belgian,4,108,guess,win,5,left,4,guess_outcome,0,undefined,0,0,77,434178,1831286
41,20,female,Belgian,4,108,guess,win,5,left,4,guess_choice,928,f,0,0,57,435737,1829727
41,20,female,Belgian,4,108,ITC,win,5,left,4,ITC_start,752,space,0,0,77,433421,1832043
41,20,female,Belgian,4,108,ITC,win,5,left,4,ITC_choice,1105,f,0,0,77,432312,1833152
41,20,female,Belgian,4,108,ITC,win,5,left,4,ITC_wait,0,undefined,0,0,77,427306,1838158
41,20,female,Belgian,4,108,ITC,win,5,left,4,ITC_collect,911,k,0,0,77,426390,1839074
41,20,female,Belgian,4,108,ITC,win,5,left,4,ITC_outcome,0,undefined,0,0,97,425360,1840104
41,20,female,Belgian,4,109,guess,neutral,10,left,7,guess_start,803,space,0,0,97,424551,1840913
41,20,female,Belgian,4,109,guess,neutral,10,left,7,guess_choice,954,f,0,0,97,423567,1841897
41,20,female,Belgian,4,109,guess,neutral,10,left,7,guess_outcome,0,undefined,0,0,97,421994,1843470
41,20,female,Belgian,4,109,ITC,neutral,10,left,7,ITC_start,1547,space,0,0,97,420442,1845022
41,20,female,Belgian,4,109,ITC,neutral,10,left,7,ITC_choice,991,f,0,0,97,419444,1846020
41,20,female,Belgian,4,109,ITC,neutral,10,left,7,ITC_wait,0,undefined,0,0,97,409439,1856025
41,20,female,Belgian,4,109,ITC,neutral,10,left,7,ITC_collect,951,k,0,0,97,408483,1856981
41,20,female,Belgian,4,109,ITC,neutral,10,left,7,ITC_outcome,0,undefined,0,0,117,407477,1857987
41,20,female,Belgian,4,110,guess,loss,10,right,7,guess_start,759,space,0,0,117,406713,1858751
41,20,female,Belgian,4,110,guess,loss,10,right,7,guess_choice,599,j,0,0,117,406102,1859362
41,20,female,Belgian,4,110,guess,loss,10,right,7,guess_outcome,0,undefined,0,0,102,404543,1860921
41,20,female,Belgian,4,110,ITC,loss,10,right,7,ITC_start,1185,space,0,0,102,403355,1862109
41,20,female,Belgian,4,110,ITC,loss,10,right,7,ITC_choice,744,j,0,0,102,402606,1862858
41,20,female,Belgian,4,110,ITC,loss,10,right,7,ITC_wait,0,undefined,0,0,102,392601,1872863
41,20,female,Belgian,4,110,ITC,loss,10,right,7,ITC_collect,3536,k,0,0,102,389060,1876404
41,20,female,Belgian,4,110,ITC,loss,10,right,7,ITC_outcome,0,undefined,0,0,122,388053,1877411
41,20,female,Belgian,4,111,guess,loss,10,right,5,guess_start,537,space,0,0,122,387510,1877954
41,20,female,Belgian,4,111,guess,loss,10,right,5,guess_choice,636,j,0,0,122,386860,1878604
41,20,female,Belgian,4,111,guess,loss,10,right,5,guess_outcome,0,undefined,0,0,107,385302,1880162
41,20,female,Belgian,4,111,ITC,loss,10,right,5,ITC_start,5726,space,0,0,107,379573,1885891
41,20,female,Belgian,4,111,ITC,loss,10,right,5,ITC_choice,709,j,0,0,107,378857,1886607
41,20,female,Belgian,4,111,ITC,loss,10,right,5,ITC_wait,0,undefined,0,0,107,368850,1896614
41,20,female,Belgian,4,111,ITC,loss,10,right,5,ITC_collect,853,k,0,0,107,367991,1897473
41,20,female,Belgian,4,112,guess,loss,5,left,4,guess_start,1455,space,0,0,127,365517,1899947
41,20,female,Belgian,4,111,ITC,loss,10,right,5,ITC_outcome,0,undefined,0,0,127,366978,1898486
41,20,female,Belgian,4,112,guess,loss,5,left,4,guess_choice,561,j,0,0,127,364939,1900525
41,20,female,Belgian,4,112,guess,loss,5,left,4,guess_outcome,0,undefined,0,0,112,363376,1902088
41,20,female,Belgian,4,112,ITC,loss,5,left,4,ITC_start,922,space,0,0,112,362451,1903013
41,20,female,Belgian,4,112,ITC,loss,5,left,4,ITC_choice,1094,f,0,0,112,361355,1904109
41,20,female,Belgian,4,112,ITC,loss,5,left,4,ITC_wait,0,undefined,0,0,112,356349,1909115
41,20,female,Belgian,4,113,guess,neutral,10,left,4,guess_choice,577,j,0,0,132,352854,1912610
41,20,female,Belgian,4,112,ITC,loss,5,left,4,ITC_outcome,0,undefined,0,0,132,354238,1911226
41,20,female,Belgian,4,113,guess,neutral,10,left,4,guess_start,776,space,0,0,132,353455,1912009
41,20,female,Belgian,4,112,ITC,loss,5,left,4,ITC_collect,1088,k,0,0,112,355259,1910205
41,20,female,Belgian,4,113,guess,neutral,10,left,4,guess_outcome,0,undefined,0,0,132,351283,1914181
41,20,female,Belgian,4,113,ITC,neutral,10,left,4,ITC_start,753,space,0,0,132,350526,1914938
41,20,female,Belgian,4,113,ITC,neutral,10,left,4,ITC_choice,708,j,0,0,132,349813,1915651
41,20,female,Belgian,4,113,ITC,neutral,10,left,4,ITC_wait,0,undefined,0,0,132,349806,1915658
41,20,female,Belgian,4,113,ITC,neutral,10,left,4,ITC_collect,995,k,0,0,132,348803,1916661
41,20,female,Belgian,4,113,ITC,neutral,10,left,4,ITC_outcome,0,undefined,0,0,136,347785,1917679
41,20,female,Belgian,4,114,guess,neutral,10,right,1,guess_start,594,space,0,0,136,347184,1918280
41,20,female,Belgian,4,114,guess,neutral,10,right,1,guess_choice,520,j,0,0,136,346645,1918819
41,20,female,Belgian,4,114,guess,neutral,10,right,1,guess_outcome,0,undefined,0,0,136,345079,1920385
41,20,female,Belgian,4,114,ITC,neutral,10,right,1,ITC_start,553,space,0,0,136,344520,1920944
41,20,female,Belgian,4,114,ITC,neutral,10,right,1,ITC_collect,771,k,0,0,136,342566,1922898
41,20,female,Belgian,4,114,ITC,neutral,10,right,1,ITC_wait,0,undefined,0,0,136,343341,1922123
41,20,female,Belgian,4,114,ITC,neutral,10,right,1,ITC_choice,1167,f,0,0,136,343347,1922117
41,20,female,Belgian,4,114,ITC,neutral,10,right,1,ITC_outcome,0,undefined,0,0,137,341542,1923922
41,20,female,Belgian,4,115,guess,win,5,right,10,guess_start,590,space,0,0,137,340944,1924520
41,20,female,Belgian,4,115,guess,win,5,right,10,guess_choice,454,j,0,0,137,340467,1924997
41,20,female,Belgian,4,115,guess,win,5,right,10,guess_outcome,0,undefined,0,0,157,338888,1926576
41,20,female,Belgian,4,115,ITC,win,5,right,10,ITC_start,637,space,0,0,157,338245,1927219
41,20,female,Belgian,4,115,ITC,win,5,right,10,ITC_choice,1040,j,0,0,157,337197,1928267
41,20,female,Belgian,4,115,ITC,win,5,right,10,ITC_wait,0,undefined,0,0,157,332189,1933275
41,20,female,Belgian,4,115,ITC,win,5,right,10,ITC_collect,1518,k,0,0,157,330664,1934800
41,20,female,Belgian,4,115,ITC,win,5,right,10,ITC_outcome,0,undefined,0,0,177,329641,1935823
41,20,female,Belgian,4,116,guess,neutral,5,left,15,guess_start,495,space,0,0,177,329140,1936324
41,20,female,Belgian,4,116,guess,neutral,5,left,15,guess_choice,763,j,0,0,177,328356,1937108
41,20,female,Belgian,4,116,guess,neutral,5,left,15,guess_outcome,0,undefined,0,0,177,326786,1938678
41,20,female,Belgian,4,116,ITC,neutral,5,left,15,ITC_choice,1284,j,0,0,177,324917,1940547
41,20,female,Belgian,4,116,ITC,neutral,5,left,15,ITC_wait,0,undefined,0,0,177,324909,1940555
41,20,female,Belgian,4,116,ITC,neutral,5,left,15,ITC_start,573,space,0,0,177,326207,1939257
41,20,female,Belgian,4,116,ITC,neutral,5,left,15,ITC_collect,1010,k,0,0,177,323894,1941570
41,20,female,Belgian,4,116,ITC,neutral,5,left,15,ITC_outcome,0,undefined,0,0,192,322890,1942574
41,20,female,Belgian,4,117,guess,neutral,5,right,6,guess_start,400,space,0,0,192,322484,1942980
41,20,female,Belgian,4,117,guess,neutral,5,right,6,guess_choice,521,j,0,0,192,321954,1943510
41,20,female,Belgian,4,117,guess,neutral,5,right,6,guess_outcome,0,undefined,0,0,192,320393,1945071
41,20,female,Belgian,4,117,ITC,neutral,5,right,6,ITC_start,464,space,0,0,192,319925,1945539
41,20,female,Belgian,4,117,ITC,neutral,5,right,6,ITC_collect,806,k,0,0,192,317892,1947572
41,20,female,Belgian,4,117,ITC,neutral,5,right,6,ITC_choice,1217,f,0,0,192,318704,1946760
41,20,female,Belgian,4,117,ITC,neutral,5,right,6,ITC_outcome,0,undefined,0,0,198,316884,1948580
41,20,female,Belgian,4,118,guess,win,5,left,15,guess_start,401,space,0,0,198,316479,1948985
41,20,female,Belgian,4,117,ITC,neutral,5,right,6,ITC_wait,0,undefined,0,0,192,318701,1946763
41,20,female,Belgian,4,118,ITC,win,5,left,15,ITC_start,782,space,0,0,218,313495,1951969
41,20,female,Belgian,4,118,guess,win,5,left,15,guess_choice,624,j,0,0,198,315844,1949620
41,20,female,Belgian,4,118,guess,win,5,left,15,guess_outcome,0,undefined,0,0,218,314281,1951183
41,20,female,Belgian,4,118,ITC,win,5,left,15,ITC_choice,1005,j,0,0,218,312487,1952977
41,20,female,Belgian,4,118,ITC,win,5,left,15,ITC_wait,0,undefined,0,0,218,312483,1952981
41,20,female,Belgian,4,118,ITC,win,5,left,15,ITC_collect,845,k,0,0,218,311636,1953828
41,20,female,Belgian,4,118,ITC,win,5,left,15,ITC_outcome,0,undefined,0,0,233,310623,1954841
41,20,female,Belgian,4,119,guess,win,5,right,14,guess_start,450,space,0,0,233,310167,1955297
41,20,female,Belgian,4,119,guess,win,5,right,14,guess_choice,1074,f,0,0,233,309080,1956384
41,20,female,Belgian,4,119,guess,win,5,right,14,guess_outcome,0,undefined,0,0,253,307526,1957938
41,20,female,Belgian,4,119,ITC,win,5,right,14,ITC_start,767,space,0,0,253,306755,1958709
41,20,female,Belgian,4,119,ITC,win,5,right,14,ITC_choice,2295,f,0,0,253,304456,1961008
41,20,female,Belgian,4,119,ITC,win,5,right,14,ITC_collect,1542,k,0,0,253,302901,1962563
41,20,female,Belgian,4,120,guess,loss,5,left,3,guess_start,341,space,0,0,267,301545,1963919
41,20,female,Belgian,4,120,guess,loss,5,left,3,guess_choice,542,j,0,0,267,300999,1964465
41,20,female,Belgian,4,120,guess,loss,5,left,3,guess_outcome,0,undefined,0,0,252,299434,1966030
41,20,female,Belgian,4,119,ITC,win,5,right,14,ITC_outcome,0,undefined,0,0,267,301887,1963577
41,20,female,Belgian,4,119,ITC,win,5,right,14,ITC_wait,0,undefined,0,0,253,304448,1961016
41,20,female,Belgian,4,120,ITC,loss,5,left,3,ITC_start,714,space,0,0,252,298719,1966745
41,20,female,Belgian,4,120,ITC,loss,5,left,3,ITC_choice,845,j,0,0,252,297870,1967594
41,20,female,Belgian,4,120,ITC,loss,5,left,3,ITC_wait,0,undefined,0,0,252,297861,1967603
41,20,female,Belgian,4,120,ITC,loss,5,left,3,ITC_collect,957,k,0,0,252,296901,1968563
41,20,female,Belgian,4,120,ITC,loss,5,left,3,ITC_outcome,0,undefined,0,0,255,295896,1969568
41,20,female,Belgian,4,121,ITC,win,5,left,1,ITC_start,1578,space,0,0,275,291159,1974305
41,20,female,Belgian,4,121,ITC,win,5,left,1,ITC_choice,1668,f,0,0,275,289487,1975977
41,20,female,Belgian,4,121,guess,win,5,left,1,guess_outcome,0,undefined,0,0,275,292741,1972723
41,20,female,Belgian,4,121,guess,win,5,left,1,guess_start,498,space,0,0,255,295394,1970070
41,20,female,Belgian,4,121,ITC,win,5,left,1,ITC_wait,0,undefined,0,0,275,284485,1980979
41,20,female,Belgian,4,121,guess,win,5,left,1,guess_choice,1083,f,0,0,255,294307,1971157
41,20,female,Belgian,4,121,ITC,win,5,left,1,ITC_collect,1642,k,0,0,275,282840,1982624
41,20,female,Belgian,4,121,ITC,win,5,left,1,ITC_outcome,0,undefined,0,0,295,281834,1983630
41,20,female,Belgian,4,122,guess,win,5,left,3,guess_start,658,space,0,0,295,281170,1984294
41,20,female,Belgian,4,122,guess,win,5,left,3,guess_outcome,0,undefined,0,0,315,279043,1986421
41,20,female,Belgian,4,122,guess,win,5,left,3,guess_choice,535,j,0,0,295,280613,1984851
41,20,female,Belgian,4,122,ITC,win,5,left,3,ITC_start,906,space,0,0,315,278133,1987331
41,20,female,Belgian,4,122,ITC,win,5,left,3,ITC_choice,2388,f,0,0,315,275743,1989721
41,20,female,Belgian,4,122,ITC,win,5,left,3,ITC_wait,0,undefined,0,0,315,270737,1994727
41,20,female,Belgian,4,122,ITC,win,5,left,3,ITC_collect,832,k,0,0,315,269899,1995565
41,20,female,Belgian,4,123,guess,loss,5,left,5,guess_start,646,space,0,0,335,268234,1997230
41,20,female,Belgian,4,122,ITC,win,5,left,3,ITC_outcome,0,undefined,0,0,335,268884,1996580
41,20,female,Belgian,4,123,guess,loss,5,left,5,guess_outcome,0,undefined,0,0,320,266092,1999372
41,20,female,Belgian,4,123,guess,loss,5,left,5,guess_choice,566,j,0,0,335,267663,1997801
41,20,female,Belgian,4,123,ITC,loss,5,left,5,ITC_wait,0,undefined,0,0,320,264677,2000787
41,20,female,Belgian,4,123,ITC,loss,5,left,5,ITC_choice,798,j,0,0,320,264681,2000783
41,20,female,Belgian,4,123,ITC,loss,5,left,5,ITC_collect,2066,k,0,0,320,262609,2002855
41,20,female,Belgian,4,123,ITC,loss,5,left,5,ITC_outcome,0,undefined,0,0,325,261591,2003873
41,20,female,Belgian,4,124,guess,loss,5,right,8,guess_choice,689,j,0,0,325,260456,2005008
41,20,female,Belgian,4,123,ITC,loss,5,left,5,ITC_start,604,space,0,0,320,265484,1999980
41,20,female,Belgian,4,124,guess,loss,5,right,8,guess_start,423,space,0,0,325,261162,2004302
41,20,female,Belgian,4,124,guess,loss,5,right,8,guess_outcome,0,undefined,0,0,310,258882,2006582
41,20,female,Belgian,4,124,ITC,loss,5,right,8,ITC_choice,1278,j,0,0,310,254914,2010550
41,20,female,Belgian,4,124,ITC,loss,5,right,8,ITC_start,2678,space,0,0,310,256199,2009265
41,20,female,Belgian,4,124,ITC,loss,5,right,8,ITC_wait,0,undefined,0,0,310,249909,2015555
41,20,female,Belgian,4,124,ITC,loss,5,right,8,ITC_collect,902,k,0,0,310,249002,2016462
41,20,female,Belgian,4,124,ITC,loss,5,right,8,ITC_outcome,0,undefined,0,0,330,247996,2017468
41,20,female,Belgian,4,125,guess,loss,5,left,11,guess_choice,743,j,0,0,330,242798,2022666
41,20,female,Belgian,4,125,guess,loss,5,left,11,guess_start,4447,space,0,0,330,243543,2021921
41,20,female,Belgian,4,125,guess,loss,5,left,11,guess_outcome,0,undefined,0,0,315,241240,2024224
41,20,female,Belgian,4,125,ITC,loss,5,left,11,ITC_start,4102,space,0,0,315,237135,2028329
41,20,female,Belgian,4,125,ITC,loss,5,left,11,ITC_wait,0,undefined,0,0,315,236150,2029314
41,20,female,Belgian,4,125,ITC,loss,5,left,11,ITC_collect,1549,k,0,0,315,234597,2030867
41,20,female,Belgian,4,125,ITC,loss,5,left,11,ITC_outcome,0,undefined,0,0,326,233586,2031878
41,20,female,Belgian,4,125,ITC,loss,5,left,11,ITC_choice,972,j,0,0,315,236156,2029308
41,20,female,Belgian,4,126,guess,neutral,5,right,7,guess_start,6788,space,0,0,326,226792,2038672
41,20,female,Belgian,4,126,guess,neutral,5,right,7,guess_choice,1283,f,0,0,326,225503,2039961
41,20,female,Belgian,4,126,guess,neutral,5,right,7,guess_outcome,0,undefined,0,0,326,223944,2041520
41,20,female,Belgian,4,126,ITC,neutral,5,right,7,ITC_start,861,space,0,0,326,223079,2042385
41,20,female,Belgian,4,126,ITC,neutral,5,right,7,ITC_choice,1391,j,0,0,326,221683,2043781
41,20,female,Belgian,4,126,ITC,neutral,5,right,7,ITC_wait,0,undefined,0,0,326,216678,2048786
41,20,female,Belgian,4,127,guess,neutral,5,left,9,guess_start,807,space,0,0,346,212420,2053044
41,20,female,Belgian,4,127,guess,neutral,5,left,9,guess_choice,997,f,0,0,346,211405,2054059
41,20,female,Belgian,4,126,ITC,neutral,5,right,7,ITC_collect,2433,k,0,0,326,214240,2051224
41,20,female,Belgian,4,127,guess,neutral,5,left,9,guess_outcome,0,undefined,0,0,346,209833,2055631
41,20,female,Belgian,4,126,ITC,neutral,5,right,7,ITC_outcome,0,undefined,0,0,346,213232,2052232
41,20,female,Belgian,4,127,ITC,neutral,5,left,9,ITC_start,905,space,0,0,346,208922,2056542
41,20,female,Belgian,4,127,ITC,neutral,5,left,9,ITC_wait,0,undefined,0,0,346,208076,2057388
41,20,female,Belgian,4,127,ITC,neutral,5,left,9,ITC_choice,829,j,0,0,346,208088,2057376
41,20,female,Belgian,4,127,ITC,neutral,5,left,9,ITC_collect,1468,k,0,0,346,206603,2058861
41,20,female,Belgian,4,128,guess,win,5,left,12,guess_start,671,space,0,0,355,204909,2060555
41,20,female,Belgian,4,128,guess,win,5,left,12,guess_choice,1209,f,0,0,355,203681,2061783
41,20,female,Belgian,4,127,ITC,neutral,5,left,9,ITC_outcome,0,undefined,0,0,355,205586,2059878
41,20,female,Belgian,4,128,guess,win,5,left,12,guess_outcome,0,undefined,0,0,375,202122,2063342
41,20,female,Belgian,4,128,ITC,win,5,left,12,ITC_start,1276,space,0,0,375,200842,2064622
41,20,female,Belgian,4,128,ITC,win,5,left,12,ITC_choice,989,j,0,0,375,199848,2065616
41,20,female,Belgian,4,128,ITC,win,5,left,12,ITC_wait,0,undefined,0,0,375,199844,2065620
41,20,female,Belgian,4,128,ITC,win,5,left,12,ITC_collect,765,k,0,0,375,199077,2066387
41,20,female,Belgian,4,128,ITC,win,5,left,12,ITC_outcome,0,undefined,0,0,387,198057,2067407
41,20,female,Belgian,4,129,guess,neutral,5,left,4,guess_start,439,space,0,0,387,197613,2067851
41,20,female,Belgian,4,129,guess,neutral,5,left,4,guess_choice,678,j,0,0,387,196913,2068551
41,20,female,Belgian,4,129,guess,neutral,5,left,4,guess_outcome,0,undefined,0,0,387,195340,2070124
41,20,female,Belgian,4,129,ITC,neutral,5,left,4,ITC_choice,658,j,0,0,387,194105,2071359
41,20,female,Belgian,4,129,ITC,neutral,5,left,4,ITC_wait,0,undefined,0,0,387,194096,2071368
41,20,female,Belgian,4,129,ITC,neutral,5,left,4,ITC_collect,1366,k,0,0,387,192725,2072739
41,20,female,Belgian,4,129,ITC,neutral,5,left,4,ITC_start,566,space,0,0,387,194770,2070694
41,20,female,Belgian,4,129,ITC,neutral,5,left,4,ITC_outcome,0,undefined,0,0,391,191707,2073757
41,20,female,Belgian,4,130,guess,loss,5,left,9,guess_start,448,space,0,0,391,191257,2074207
41,20,female,Belgian,4,130,guess,loss,5,left,9,guess_choice,705,j,0,0,391,190529,2074935
41,20,female,Belgian,4,130,guess,loss,5,left,9,guess_outcome,0,undefined,0,0,376,188972,2076492
41,20,female,Belgian,4,130,ITC,loss,5,left,9,ITC_start,733,space,0,0,376,188234,2077230
41,20,female,Belgian,4,130,ITC,loss,5,left,9,ITC_choice,958,j,0,0,376,187269,2078195
41,20,female,Belgian,4,130,ITC,loss,5,left,9,ITC_wait,0,undefined,0,0,376,187250,2078214
41,20,female,Belgian,4,130,ITC,loss,5,left,9,ITC_collect,2130,k,0,0,376,185114,2080350
41,20,female,Belgian,4,130,ITC,loss,5,left,9,ITC_outcome,0,undefined,0,0,385,184090,2081374
41,20,female,Belgian,4,131,guess,neutral,10,left,5,guess_start,752,space,0,0,385,183332,2082132
41,20,female,Belgian,4,131,guess,neutral,10,left,5,guess_choice,1087,f,0,0,385,182220,2083244
41,20,female,Belgian,4,131,guess,neutral,10,left,5,guess_outcome,0,undefined,0,0,385,180641,2084823
41,20,female,Belgian,4,131,ITC,neutral,10,left,5,ITC_start,4039,space,0,0,385,176598,2088866
41,20,female,Belgian,4,131,ITC,neutral,10,left,5,ITC_choice,1762,f,0,0,385,174832,2090632
41,20,female,Belgian,4,131,ITC,neutral,10,left,5,ITC_wait,0,undefined,0,0,385,164826,2100638
41,20,female,Belgian,4,131,ITC,neutral,10,left,5,ITC_collect,2987,k,0,0,385,161833,2103631
41,20,female,Belgian,4,131,ITC,neutral,10,left,5,ITC_outcome,0,undefined,0,0,405,160805,2104659
41,20,female,Belgian,4,132,guess,win,5,right,6,guess_start,1257,space,0,0,405,159541,2105923
41,20,female,Belgian,4,132,guess,win,5,right,6,guess_choice,539,j,0,0,405,158975,2106489
41,20,female,Belgian,4,132,ITC,win,5,right,6,ITC_start,1877,space,0,0,425,155512,2109952
41,20,female,Belgian,4,132,ITC,win,5,right,6,ITC_choice,966,j,0,0,425,154539,2110925
41,20,female,Belgian,4,132,guess,win,5,right,6,guess_outcome,0,undefined,0,0,425,157396,2108068
41,20,female,Belgian,4,132,ITC,win,5,right,6,ITC_wait,0,undefined,0,0,425,149532,2115932
41,20,female,Belgian,4,132,ITC,win,5,right,6,ITC_collect,2054,k,0,0,425,147473,2117991
41,20,female,Belgian,4,132,ITC,win,5,right,6,ITC_outcome,0,undefined,0,0,445,146466,2118998
41,20,female,Belgian,4,133,guess,win,5,left,13,guess_start,554,space,0,0,445,145908,2119556
41,20,female,Belgian,4,133,guess,win,5,left,13,guess_choice,887,j,0,0,445,145015,2120449
41,20,female,Belgian,4,133,guess,win,5,left,13,guess_outcome,0,undefined,0,0,465,143461,2122003
41,20,female,Belgian,4,133,ITC,win,5,left,13,ITC_start,1203,space,0,0,465,142255,2123209
41,20,female,Belgian,4,133,ITC,win,5,left,13,ITC_wait,0,undefined,0,0,465,141539,2123925
41,20,female,Belgian,4,133,ITC,win,5,left,13,ITC_choice,705,j,0,0,465,141547,2123917
41,20,female,Belgian,4,133,ITC,win,5,left,13,ITC_collect,710,k,0,0,465,140826,2124638
41,20,female,Belgian,4,133,ITC,win,5,left,13,ITC_outcome,0,undefined,0,0,478,139815,2125649
41,20,female,Belgian,4,134,guess,win,10,right,5,guess_start,592,space,0,0,478,139217,2126247
41,20,female,Belgian,4,134,guess,win,10,right,5,guess_choice,822,f,0,0,478,138384,2127080
41,20,female,Belgian,4,134,guess,win,10,right,5,guess_outcome,0,undefined,0,0,498,136822,2128642
41,20,female,Belgian,4,134,ITC,win,10,right,5,ITC_start,449,space,0,0,498,136369,2129095
41,20,female,Belgian,4,134,ITC,win,10,right,5,ITC_choice,998,j,0,0,498,135367,2130097
41,20,female,Belgian,4,134,ITC,win,10,right,5,ITC_wait,0,undefined,0,0,498,125364,2140100
41,20,female,Belgian,4,134,ITC,win,10,right,5,ITC_collect,1075,k,0,0,498,124285,2141179
41,20,female,Belgian,4,134,ITC,win,10,right,5,ITC_outcome,0,undefined,0,0,518,123273,2142191
41,20,female,Belgian,4,135,guess,neutral,5,right,11,guess_start,632,space,0,0,518,122638,2142826
41,20,female,Belgian,4,135,guess,neutral,5,right,11,guess_choice,593,j,0,0,518,122033,2143431
41,20,female,Belgian,4,135,ITC,neutral,5,right,11,ITC_start,717,space,0,0,518,119755,2145709
41,20,female,Belgian,4,135,guess,neutral,5,right,11,guess_outcome,0,undefined,0,0,518,120476,2144988
41,20,female,Belgian,4,135,ITC,neutral,5,right,11,ITC_choice,846,j,0,0,518,118904,2146560
41,20,female,Belgian,4,135,ITC,neutral,5,right,11,ITC_wait,0,undefined,0,0,518,113897,2151567
41,20,female,Belgian,4,135,ITC,neutral,5,right,11,ITC_outcome,0,undefined,0,0,538,111802,2153662
41,20,female,Belgian,4,136,guess,neutral,5,left,12,guess_start,546,space,0,0,538,111248,2154216
41,20,female,Belgian,4,136,guess,neutral,5,left,12,guess_choice,510,j,0,0,538,110719,2154745
41,20,female,Belgian,4,136,guess,neutral,5,left,12,guess_outcome,0,undefined,0,0,538,109155,2156309
41,20,female,Belgian,4,136,ITC,neutral,5,left,12,ITC_start,680,space,0,0,538,108471,2156993
41,20,female,Belgian,4,136,ITC,neutral,5,left,12,ITC_choice,1054,f,0,0,538,107412,2158052
41,20,female,Belgian,4,135,ITC,neutral,5,right,11,ITC_collect,1080,k,0,0,518,112813,2152651
41,20,female,Belgian,4,136,ITC,neutral,5,left,12,ITC_wait,0,undefined,0,0,538,102408,2163056
41,20,female,Belgian,4,136,ITC,neutral,5,left,12,ITC_collect,1855,k,0,0,538,100545,2164919
41,20,female,Belgian,4,136,ITC,neutral,5,left,12,ITC_outcome,0,undefined,0,0,558,99523,2165941
41,20,female,Belgian,4,137,guess,win,10,left,3,guess_start,511,space,0,0,558,99006,2166458
41,20,female,Belgian,4,137,guess,win,10,left,3,guess_choice,627,j,0,0,558,98362,2167102
41,20,female,Belgian,4,137,guess,win,10,left,3,guess_outcome,0,undefined,0,0,578,96792,2168672
41,20,female,Belgian,4,137,ITC,win,10,left,3,ITC_start,874,space,0,0,578,95913,2169551
41,20,female,Belgian,4,137,ITC,win,10,left,3,ITC_choice,1204,f,0,0,578,94704,2170760
41,20,female,Belgian,4,137,ITC,win,10,left,3,ITC_wait,0,undefined,0,0,578,84699,2180765
41,20,female,Belgian,4,137,ITC,win,10,left,3,ITC_collect,854,k,0,0,578,83840,2181624
41,20,female,Belgian,4,137,ITC,win,10,left,3,ITC_outcome,0,undefined,0,0,598,82820,2182644
41,20,female,Belgian,4,138,guess,loss,10,left,3,guess_choice,510,j,0,0,598,81622,2183842
41,20,female,Belgian,4,138,guess,loss,10,left,3,guess_start,668,space,0,0,598,82143,2183321
41,20,female,Belgian,4,138,guess,loss,10,left,3,guess_outcome,0,undefined,0,0,583,80051,2185413
41,20,female,Belgian,4,138,ITC,loss,10,left,3,ITC_choice,958,f,0,0,583,77929,2187535
41,20,female,Belgian,4,138,ITC,loss,10,left,3,ITC_start,1154,space,0,0,583,78893,2186571
41,20,female,Belgian,4,138,ITC,loss,10,left,3,ITC_wait,0,undefined,0,0,583,67924,2197540
41,20,female,Belgian,4,138,ITC,loss,10,left,3,ITC_collect,1583,k,0,0,583,66334,2199130
41,20,female,Belgian,4,138,ITC,loss,10,left,3,ITC_outcome,0,undefined,0,0,603,65307,2200157
41,20,female,Belgian,4,139,guess,neutral,5,right,8,guess_start,2766,space,0,0,603,62535,2202929
41,20,female,Belgian,4,139,guess,neutral,5,right,8,guess_choice,1076,f,0,0,603,61444,2204020
41,20,female,Belgian,4,139,guess,neutral,5,right,8,guess_outcome,0,undefined,0,0,603,59870,2205594
41,20,female,Belgian,4,139,ITC,neutral,5,right,8,ITC_start,1453,space,0,0,603,58413,2207051
41,20,female,Belgian,4,139,ITC,neutral,5,right,8,ITC_choice,1102,j,0,0,603,57308,2208156
41,20,female,Belgian,4,139,ITC,neutral,5,right,8,ITC_wait,0,undefined,0,0,603,52304,2213160
41,20,female,Belgian,4,139,ITC,neutral,5,right,8,ITC_collect,1038,k,0,0,603,51260,2214204
41,20,female,Belgian,4,139,ITC,neutral,5,right,8,ITC_outcome,0,undefined,0,0,623,50232,2215232
41,20,female,Belgian,4,140,guess,neutral,10,right,6,guess_choice,645,j,0,0,623,46974,2218490
41,20,female,Belgian,4,140,guess,neutral,10,right,6,guess_outcome,0,undefined,0,0,623,45414,2220050
41,20,female,Belgian,4,140,ITC,neutral,10,right,6,ITC_start,1690,space,0,0,623,43721,2221743
41,20,female,Belgian,4,140,ITC,neutral,10,right,6,ITC_choice,955,j,0,0,623,42761,2222703
41,20,female,Belgian,4,140,guess,neutral,10,right,6,guess_start,2598,space,0,0,623,47629,2217835
41,20,female,Belgian,4,140,ITC,neutral,10,right,6,ITC_wait,0,undefined,0,0,623,32756,2232708
