subjectID,age,gender,nationality,block_number,trial_number,trial_type,guess_outcome,delay_time,delay_pos,immediate_amount,stage,respRT,respKey,blur_count,focus_count,total_points,remaining_duration,time_elapsed
30,19,female,Belgian,1,1,guess,neutral,5,left,11,guess_start,61035,space,0,0,0,418963,502361
30,19,female,Belgian,1,1,guess,neutral,5,left,11,guess_choice,774,j,0,0,0,418183,503141
30,19,female,Belgian,1,1,guess,neutral,5,left,11,guess_outcome,0,undefined,0,0,0,416613,504711
30,19,female,Belgian,1,1,ITC,neutral,5,left,11,ITC_start,3720,space,0,0,0,412891,508433
30,19,female,Belgian,1,1,ITC,neutral,5,left,11,ITC_choice,2071,f,0,0,0,410817,510507
30,19,female,Belgian,1,1,ITC,neutral,5,left,11,ITC_wait,0,undefined,0,0,0,405802,515522
30,19,female,Belgian,1,1,ITC,neutral,5,left,11,ITC_collect,1068,k,0,0,0,404731,516593
30,19,female,Belgian,1,1,ITC,neutral,5,left,11,ITC_outcome,0,undefined,0,0,20,403714,517610
30,19,female,Belgian,1,2,guess,win,10,left,1,guess_start,1389,space,0,0,20,402321,519003
30,19,female,Belgian,1,2,guess,win,10,left,1,guess_choice,854,j,0,0,20,401462,519862
30,19,female,Belgian,1,2,guess,win,10,left,1,guess_outcome,0,undefined,0,0,40,399898,521426
30,19,female,Belgian,1,2,ITC,win,10,left,1,ITC_start,1228,space,0,0,40,398668,522656
30,19,female,Belgian,1,2,ITC,win,10,left,1,ITC_choice,1240,f,0,0,40,397426,523898
30,19,female,Belgian,1,2,ITC,win,10,left,1,ITC_wait,0,undefined,0,0,40,387409,533915
30,19,female,Belgian,1,2,ITC,win,10,left,1,ITC_collect,662,k,0,0,40,386745,534579
30,19,female,Belgian,1,2,ITC,win,10,left,1,ITC_outcome,0,undefined,0,0,60,385735,535589
30,19,female,Belgian,1,3,guess,win,10,right,2,guess_start,1529,space,0,0,60,384203,537121
30,19,female,Belgian,1,3,guess,win,10,right,2,guess_choice,813,f,0,0,60,383385,537939
30,19,female,Belgian,1,3,guess,win,10,right,2,guess_outcome,0,undefined,0,0,80,381826,539498
30,19,female,Belgian,1,3,ITC,win,10,right,2,ITC_start,2249,space,0,0,80,379576,541748
30,19,female,Belgian,1,3,ITC,win,10,right,2,ITC_choice,970,j,0,0,80,378603,542721
30,19,female,Belgian,1,3,ITC,win,10,right,2,ITC_wait,0,undefined,0,0,80,368590,552734
30,19,female,Belgian,1,3,ITC,win,10,right,2,ITC_collect,454,k,0,0,80,368133,553191
30,19,female,Belgian,1,3,ITC,win,10,right,2,ITC_outcome,0,undefined,0,0,100,367124,554200
30,19,female,Belgian,1,4,guess,loss,10,right,2,guess_start,2238,space,0,0,100,364883,556441
30,19,female,Belgian,1,4,guess,loss,10,right,2,guess_choice,709,f,0,0,100,364170,557154
30,19,female,Belgian,1,4,guess,loss,10,right,2,guess_outcome,0,undefined,0,0,85,362609,558715
30,19,female,Belgian,1,4,ITC,loss,10,right,2,ITC_start,3193,space,0,0,85,359413,561911
30,19,female,Belgian,1,4,ITC,loss,10,right,2,ITC_choice,925,j,0,0,85,358486,562838
30,19,female,Belgian,1,4,ITC,loss,10,right,2,ITC_wait,0,undefined,0,0,85,348469,572855
30,19,female,Belgian,1,4,ITC,loss,10,right,2,ITC_collect,427,k,0,0,85,348039,573285
30,19,female,Belgian,1,4,ITC,loss,10,right,2,ITC_outcome,0,undefined,0,0,105,347022,574302
30,19,female,Belgian,1,5,guess,neutral,5,right,6,guess_start,1734,space,0,0,105,345285,576039
30,19,female,Belgian,1,5,guess,neutral,5,right,6,guess_choice,546,j,0,0,105,344734,576590
30,19,female,Belgian,1,5,guess,neutral,5,right,6,guess_outcome,0,undefined,0,0,105,343176,578148
30,19,female,Belgian,1,5,ITC,neutral,5,right,6,ITC_start,1775,space,0,0,105,341399,579925
30,19,female,Belgian,1,5,ITC,neutral,5,right,6,ITC_choice,1192,j,0,0,105,340205,581119
30,19,female,Belgian,1,5,ITC,neutral,5,right,6,ITC_wait,0,undefined,0,0,105,335190,586134
30,19,female,Belgian,1,5,ITC,neutral,5,right,6,ITC_collect,420,k,0,0,105,334768,586556
30,19,female,Belgian,1,5,ITC,neutral,5,right,6,ITC_outcome,0,undefined,0,0,125,333756,587568
30,19,female,Belgian,1,6,guess,win,5,right,5,guess_start,825,space,0,0,125,332929,588395
30,19,female,Belgian,1,6,guess,win,5,right,5,guess_choice,531,f,0,0,125,332395,588929
30,19,female,Belgian,1,6,guess,win,5,right,5,guess_outcome,0,undefined,0,0,145,330835,590489
30,19,female,Belgian,1,6,ITC,win,5,right,5,ITC_start,2432,space,0,0,145,328401,592923
30,19,female,Belgian,1,6,ITC,win,5,right,5,ITC_choice,1109,j,0,0,145,327289,594035
30,19,female,Belgian,1,6,ITC,win,5,right,5,ITC_wait,0,undefined,0,0,145,322273,599051
30,19,female,Belgian,1,6,ITC,win,5,right,5,ITC_collect,527,k,0,0,145,321743,599581
30,19,female,Belgian,1,6,ITC,win,5,right,5,ITC_outcome,0,undefined,0,0,165,320734,600590
30,19,female,Belgian,1,7,guess,neutral,10,left,6,guess_start,837,space,0,0,165,319895,601429
30,19,female,Belgian,1,7,guess,neutral,10,left,6,guess_choice,400,f,0,0,165,319490,601834
30,19,female,Belgian,1,7,guess,neutral,10,left,6,guess_outcome,0,undefined,0,0,165,317929,603395
30,19,female,Belgian,1,7,ITC,neutral,10,left,6,ITC_start,1664,space,0,0,165,316262,605062
30,19,female,Belgian,1,7,ITC,neutral,10,left,6,ITC_choice,1267,f,0,0,165,314993,606331
30,19,female,Belgian,1,7,ITC,neutral,10,left,6,ITC_wait,0,undefined,0,0,165,304975,616349
30,19,female,Belgian,1,7,ITC,neutral,10,left,6,ITC_collect,338,k,0,0,165,304635,616689
30,19,female,Belgian,1,7,ITC,neutral,10,left,6,ITC_outcome,0,undefined,0,0,185,303616,617708
30,19,female,Belgian,1,8,guess,neutral,5,left,14,guess_start,683,space,0,0,185,302930,618394
30,19,female,Belgian,1,8,guess,neutral,5,left,14,guess_choice,538,f,0,0,185,302387,618937
30,19,female,Belgian,1,8,guess,neutral,5,left,14,guess_outcome,0,undefined,0,0,185,300825,620499
30,19,female,Belgian,1,8,ITC,neutral,5,left,14,ITC_start,1100,space,0,0,185,299723,621601
30,19,female,Belgian,1,8,ITC,neutral,5,left,14,ITC_choice,1487,j,0,0,185,298234,623090
30,19,female,Belgian,1,8,ITC,neutral,5,left,14,ITC_wait,0,undefined,0,0,185,298230,623094
30,19,female,Belgian,1,8,ITC,neutral,5,left,14,ITC_collect,1676,k,0,0,185,296551,624773
30,19,female,Belgian,1,8,ITC,neutral,5,left,14,ITC_outcome,0,undefined,0,0,199,295540,625784
30,19,female,Belgian,1,9,guess,loss,5,left,16,guess_start,603,space,0,0,199,294935,626389
30,19,female,Belgian,1,9,guess,loss,5,left,16,guess_choice,806,j,0,0,199,294123,627201
30,19,female,Belgian,1,9,guess,loss,5,left,16,guess_outcome,0,undefined,0,0,184,292560,628764
30,19,female,Belgian,1,9,ITC,loss,5,left,16,ITC_start,730,space,0,0,184,291828,629496
30,19,female,Belgian,1,9,ITC,loss,5,left,16,ITC_choice,1386,f,0,0,184,290439,630885
30,19,female,Belgian,1,9,ITC,loss,5,left,16,ITC_wait,0,undefined,0,0,184,285431,635893
30,19,female,Belgian,1,9,ITC,loss,5,left,16,ITC_collect,813,k,0,0,184,284615,636709
30,19,female,Belgian,1,9,ITC,loss,5,left,16,ITC_outcome,0,undefined,0,0,204,283609,637715
30,19,female,Belgian,1,10,guess,loss,5,right,11,guess_start,989,space,0,0,204,282617,638707
30,19,female,Belgian,1,10,guess,loss,5,right,11,guess_choice,1305,f,0,0,204,281309,640015
30,19,female,Belgian,1,10,guess,loss,5,right,11,guess_outcome,0,undefined,0,0,189,279739,641585
30,19,female,Belgian,1,10,ITC,loss,5,right,11,ITC_start,1327,space,0,0,189,278410,642914
30,19,female,Belgian,1,10,ITC,loss,5,right,11,ITC_choice,1066,j,0,0,189,277341,643983
30,19,female,Belgian,1,10,ITC,loss,5,right,11,ITC_wait,0,undefined,0,0,189,272333,648991
30,19,female,Belgian,1,10,ITC,loss,5,right,11,ITC_collect,320,k,0,0,189,272011,649313
30,19,female,Belgian,1,10,ITC,loss,5,right,11,ITC_outcome,0,undefined,0,0,209,270996,650328
30,19,female,Belgian,1,11,guess,win,5,left,14,guess_start,670,space,0,0,209,270323,651001
30,19,female,Belgian,1,11,guess,win,5,left,14,guess_choice,909,f,0,0,209,269411,651913
30,19,female,Belgian,1,11,guess,win,5,left,14,guess_outcome,0,undefined,0,0,229,267850,653474
30,19,female,Belgian,1,11,ITC,win,5,left,14,ITC_start,756,space,0,0,229,267092,654232
30,19,female,Belgian,1,11,ITC,win,5,left,14,ITC_choice,1139,j,0,0,229,265951,655373
30,19,female,Belgian,1,11,ITC,win,5,left,14,ITC_wait,0,undefined,0,0,229,265947,655377
30,19,female,Belgian,1,11,ITC,win,5,left,14,ITC_collect,975,k,0,0,229,264970,656354
30,19,female,Belgian,1,11,ITC,win,5,left,14,ITC_outcome,0,undefined,0,0,243,263965,657359
30,19,female,Belgian,1,12,guess,win,10,left,8,guess_start,640,space,0,0,243,263322,658002
30,19,female,Belgian,1,12,guess,win,10,left,8,guess_choice,841,j,0,0,243,262478,658846
30,19,female,Belgian,1,12,guess,win,10,left,8,guess_outcome,0,undefined,0,0,263,260913,660411
30,19,female,Belgian,1,12,ITC,win,10,left,8,ITC_start,647,space,0,0,263,260265,661059
30,19,female,Belgian,1,12,ITC,win,10,left,8,ITC_choice,889,f,0,0,263,259374,661950
30,19,female,Belgian,1,12,ITC,win,10,left,8,ITC_wait,0,undefined,0,0,263,249357,671967
30,19,female,Belgian,1,12,ITC,win,10,left,8,ITC_collect,329,k,0,0,263,249026,672298
30,19,female,Belgian,1,12,ITC,win,10,left,8,ITC_outcome,0,undefined,0,0,283,248017,673307
30,19,female,Belgian,1,13,guess,loss,5,left,5,guess_start,831,space,0,0,283,247183,674141
30,19,female,Belgian,1,13,guess,loss,5,left,5,guess_choice,591,j,0,0,283,246590,674734
30,19,female,Belgian,1,13,guess,loss,5,left,5,guess_outcome,0,undefined,0,0,268,245034,676290
30,19,female,Belgian,1,13,ITC,loss,5,left,5,ITC_start,1057,space,0,0,268,243975,677349
30,19,female,Belgian,1,13,ITC,loss,5,left,5,ITC_choice,903,f,0,0,268,243069,678255
30,19,female,Belgian,1,13,ITC,loss,5,left,5,ITC_wait,0,undefined,0,0,268,238055,683269
30,19,female,Belgian,1,13,ITC,loss,5,left,5,ITC_collect,435,k,0,0,268,237618,683706
30,19,female,Belgian,1,13,ITC,loss,5,left,5,ITC_outcome,0,undefined,0,0,288,236605,684719
30,19,female,Belgian,1,14,guess,loss,10,left,1,guess_start,982,space,0,0,288,235621,685703
30,19,female,Belgian,1,14,guess,loss,10,left,1,guess_choice,924,f,0,0,288,234692,686632
30,19,female,Belgian,1,14,guess,loss,10,left,1,guess_outcome,0,undefined,0,0,273,233126,688198
30,19,female,Belgian,1,14,ITC,loss,10,left,1,ITC_start,814,space,0,0,273,232311,689013
30,19,female,Belgian,1,14,ITC,loss,10,left,1,ITC_choice,984,f,0,0,273,231325,689999
30,19,female,Belgian,1,14,ITC,loss,10,left,1,ITC_wait,0,undefined,0,0,273,221306,700018
30,19,female,Belgian,1,14,ITC,loss,10,left,1,ITC_collect,540,k,0,0,273,220764,700560
30,19,female,Belgian,1,14,ITC,loss,10,left,1,ITC_outcome,0,undefined,0,0,293,219754,701570
30,19,female,Belgian,1,15,guess,loss,10,right,7,guess_start,847,space,0,0,293,218903,702421
30,19,female,Belgian,1,15,guess,loss,10,right,7,guess_choice,898,f,0,0,293,218001,703323
30,19,female,Belgian,1,15,guess,loss,10,right,7,guess_outcome,0,undefined,0,0,278,216436,704888
30,19,female,Belgian,1,15,ITC,loss,10,right,7,ITC_start,661,space,0,0,278,215773,705551
30,19,female,Belgian,1,15,ITC,loss,10,right,7,ITC_choice,1487,j,0,0,278,214284,707040
30,19,female,Belgian,1,15,ITC,loss,10,right,7,ITC_wait,0,undefined,0,0,278,204267,717057
30,19,female,Belgian,1,15,ITC,loss,10,right,7,ITC_collect,337,k,0,0,278,203928,717396
30,19,female,Belgian,1,15,ITC,loss,10,right,7,ITC_outcome,0,undefined,0,0,298,202912,718412
30,19,female,Belgian,1,16,guess,win,10,left,5,guess_start,682,space,0,0,298,202228,719096
30,19,female,Belgian,1,16,guess,win,10,left,5,guess_choice,481,j,0,0,298,201742,719582
30,19,female,Belgian,1,16,guess,win,10,left,5,guess_outcome,0,undefined,0,0,318,200186,721138
30,19,female,Belgian,1,16,ITC,win,10,left,5,ITC_start,761,space,0,0,318,199422,721902
30,19,female,Belgian,1,16,ITC,win,10,left,5,ITC_choice,719,f,0,0,318,198702,722622
30,19,female,Belgian,1,16,ITC,win,10,left,5,ITC_wait,0,undefined,0,0,318,188692,732632
30,19,female,Belgian,1,16,ITC,win,10,left,5,ITC_collect,342,k,0,0,318,188347,732977
30,19,female,Belgian,1,16,ITC,win,10,left,5,ITC_outcome,0,undefined,0,0,338,187340,733984
30,19,female,Belgian,1,17,guess,win,5,right,8,guess_start,305,space,0,0,338,187033,734291
30,19,female,Belgian,1,17,guess,win,5,right,8,guess_choice,589,j,0,0,338,186440,734884
30,19,female,Belgian,1,17,guess,win,5,right,8,guess_outcome,0,undefined,0,0,358,184874,736450
30,19,female,Belgian,1,17,ITC,win,5,right,8,ITC_start,614,space,0,0,358,184258,737066
30,19,female,Belgian,1,17,ITC,win,5,right,8,ITC_choice,1594,j,0,0,358,182661,738663
30,19,female,Belgian,1,17,ITC,win,5,right,8,ITC_wait,0,undefined,0,0,358,177653,743671
30,19,female,Belgian,1,17,ITC,win,5,right,8,ITC_collect,427,k,0,0,358,177223,744101
30,19,female,Belgian,1,17,ITC,win,5,right,8,ITC_outcome,0,undefined,0,0,378,176209,745115
30,19,female,Belgian,1,18,guess,neutral,5,right,3,guess_start,543,space,0,0,378,175664,745660
30,19,female,Belgian,1,18,guess,neutral,5,right,3,guess_choice,495,f,0,0,378,175165,746159
30,19,female,Belgian,1,18,guess,neutral,5,right,3,guess_outcome,0,undefined,0,0,378,173604,747720
30,19,female,Belgian,1,18,ITC,neutral,5,right,3,ITC_start,1456,space,0,0,378,172147,749177
30,19,female,Belgian,1,18,ITC,neutral,5,right,3,ITC_choice,866,j,0,0,378,171278,750046
30,19,female,Belgian,1,18,ITC,neutral,5,right,3,ITC_wait,0,undefined,0,0,378,166266,755058
30,19,female,Belgian,1,18,ITC,neutral,5,right,3,ITC_collect,319,k,0,0,378,165945,755379
30,19,female,Belgian,1,18,ITC,neutral,5,right,3,ITC_outcome,0,undefined,0,0,398,164941,756383
30,19,female,Belgian,1,19,guess,neutral,5,left,2,guess_start,815,space,0,0,398,164124,757200
30,19,female,Belgian,1,19,guess,neutral,5,left,2,guess_choice,534,j,0,0,398,163586,757738
30,19,female,Belgian,1,19,guess,neutral,5,left,2,guess_outcome,0,undefined,0,0,398,162028,759296
30,19,female,Belgian,1,19,ITC,neutral,5,left,2,ITC_start,684,space,0,0,398,161343,759981
30,19,female,Belgian,1,19,ITC,neutral,5,left,2,ITC_choice,614,f,0,0,398,160727,760597
30,19,female,Belgian,1,19,ITC,neutral,5,left,2,ITC_wait,0,undefined,0,0,398,155720,765604
30,19,female,Belgian,1,19,ITC,neutral,5,left,2,ITC_collect,386,k,0,0,398,155331,765993
30,19,female,Belgian,1,19,ITC,neutral,5,left,2,ITC_outcome,0,undefined,0,0,418,154319,767005
30,19,female,Belgian,1,20,guess,win,10,right,3,guess_start,550,space,0,0,418,153767,767557
30,19,female,Belgian,1,20,guess,win,10,right,3,guess_choice,835,j,0,0,418,152927,768397
30,19,female,Belgian,1,20,guess,win,10,right,3,guess_outcome,0,undefined,0,0,438,151364,769960
30,19,female,Belgian,1,20,ITC,win,10,right,3,ITC_start,675,space,0,0,438,150688,770636
30,19,female,Belgian,1,20,ITC,win,10,right,3,ITC_choice,731,j,0,0,438,149955,771369
30,19,female,Belgian,1,20,ITC,win,10,right,3,ITC_wait,0,undefined,0,0,438,139946,781378
30,19,female,Belgian,1,20,ITC,win,10,right,3,ITC_collect,278,k,0,0,438,139666,781658
30,19,female,Belgian,1,20,ITC,win,10,right,3,ITC_outcome,0,undefined,0,0,458,138650,782674
30,19,female,Belgian,1,21,guess,win,5,left,13,guess_start,528,space,0,0,458,138121,783203
30,19,female,Belgian,1,21,guess,win,5,left,13,guess_choice,543,f,0,0,458,137573,783751
30,19,female,Belgian,1,21,guess,win,5,left,13,guess_outcome,0,undefined,0,0,478,136004,785320
30,19,female,Belgian,1,21,ITC,win,5,left,13,ITC_start,623,space,0,0,478,135379,785945
30,19,female,Belgian,1,21,ITC,win,5,left,13,ITC_choice,1470,j,0,0,478,133907,787417
30,19,female,Belgian,1,21,ITC,win,5,left,13,ITC_wait,0,undefined,0,0,478,133904,787420
30,19,female,Belgian,1,21,ITC,win,5,left,13,ITC_collect,911,k,0,0,478,132991,788333
30,19,female,Belgian,1,21,ITC,win,5,left,13,ITC_outcome,0,undefined,0,0,491,131988,789336
30,19,female,Belgian,1,22,guess,win,5,left,2,guess_start,829,space,0,0,491,131156,790168
30,19,female,Belgian,1,22,guess,win,5,left,2,guess_choice,654,f,0,0,491,130499,790825
30,19,female,Belgian,1,22,guess,win,5,left,2,guess_outcome,0,undefined,0,0,511,128930,792394
30,19,female,Belgian,1,22,ITC,win,5,left,2,ITC_start,530,space,0,0,511,128398,792926
30,19,female,Belgian,1,22,ITC,win,5,left,2,ITC_choice,870,f,0,0,511,127526,793798
30,19,female,Belgian,1,22,ITC,win,5,left,2,ITC_wait,0,undefined,0,0,511,122511,798813
30,19,female,Belgian,1,22,ITC,win,5,left,2,ITC_collect,342,k,0,0,511,122166,799158
30,19,female,Belgian,1,22,ITC,win,5,left,2,ITC_outcome,0,undefined,0,0,531,121154,800170
30,19,female,Belgian,1,23,guess,win,5,right,15,guess_start,489,space,0,0,531,120662,800662
30,19,female,Belgian,1,23,guess,win,5,right,15,guess_choice,450,f,0,0,531,120208,801116
30,19,female,Belgian,1,23,guess,win,5,right,15,guess_outcome,0,undefined,0,0,551,118644,802680
30,19,female,Belgian,1,23,ITC,win,5,right,15,ITC_start,456,space,0,0,551,118186,803138
30,19,female,Belgian,1,23,ITC,win,5,right,15,ITC_choice,1298,f,0,0,551,116887,804437
30,19,female,Belgian,1,23,ITC,win,5,right,15,ITC_wait,0,undefined,0,0,551,116883,804441
30,19,female,Belgian,1,23,ITC,win,5,right,15,ITC_collect,746,k,0,0,551,116135,805189
30,19,female,Belgian,1,23,ITC,win,5,right,15,ITC_outcome,0,undefined,0,0,566,115124,806200
30,19,female,Belgian,1,24,guess,loss,5,left,1,guess_start,454,space,0,0,566,114667,806657
30,19,female,Belgian,1,24,guess,loss,5,left,1,guess_choice,444,f,0,0,566,114219,807105
30,19,female,Belgian,1,24,guess,loss,5,left,1,guess_outcome,0,undefined,0,0,551,112650,808674
30,19,female,Belgian,1,24,ITC,loss,5,left,1,ITC_start,524,space,0,0,551,112124,809200
30,19,female,Belgian,1,24,ITC,loss,5,left,1,ITC_choice,630,f,0,0,551,111492,809832
30,19,female,Belgian,1,24,ITC,loss,5,left,1,ITC_wait,0,undefined,0,0,551,106478,814846
30,19,female,Belgian,1,24,ITC,loss,5,left,1,ITC_collect,450,k,0,0,551,106025,815299
30,19,female,Belgian,1,24,ITC,loss,5,left,1,ITC_outcome,0,undefined,0,0,571,105013,816311
30,19,female,Belgian,1,25,guess,loss,10,left,5,guess_start,475,space,0,0,571,104537,816787
30,19,female,Belgian,1,25,guess,loss,10,left,5,guess_choice,570,j,0,0,571,103965,817359
30,19,female,Belgian,1,25,guess,loss,10,left,5,guess_outcome,0,undefined,0,0,556,102406,818918
30,19,female,Belgian,1,25,ITC,loss,10,left,5,ITC_start,1158,space,0,0,556,101245,820079
30,19,female,Belgian,1,25,ITC,loss,10,left,5,ITC_choice,562,f,0,0,556,100681,820643
30,19,female,Belgian,1,25,ITC,loss,10,left,5,ITC_wait,0,undefined,0,0,556,90678,830646
30,19,female,Belgian,1,25,ITC,loss,10,left,5,ITC_collect,294,k,0,0,556,90381,830943
30,19,female,Belgian,1,25,ITC,loss,10,left,5,ITC_outcome,0,undefined,0,0,576,89368,831956
30,19,female,Belgian,1,26,guess,neutral,10,right,4,guess_start,825,space,0,0,576,88541,832783
30,19,female,Belgian,1,26,guess,neutral,10,right,4,guess_choice,465,f,0,0,576,88071,833253
30,19,female,Belgian,1,26,guess,neutral,10,right,4,guess_outcome,0,undefined,0,0,576,86503,834821
30,19,female,Belgian,1,26,ITC,neutral,10,right,4,ITC_start,1531,space,0,0,576,84968,836356
30,19,female,Belgian,1,26,ITC,neutral,10,right,4,ITC_choice,1419,j,0,0,576,83547,837777
30,19,female,Belgian,1,26,ITC,neutral,10,right,4,ITC_wait,0,undefined,0,0,576,73534,847790
30,19,female,Belgian,1,26,ITC,neutral,10,right,4,ITC_collect,317,k,0,0,576,73216,848108
30,19,female,Belgian,1,26,ITC,neutral,10,right,4,ITC_outcome,0,undefined,0,0,596,72203,849121
30,19,female,Belgian,1,27,guess,loss,5,right,9,guess_start,518,space,0,0,596,71684,849640
30,19,female,Belgian,1,27,guess,loss,5,right,9,guess_choice,731,f,0,0,596,70951,850373
30,19,female,Belgian,1,27,guess,loss,5,right,9,guess_outcome,0,undefined,0,0,581,69390,851934
30,19,female,Belgian,1,27,ITC,loss,5,right,9,ITC_start,646,space,0,0,581,68743,852581
30,19,female,Belgian,1,27,ITC,loss,5,right,9,ITC_choice,849,j,0,0,581,67893,853431
30,19,female,Belgian,1,27,ITC,loss,5,right,9,ITC_wait,0,undefined,0,0,581,62885,858439
30,19,female,Belgian,1,27,ITC,loss,5,right,9,ITC_collect,685,k,0,0,581,62198,859126
30,19,female,Belgian,1,27,ITC,loss,5,right,9,ITC_outcome,0,undefined,0,0,601,61187,860137
30,19,female,Belgian,1,28,guess,neutral,5,left,1,guess_start,424,space,0,0,601,60762,860562
30,19,female,Belgian,1,28,guess,neutral,5,left,1,guess_choice,663,j,0,0,601,60096,861228
30,19,female,Belgian,1,28,guess,neutral,5,left,1,guess_outcome,0,undefined,0,0,601,58534,862790
30,19,female,Belgian,1,28,ITC,neutral,5,left,1,ITC_start,514,space,0,0,601,58019,863305
30,19,female,Belgian,1,28,ITC,neutral,5,left,1,ITC_choice,713,f,0,0,601,57304,864020
30,19,female,Belgian,1,28,ITC,neutral,5,left,1,ITC_wait,0,undefined,0,0,601,52297,869027
30,19,female,Belgian,1,28,ITC,neutral,5,left,1,ITC_collect,449,k,0,0,601,51846,869478
30,19,female,Belgian,1,28,ITC,neutral,5,left,1,ITC_outcome,0,undefined,0,0,621,50832,870492
30,19,female,Belgian,1,29,guess,loss,5,left,14,guess_start,562,space,0,0,621,50269,871055
30,19,female,Belgian,1,29,guess,loss,5,left,14,guess_choice,621,j,0,0,621,49645,871679
30,19,female,Belgian,1,29,guess,loss,5,left,14,guess_outcome,0,undefined,0,0,606,48079,873245
30,19,female,Belgian,1,29,ITC,loss,5,left,14,ITC_start,750,space,0,0,606,47326,873998
30,19,female,Belgian,1,29,ITC,loss,5,left,14,ITC_choice,911,j,0,0,606,46414,874910
30,19,female,Belgian,1,29,ITC,loss,5,left,14,ITC_wait,0,undefined,0,0,606,46410,874914
30,19,female,Belgian,1,29,ITC,loss,5,left,14,ITC_collect,1734,k,0,0,606,44675,876649
30,19,female,Belgian,1,29,ITC,loss,5,left,14,ITC_outcome,0,undefined,0,0,620,43658,877666
30,19,female,Belgian,1,30,guess,loss,10,right,4,guess_start,634,space,0,0,620,43021,878303
30,19,female,Belgian,1,30,guess,loss,10,right,4,guess_choice,474,f,0,0,620,42543,878781
30,19,female,Belgian,1,30,guess,loss,10,right,4,guess_outcome,0,undefined,0,0,605,40987,880337
30,19,female,Belgian,1,30,ITC,loss,10,right,4,ITC_start,472,space,0,0,605,40513,880811
30,19,female,Belgian,1,30,ITC,loss,10,right,4,ITC_choice,1261,j,0,0,605,39250,882074
30,19,female,Belgian,1,30,ITC,loss,10,right,4,ITC_wait,0,undefined,0,0,605,29246,892078
30,19,female,Belgian,1,30,ITC,loss,10,right,4,ITC_collect,310,k,0,0,605,28934,892390
30,19,female,Belgian,1,30,ITC,loss,10,right,4,ITC_outcome,0,undefined,0,0,625,27921,893403
30,19,female,Belgian,1,31,guess,neutral,10,left,1,guess_start,449,space,0,0,625,27469,893855
30,19,female,Belgian,1,31,guess,neutral,10,left,1,guess_choice,683,j,0,0,625,26784,894540
30,19,female,Belgian,1,31,guess,neutral,10,left,1,guess_outcome,0,undefined,0,0,625,25228,896096
30,19,female,Belgian,1,31,ITC,neutral,10,left,1,ITC_start,676,space,0,0,625,24550,896774
30,19,female,Belgian,1,31,ITC,neutral,10,left,1,ITC_choice,538,f,0,0,625,24010,897314
30,19,female,Belgian,1,31,ITC,neutral,10,left,1,ITC_wait,0,undefined,0,0,625,14001,907323
30,19,female,Belgian,1,31,ITC,neutral,10,left,1,ITC_collect,361,k,0,0,625,13637,907687
30,19,female,Belgian,1,31,ITC,neutral,10,left,1,ITC_outcome,0,undefined,0,0,645,12634,908690
30,19,female,Belgian,1,32,guess,neutral,10,right,7,guess_start,849,space,0,0,645,11782,909542
30,19,female,Belgian,1,32,guess,neutral,10,right,7,guess_choice,475,f,0,0,645,11303,910021
30,19,female,Belgian,1,32,guess,neutral,10,right,7,guess_outcome,0,undefined,0,0,645,9740,911584
30,19,female,Belgian,1,32,ITC,neutral,10,right,7,ITC_start,878,space,0,0,645,8861,912463
30,19,female,Belgian,1,32,ITC,neutral,10,right,7,ITC_choice,698,j,0,0,645,8161,913163
30,19,female,Belgian,1,32,ITC,neutral,10,right,7,ITC_wait,0,undefined,0,0,645,-10,921334
30,19,female,Belgian,2,33,guess,loss,5,left,15,guess_start,860,space,0,0,0,479138,930783
30,19,female,Belgian,2,33,guess,loss,5,left,15,guess_choice,698,f,0,0,0,478436,931485
30,19,female,Belgian,2,33,guess,loss,5,left,15,guess_outcome,0,undefined,0,0,-15,476880,933041
30,19,female,Belgian,2,33,ITC,loss,5,left,15,ITC_start,1692,space,0,0,-15,475185,934736
30,19,female,Belgian,2,33,ITC,loss,5,left,15,ITC_choice,1153,j,0,0,-15,474030,935891
30,19,female,Belgian,2,33,ITC,loss,5,left,15,ITC_wait,0,undefined,0,0,-15,474027,935894
30,19,female,Belgian,2,33,ITC,loss,5,left,15,ITC_collect,853,k,0,0,-15,473173,936748
30,19,female,Belgian,2,33,ITC,loss,5,left,15,ITC_outcome,0,undefined,0,0,0,472160,937761
30,19,female,Belgian,2,34,guess,neutral,10,right,3,guess_start,942,space,0,0,0,471216,938705
30,19,female,Belgian,2,34,guess,neutral,10,right,3,guess_choice,491,f,0,0,0,470721,939200
30,19,female,Belgian,2,34,guess,neutral,10,right,3,guess_outcome,0,undefined,0,0,0,469156,940765
30,19,female,Belgian,2,34,ITC,neutral,10,right,3,ITC_start,603,space,0,0,0,468552,941369
30,19,female,Belgian,2,34,ITC,neutral,10,right,3,ITC_choice,671,j,0,0,0,467878,942043
30,19,female,Belgian,2,34,ITC,neutral,10,right,3,ITC_wait,0,undefined,0,0,0,457876,952045
30,19,female,Belgian,2,34,ITC,neutral,10,right,3,ITC_collect,303,k,0,0,0,457571,952350
30,19,female,Belgian,2,34,ITC,neutral,10,right,3,ITC_outcome,0,undefined,0,0,20,456565,953356
30,19,female,Belgian,2,35,guess,loss,5,left,12,guess_start,499,space,0,0,20,456064,953857
30,19,female,Belgian,2,35,guess,loss,5,left,12,guess_choice,519,j,0,0,20,455540,954381
30,19,female,Belgian,2,35,guess,loss,5,left,12,guess_outcome,0,undefined,0,0,5,453979,955942
30,19,female,Belgian,2,35,ITC,loss,5,left,12,ITC_start,952,space,0,0,5,453026,956895
30,19,female,Belgian,2,35,ITC,loss,5,left,12,ITC_choice,979,f,0,0,5,452045,957876
30,19,female,Belgian,2,35,ITC,loss,5,left,12,ITC_wait,0,undefined,0,0,5,447039,962882
30,19,female,Belgian,2,35,ITC,loss,5,left,12,ITC_collect,1316,k,0,0,5,445720,964201
30,19,female,Belgian,2,35,ITC,loss,5,left,12,ITC_outcome,0,undefined,0,0,25,444702,965219
30,19,female,Belgian,2,36,guess,win,10,right,6,guess_start,470,space,0,0,25,444229,965692
30,19,female,Belgian,2,36,guess,win,10,right,6,guess_choice,581,j,0,0,25,443645,966276
30,19,female,Belgian,2,36,guess,win,10,right,6,guess_outcome,0,undefined,0,0,45,442075,967846
30,19,female,Belgian,2,36,ITC,win,10,right,6,ITC_start,649,space,0,0,45,441425,968496
30,19,female,Belgian,2,36,ITC,win,10,right,6,ITC_choice,660,j,0,0,45,440764,969157
30,19,female,Belgian,2,36,ITC,win,10,right,6,ITC_wait,0,undefined,0,0,45,430761,979160
30,19,female,Belgian,2,36,ITC,win,10,right,6,ITC_collect,342,k,0,0,45,430417,979504
30,19,female,Belgian,2,36,ITC,win,10,right,6,ITC_outcome,0,undefined,0,0,65,429409,980512
30,19,female,Belgian,2,37,guess,win,5,left,7,guess_start,393,space,0,0,65,429014,980907
30,19,female,Belgian,2,37,guess,win,5,left,7,guess_choice,519,f,0,0,65,428492,981429
30,19,female,Belgian,2,37,guess,win,5,left,7,guess_outcome,0,undefined,0,0,85,426937,982984
30,19,female,Belgian,2,37,ITC,win,5,left,7,ITC_start,825,space,0,0,85,426111,983810
30,19,female,Belgian,2,37,ITC,win,5,left,7,ITC_choice,1330,f,0,0,85,424779,985142
30,19,female,Belgian,2,37,ITC,win,5,left,7,ITC_wait,0,undefined,0,0,85,419770,990151
30,19,female,Belgian,2,37,ITC,win,5,left,7,ITC_collect,741,k,0,0,85,419028,990893
30,19,female,Belgian,2,37,ITC,win,5,left,7,ITC_outcome,0,undefined,0,0,105,418021,991900
30,19,female,Belgian,2,38,guess,loss,5,left,6,guess_start,630,space,0,0,105,417389,992532
30,19,female,Belgian,2,38,guess,loss,5,left,6,guess_choice,687,j,0,0,105,416698,993223
30,19,female,Belgian,2,38,guess,loss,5,left,6,guess_outcome,0,undefined,0,0,90,415130,994791
30,19,female,Belgian,2,38,ITC,loss,5,left,6,ITC_start,1279,space,0,0,90,413848,996073
30,19,female,Belgian,2,38,ITC,loss,5,left,6,ITC_choice,632,f,0,0,90,413214,996707
30,19,female,Belgian,2,38,ITC,loss,5,left,6,ITC_wait,0,undefined,0,0,90,408199,1001722
30,19,female,Belgian,2,38,ITC,loss,5,left,6,ITC_collect,339,k,0,0,90,407858,1002063
30,19,female,Belgian,2,38,ITC,loss,5,left,6,ITC_outcome,0,undefined,0,0,110,406845,1003076
30,19,female,Belgian,2,39,guess,loss,5,right,8,guess_start,456,space,0,0,110,406386,1003535
30,19,female,Belgian,2,39,guess,loss,5,right,8,guess_choice,764,j,0,0,110,405618,1004303
30,19,female,Belgian,2,39,guess,loss,5,right,8,guess_outcome,0,undefined,0,0,95,404055,1005866
30,19,female,Belgian,2,39,ITC,loss,5,right,8,ITC_start,727,space,0,0,95,403326,1006595
30,19,female,Belgian,2,39,ITC,loss,5,right,8,ITC_choice,842,j,0,0,95,402482,1007439
30,19,female,Belgian,2,39,ITC,loss,5,right,8,ITC_wait,0,undefined,0,0,95,397467,1012454
30,19,female,Belgian,2,39,ITC,loss,5,right,8,ITC_collect,749,k,0,0,95,396716,1013205
30,19,female,Belgian,2,39,ITC,loss,5,right,8,ITC_outcome,0,undefined,0,0,115,395707,1014214
30,19,female,Belgian,2,40,guess,win,5,right,10,guess_start,434,space,0,0,115,395272,1014649
30,19,female,Belgian,2,40,guess,win,5,right,10,guess_choice,714,f,0,0,115,394553,1015368
30,19,female,Belgian,2,40,guess,win,5,right,10,guess_outcome,0,undefined,0,0,135,392996,1016925
30,19,female,Belgian,2,40,ITC,win,5,right,10,ITC_start,608,space,0,0,135,392386,1017535
30,19,female,Belgian,2,40,ITC,win,5,right,10,ITC_choice,712,j,0,0,135,391672,1018249
30,19,female,Belgian,2,40,ITC,win,5,right,10,ITC_wait,0,undefined,0,0,135,386668,1023253
30,19,female,Belgian,2,40,ITC,win,5,right,10,ITC_collect,345,k,0,0,135,386321,1023600
30,19,female,Belgian,2,40,ITC,win,5,right,10,ITC_outcome,0,undefined,0,0,155,385314,1024607
30,19,female,Belgian,2,41,guess,neutral,10,right,5,guess_start,413,space,0,0,155,384898,1025023
30,19,female,Belgian,2,41,guess,neutral,10,right,5,guess_choice,525,j,0,0,155,384370,1025551
30,19,female,Belgian,2,41,guess,neutral,10,right,5,guess_outcome,0,undefined,0,0,155,382807,1027114
30,19,female,Belgian,2,41,ITC,neutral,10,right,5,ITC_start,492,space,0,0,155,382313,1027608
30,19,female,Belgian,2,41,ITC,neutral,10,right,5,ITC_choice,678,j,0,0,155,381634,1028287
30,19,female,Belgian,2,41,ITC,neutral,10,right,5,ITC_wait,0,undefined,0,0,155,371627,1038294
30,19,female,Belgian,2,41,ITC,neutral,10,right,5,ITC_collect,334,k,0,0,155,371291,1038630
30,19,female,Belgian,2,41,ITC,neutral,10,right,5,ITC_outcome,0,undefined,0,0,175,370275,1039646
30,19,female,Belgian,2,42,guess,neutral,5,left,8,guess_start,409,space,0,0,175,369863,1040058
30,19,female,Belgian,2,42,guess,neutral,5,left,8,guess_choice,479,j,0,0,175,369380,1040541
30,19,female,Belgian,2,42,guess,neutral,5,left,8,guess_outcome,0,undefined,0,0,175,367825,1042096
30,19,female,Belgian,2,42,ITC,neutral,5,left,8,ITC_start,349,space,0,0,175,367475,1042446
30,19,female,Belgian,2,42,ITC,neutral,5,left,8,ITC_choice,745,f,0,0,175,366728,1043193
30,19,female,Belgian,2,42,ITC,neutral,5,left,8,ITC_wait,0,undefined,0,0,175,361725,1048196
30,19,female,Belgian,2,42,ITC,neutral,5,left,8,ITC_collect,312,k,0,0,175,361411,1048510
30,19,female,Belgian,2,42,ITC,neutral,5,left,8,ITC_outcome,0,undefined,0,0,195,360401,1049520
30,19,female,Belgian,2,43,guess,loss,5,left,2,guess_start,423,space,0,0,195,359975,1049946
30,19,female,Belgian,2,43,guess,loss,5,left,2,guess_choice,560,f,0,0,195,359412,1050509
30,19,female,Belgian,2,43,guess,loss,5,left,2,guess_outcome,0,undefined,0,0,180,357849,1052072
30,19,female,Belgian,2,43,ITC,loss,5,left,2,ITC_start,908,space,0,0,180,356939,1052982
30,19,female,Belgian,2,43,ITC,loss,5,left,2,ITC_choice,888,f,0,0,180,356049,1053872
30,19,female,Belgian,2,43,ITC,loss,5,left,2,ITC_wait,0,undefined,0,0,180,351037,1058884
30,19,female,Belgian,2,43,ITC,loss,5,left,2,ITC_collect,273,k,0,0,180,350762,1059159
30,19,female,Belgian,2,43,ITC,loss,5,left,2,ITC_outcome,0,undefined,0,0,200,349743,1060178
30,19,female,Belgian,2,44,guess,neutral,5,left,7,guess_start,609,space,0,0,200,349132,1060789
30,19,female,Belgian,2,44,guess,neutral,5,left,7,guess_choice,469,j,0,0,200,348659,1061262
30,19,female,Belgian,2,44,guess,neutral,5,left,7,guess_outcome,0,undefined,0,0,200,347099,1062822
30,19,female,Belgian,2,44,ITC,neutral,5,left,7,ITC_start,597,space,0,0,200,346500,1063421
30,19,female,Belgian,2,44,ITC,neutral,5,left,7,ITC_choice,820,f,0,0,200,345678,1064243
30,19,female,Belgian,2,44,ITC,neutral,5,left,7,ITC_wait,0,undefined,0,0,200,340669,1069252
30,19,female,Belgian,2,44,ITC,neutral,5,left,7,ITC_collect,287,k,0,0,200,340380,1069541
30,19,female,Belgian,2,44,ITC,neutral,5,left,7,ITC_outcome,0,undefined,0,0,220,339376,1070545
30,19,female,Belgian,2,45,guess,neutral,5,left,15,guess_start,472,space,0,0,220,338901,1071020
30,19,female,Belgian,2,45,guess,neutral,5,left,15,guess_choice,438,j,0,0,220,338459,1071462
30,19,female,Belgian,2,45,guess,neutral,5,left,15,guess_outcome,0,undefined,0,0,220,336902,1073019
30,19,female,Belgian,2,45,ITC,neutral,5,left,15,ITC_start,509,space,0,0,220,336391,1073530
30,19,female,Belgian,2,45,ITC,neutral,5,left,15,ITC_choice,823,j,0,0,220,335565,1074356
30,19,female,Belgian,2,45,ITC,neutral,5,left,15,ITC_wait,0,undefined,0,0,220,335562,1074359
30,19,female,Belgian,2,45,ITC,neutral,5,left,15,ITC_collect,859,k,0,0,220,334701,1075220
30,19,female,Belgian,2,45,ITC,neutral,5,left,15,ITC_outcome,0,undefined,0,0,235,333696,1076225
30,19,female,Belgian,2,46,guess,win,5,left,4,guess_start,524,space,0,0,235,333168,1076753
30,19,female,Belgian,2,46,guess,win,5,left,4,guess_choice,587,f,0,0,235,332577,1077344
30,19,female,Belgian,2,46,guess,win,5,left,4,guess_outcome,0,undefined,0,0,255,331016,1078905
30,19,female,Belgian,2,46,ITC,win,5,left,4,ITC_start,516,space,0,0,255,330498,1079423
30,19,female,Belgian,2,46,ITC,win,5,left,4,ITC_choice,929,f,0,0,255,329567,1080354
30,19,female,Belgian,2,46,ITC,win,5,left,4,ITC_wait,0,undefined,0,0,255,324553,1085368
30,19,female,Belgian,2,46,ITC,win,5,left,4,ITC_collect,265,k,0,0,255,324286,1085635
30,19,female,Belgian,2,46,ITC,win,5,left,4,ITC_outcome,0,undefined,0,0,275,323278,1086643
30,19,female,Belgian,2,47,guess,loss,5,left,4,guess_start,520,space,0,0,275,322756,1087165
30,19,female,Belgian,2,47,guess,loss,5,left,4,guess_choice,489,j,0,0,275,322264,1087657
30,19,female,Belgian,2,47,guess,loss,5,left,4,guess_outcome,0,undefined,0,0,260,320705,1089216
30,19,female,Belgian,2,47,ITC,loss,5,left,4,ITC_start,584,space,0,0,260,320118,1089803
30,19,female,Belgian,2,47,ITC,loss,5,left,4,ITC_choice,588,f,0,0,260,319528,1090393
30,19,female,Belgian,2,47,ITC,loss,5,left,4,ITC_wait,0,undefined,0,0,260,314522,1095399
30,19,female,Belgian,2,47,ITC,loss,5,left,4,ITC_collect,319,k,0,0,260,314199,1095722
30,19,female,Belgian,2,47,ITC,loss,5,left,4,ITC_outcome,0,undefined,0,0,280,313183,1096738
30,19,female,Belgian,2,48,guess,win,5,right,1,guess_start,476,space,0,0,280,312705,1097216
30,19,female,Belgian,2,48,guess,win,5,right,1,guess_choice,592,f,0,0,280,312108,1097813
30,19,female,Belgian,2,48,guess,win,5,right,1,guess_outcome,0,undefined,0,0,300,310552,1099369
30,19,female,Belgian,2,48,ITC,win,5,right,1,ITC_start,706,space,0,0,300,309844,1100077
30,19,female,Belgian,2,48,ITC,win,5,right,1,ITC_choice,967,j,0,0,300,308876,1101045
30,19,female,Belgian,2,48,ITC,win,5,right,1,ITC_wait,0,undefined,0,0,300,303869,1106052
30,19,female,Belgian,2,48,ITC,win,5,right,1,ITC_collect,504,k,0,0,300,303363,1106558
30,19,female,Belgian,2,48,ITC,win,5,right,1,ITC_outcome,0,undefined,0,0,320,302344,1107577
30,19,female,Belgian,2,49,guess,win,5,right,6,guess_start,404,space,0,0,320,301939,1107982
30,19,female,Belgian,2,49,guess,win,5,right,6,guess_choice,563,f,0,0,320,301371,1108550
30,19,female,Belgian,2,49,guess,win,5,right,6,guess_outcome,0,undefined,0,0,340,299806,1110115
30,19,female,Belgian,2,49,ITC,win,5,right,6,ITC_start,532,space,0,0,340,299273,1110648
30,19,female,Belgian,2,49,ITC,win,5,right,6,ITC_choice,771,j,0,0,340,298501,1111420
30,19,female,Belgian,2,49,ITC,win,5,right,6,ITC_wait,0,undefined,0,0,340,293492,1116429
30,19,female,Belgian,2,49,ITC,win,5,right,6,ITC_collect,797,k,0,0,340,292693,1117228
30,19,female,Belgian,2,49,ITC,win,5,right,6,ITC_outcome,0,undefined,0,0,360,291683,1118238
30,19,female,Belgian,2,50,guess,neutral,10,left,2,guess_start,363,space,0,0,360,291319,1118602
30,19,female,Belgian,2,50,guess,neutral,10,left,2,guess_choice,516,j,0,0,360,290799,1119122
30,19,female,Belgian,2,50,guess,neutral,10,left,2,guess_outcome,0,undefined,0,0,360,289240,1120681
30,19,female,Belgian,2,50,ITC,neutral,10,left,2,ITC_start,522,space,0,0,360,288716,1121205
30,19,female,Belgian,2,50,ITC,neutral,10,left,2,ITC_choice,529,f,0,0,360,288185,1121736
30,19,female,Belgian,2,50,ITC,neutral,10,left,2,ITC_wait,0,undefined,0,0,360,278167,1131754
30,19,female,Belgian,2,50,ITC,neutral,10,left,2,ITC_collect,335,k,0,0,360,277829,1132092
30,19,female,Belgian,2,50,ITC,neutral,10,left,2,ITC_outcome,0,undefined,0,0,380,276811,1133110
30,19,female,Belgian,2,51,guess,loss,5,left,13,guess_start,518,space,0,0,380,276291,1133630
30,19,female,Belgian,2,51,guess,loss,5,left,13,guess_choice,481,j,0,0,380,275807,1134114
30,19,female,Belgian,2,51,guess,loss,5,left,13,guess_outcome,0,undefined,0,0,365,274247,1135674
30,19,female,Belgian,2,51,ITC,loss,5,left,13,ITC_start,1070,space,0,0,365,273175,1136746
30,19,female,Belgian,2,51,ITC,loss,5,left,13,ITC_choice,795,j,0,0,365,272378,1137543
30,19,female,Belgian,2,51,ITC,loss,5,left,13,ITC_wait,0,undefined,0,0,365,272374,1137547
30,19,female,Belgian,2,51,ITC,loss,5,left,13,ITC_collect,731,k,0,0,365,271642,1138279
30,19,female,Belgian,2,51,ITC,loss,5,left,13,ITC_outcome,0,undefined,0,0,378,270632,1139289
30,19,female,Belgian,2,52,guess,win,5,right,3,guess_start,502,space,0,0,378,270128,1139793
30,19,female,Belgian,2,52,guess,win,5,right,3,guess_choice,408,f,0,0,378,269716,1140205
30,19,female,Belgian,2,52,guess,win,5,right,3,guess_outcome,0,undefined,0,0,398,268160,1141761
30,19,female,Belgian,2,52,ITC,win,5,right,3,ITC_start,602,space,0,0,398,267556,1142365
30,19,female,Belgian,2,52,ITC,win,5,right,3,ITC_choice,1120,j,0,0,398,266434,1143487
30,19,female,Belgian,2,52,ITC,win,5,right,3,ITC_wait,0,undefined,0,0,398,261424,1148497
30,19,female,Belgian,2,52,ITC,win,5,right,3,ITC_collect,326,k,0,0,398,261096,1148825
30,19,female,Belgian,2,52,ITC,win,5,right,3,ITC_outcome,0,undefined,0,0,418,260087,1149834
30,19,female,Belgian,2,53,guess,win,5,right,11,guess_start,558,space,0,0,418,259528,1150393
30,19,female,Belgian,2,53,guess,win,5,right,11,guess_choice,542,f,0,0,418,258981,1150940
30,19,female,Belgian,2,53,guess,win,5,right,11,guess_outcome,0,undefined,0,0,438,257422,1152499
30,19,female,Belgian,2,53,ITC,win,5,right,11,ITC_start,682,space,0,0,438,256738,1153183
30,19,female,Belgian,2,53,ITC,win,5,right,11,ITC_choice,659,j,0,0,438,256076,1153845
30,19,female,Belgian,2,53,ITC,win,5,right,11,ITC_wait,0,undefined,0,0,438,251064,1158857
30,19,female,Belgian,2,53,ITC,win,5,right,11,ITC_collect,348,k,0,0,438,250713,1159208
30,19,female,Belgian,2,53,ITC,win,5,right,11,ITC_outcome,0,undefined,0,0,458,249708,1160213
30,19,female,Belgian,2,54,guess,neutral,5,left,9,guess_start,350,space,0,0,458,249355,1160566
30,19,female,Belgian,2,54,guess,neutral,5,left,9,guess_choice,338,f,0,0,458,249013,1160908
30,19,female,Belgian,2,54,guess,neutral,5,left,9,guess_outcome,0,undefined,0,0,458,247447,1162474
30,19,female,Belgian,2,54,ITC,neutral,5,left,9,ITC_start,637,space,0,0,458,246809,1163112
30,19,female,Belgian,2,54,ITC,neutral,5,left,9,ITC_choice,875,f,0,0,458,245931,1163990
30,19,female,Belgian,2,54,ITC,neutral,5,left,9,ITC_wait,0,undefined,0,0,458,240916,1169005
30,19,female,Belgian,2,54,ITC,neutral,5,left,9,ITC_collect,438,k,0,0,458,240476,1169445
30,19,female,Belgian,2,54,ITC,neutral,5,left,9,ITC_outcome,0,undefined,0,0,478,239469,1170452
30,19,female,Belgian,2,55,guess,neutral,5,right,12,guess_start,414,space,0,0,478,239052,1170869
30,19,female,Belgian,2,55,guess,neutral,5,right,12,guess_choice,436,f,0,0,478,238611,1171310
30,19,female,Belgian,2,55,guess,neutral,5,right,12,guess_outcome,0,undefined,0,0,478,237054,1172867
30,19,female,Belgian,2,55,ITC,neutral,5,right,12,ITC_start,481,space,0,0,478,236571,1173350
30,19,female,Belgian,2,55,ITC,neutral,5,right,12,ITC_choice,798,f,0,0,478,235772,1174149
30,19,female,Belgian,2,55,ITC,neutral,5,right,12,ITC_wait,0,undefined,0,0,478,235769,1174152
30,19,female,Belgian,2,55,ITC,neutral,5,right,12,ITC_collect,1027,k,0,0,478,234741,1175180
30,19,female,Belgian,2,55,ITC,neutral,5,right,12,ITC_outcome,0,undefined,0,0,490,233739,1176182
30,19,female,Belgian,2,56,guess,neutral,10,left,8,guess_start,446,space,0,0,490,233290,1176631
30,19,female,Belgian,2,56,guess,neutral,10,left,8,guess_choice,397,f,0,0,490,232888,1177033
30,19,female,Belgian,2,56,guess,neutral,10,left,8,guess_outcome,0,undefined,0,0,490,231321,1178600
30,19,female,Belgian,2,56,ITC,neutral,10,left,8,ITC_start,550,space,0,0,490,230769,1179152
30,19,female,Belgian,2,56,ITC,neutral,10,left,8,ITC_choice,701,f,0,0,490,230066,1179855
30,19,female,Belgian,2,56,ITC,neutral,10,left,8,ITC_wait,0,undefined,0,0,490,220052,1189869
30,19,female,Belgian,2,56,ITC,neutral,10,left,8,ITC_collect,352,k,0,0,490,219698,1190223
30,19,female,Belgian,2,56,ITC,neutral,10,left,8,ITC_outcome,0,undefined,0,0,510,218686,1191235
30,19,female,Belgian,2,57,guess,win,10,left,4,guess_start,554,space,0,0,510,218129,1191792
30,19,female,Belgian,2,57,guess,win,10,left,4,guess_choice,571,f,0,0,510,217554,1192367
30,19,female,Belgian,2,57,guess,win,10,left,4,guess_outcome,0,undefined,0,0,530,215991,1193930
30,19,female,Belgian,2,57,ITC,win,10,left,4,ITC_start,487,space,0,0,530,215501,1194420
30,19,female,Belgian,2,57,ITC,win,10,left,4,ITC_choice,1150,f,0,0,530,214350,1195571
30,19,female,Belgian,2,57,ITC,win,10,left,4,ITC_wait,0,undefined,0,0,530,204345,1205576
30,19,female,Belgian,2,57,ITC,win,10,left,4,ITC_collect,408,k,0,0,530,203935,1205986
30,19,female,Belgian,2,57,ITC,win,10,left,4,ITC_outcome,0,undefined,0,0,550,202931,1206990
30,19,female,Belgian,2,58,guess,neutral,5,left,4,guess_start,564,space,0,0,550,202364,1207557
30,19,female,Belgian,2,58,guess,neutral,5,left,4,guess_choice,409,f,0,0,550,201952,1207969
30,19,female,Belgian,2,58,guess,neutral,5,left,4,guess_outcome,0,undefined,0,0,550,200394,1209527
30,19,female,Belgian,2,58,ITC,neutral,5,left,4,ITC_start,793,space,0,0,550,199598,1210323
30,19,female,Belgian,2,58,ITC,neutral,5,left,4,ITC_choice,675,f,0,0,550,198922,1210999
30,19,female,Belgian,2,58,ITC,neutral,5,left,4,ITC_wait,0,undefined,0,0,550,193909,1216012
30,19,female,Belgian,2,58,ITC,neutral,5,left,4,ITC_collect,449,k,0,0,550,193457,1216464
30,19,female,Belgian,2,58,ITC,neutral,5,left,4,ITC_outcome,0,undefined,0,0,570,192444,1217477
30,19,female,Belgian,2,59,guess,neutral,5,right,16,guess_start,517,space,0,0,570,191925,1217996
30,19,female,Belgian,2,59,guess,neutral,5,right,16,guess_choice,498,j,0,0,570,191424,1218497
30,19,female,Belgian,2,59,guess,neutral,5,right,16,guess_outcome,0,undefined,0,0,570,189855,1220066
30,19,female,Belgian,2,59,ITC,neutral,5,right,16,ITC_start,423,space,0,0,570,189431,1220490
30,19,female,Belgian,2,59,ITC,neutral,5,right,16,ITC_choice,585,j,0,0,570,188843,1221078
30,19,female,Belgian,2,59,ITC,neutral,5,right,16,ITC_wait,0,undefined,0,0,570,183827,1226094
30,19,female,Belgian,2,59,ITC,neutral,5,right,16,ITC_collect,709,k,0,0,570,183114,1226807
30,19,female,Belgian,2,59,ITC,neutral,5,right,16,ITC_outcome,0,undefined,0,0,590,182096,1227825
30,19,female,Belgian,2,60,guess,win,5,left,9,guess_start,394,space,0,0,590,181700,1228221
30,19,female,Belgian,2,60,guess,win,5,left,9,guess_choice,530,f,0,0,590,181166,1228755
30,19,female,Belgian,2,60,guess,win,5,left,9,guess_outcome,0,undefined,0,0,610,179608,1230313
30,19,female,Belgian,2,60,ITC,win,5,left,9,ITC_start,495,space,0,0,610,179110,1230811
30,19,female,Belgian,2,60,ITC,win,5,left,9,ITC_choice,1045,f,0,0,610,178064,1231857
30,19,female,Belgian,2,60,ITC,win,5,left,9,ITC_wait,0,undefined,0,0,610,173058,1236863
30,19,female,Belgian,2,60,ITC,win,5,left,9,ITC_collect,305,k,0,0,610,172751,1237170
30,19,female,Belgian,2,60,ITC,win,5,left,9,ITC_outcome,0,undefined,0,0,630,171737,1238184
30,19,female,Belgian,2,61,guess,win,10,left,7,guess_start,378,space,0,0,630,171357,1238564
30,19,female,Belgian,2,61,guess,win,10,left,7,guess_choice,451,f,0,0,630,170901,1239020
30,19,female,Belgian,2,61,guess,win,10,left,7,guess_outcome,0,undefined,0,0,650,169342,1240579
30,19,female,Belgian,2,61,ITC,win,10,left,7,ITC_start,690,space,0,0,650,168650,1241271
30,19,female,Belgian,2,61,ITC,win,10,left,7,ITC_choice,665,f,0,0,650,167983,1241938
30,19,female,Belgian,2,62,guess,win,5,left,16,guess_outcome,0,undefined,0,0,690,154256,1255665
30,19,female,Belgian,2,61,ITC,win,10,left,7,ITC_wait,0,undefined,0,0,650,157977,1251944
30,19,female,Belgian,2,62,guess,win,5,left,16,guess_choice,461,f,0,0,670,155818,1254103
30,19,female,Belgian,2,62,guess,win,5,left,16,guess_start,368,space,0,0,670,156283,1253638
30,19,female,Belgian,2,61,ITC,win,10,left,7,ITC_outcome,0,undefined,0,0,670,156653,1253268
30,19,female,Belgian,2,61,ITC,win,10,left,7,ITC_collect,308,k,0,0,650,157667,1252254
30,19,female,Belgian,2,62,ITC,win,5,left,16,ITC_start,938,space,0,0,690,153315,1256606
30,19,female,Belgian,2,62,ITC,win,5,left,16,ITC_choice,811,f,0,0,690,152502,1257419
30,19,female,Belgian,2,62,ITC,win,5,left,16,ITC_wait,0,undefined,0,0,690,147499,1262422
30,19,female,Belgian,2,62,ITC,win,5,left,16,ITC_collect,640,k,0,0,690,146856,1263065
30,19,female,Belgian,2,62,ITC,win,5,left,16,ITC_outcome,0,undefined,0,0,710,145849,1264072
30,19,female,Belgian,2,63,guess,neutral,5,right,10,guess_start,442,space,0,0,710,145405,1264516
30,19,female,Belgian,2,63,guess,neutral,5,right,10,guess_choice,612,j,0,0,710,144788,1265133
30,19,female,Belgian,2,63,guess,neutral,5,right,10,guess_outcome,0,undefined,0,0,710,143227,1266694
30,19,female,Belgian,2,63,ITC,neutral,5,right,10,ITC_start,529,space,0,0,710,142696,1267225
30,19,female,Belgian,2,63,ITC,neutral,5,right,10,ITC_choice,1301,f,0,0,710,141392,1268529
30,19,female,Belgian,2,63,ITC,neutral,5,right,10,ITC_wait,0,undefined,0,0,710,141389,1268532
30,19,female,Belgian,2,63,ITC,neutral,5,right,10,ITC_collect,722,k,0,0,710,140665,1269256
30,19,female,Belgian,2,63,ITC,neutral,5,right,10,ITC_outcome,0,undefined,0,0,720,139649,1270272
30,19,female,Belgian,2,64,guess,win,5,left,12,guess_start,538,space,0,0,720,139109,1270812
30,19,female,Belgian,2,64,guess,win,5,left,12,guess_choice,439,f,0,0,720,138666,1271255
30,19,female,Belgian,2,64,guess,win,5,left,12,guess_outcome,0,undefined,0,0,740,137111,1272810
30,19,female,Belgian,2,64,ITC,win,5,left,12,ITC_start,1310,space,0,0,740,135800,1274121
30,19,female,Belgian,2,64,ITC,win,5,left,12,ITC_choice,1700,j,0,0,740,134098,1275823
30,19,female,Belgian,2,64,ITC,win,5,left,12,ITC_wait,0,undefined,0,0,740,134095,1275826
30,19,female,Belgian,2,64,ITC,win,5,left,12,ITC_collect,741,k,0,0,740,133351,1276570
30,19,female,Belgian,2,64,ITC,win,5,left,12,ITC_outcome,0,undefined,0,0,752,132336,1277585
30,19,female,Belgian,2,65,guess,loss,10,right,6,guess_start,385,space,0,0,752,131949,1277972
30,19,female,Belgian,2,65,guess,loss,10,right,6,guess_choice,1280,f,0,0,752,130664,1279257
30,19,female,Belgian,2,65,guess,loss,10,right,6,guess_outcome,0,undefined,0,0,737,129101,1280820
30,19,female,Belgian,2,65,ITC,loss,10,right,6,ITC_start,499,space,0,0,737,128600,1281321
30,19,female,Belgian,2,65,ITC,loss,10,right,6,ITC_choice,1549,j,0,0,737,127049,1282872
30,19,female,Belgian,2,65,ITC,loss,10,right,6,ITC_wait,0,undefined,0,0,737,117034,1292887
30,19,female,Belgian,2,65,ITC,loss,10,right,6,ITC_collect,350,k,0,0,737,116681,1293240
30,19,female,Belgian,2,65,ITC,loss,10,right,6,ITC_outcome,0,undefined,0,0,757,115673,1294248
30,19,female,Belgian,2,66,guess,neutral,5,right,5,guess_start,393,space,0,0,757,115278,1294643
30,19,female,Belgian,2,66,guess,neutral,5,right,5,guess_choice,507,j,0,0,757,114767,1295154
30,19,female,Belgian,2,66,guess,neutral,5,right,5,guess_outcome,0,undefined,0,0,757,113196,1296725
30,19,female,Belgian,2,66,ITC,neutral,5,right,5,ITC_start,657,space,0,0,757,112537,1297384
30,19,female,Belgian,2,66,ITC,neutral,5,right,5,ITC_choice,1025,j,0,0,757,111510,1298411
30,19,female,Belgian,2,66,ITC,neutral,5,right,5,ITC_wait,0,undefined,0,0,757,106497,1303424
30,19,female,Belgian,2,66,ITC,neutral,5,right,5,ITC_collect,389,k,0,0,757,106107,1303814
30,19,female,Belgian,2,66,ITC,neutral,5,right,5,ITC_outcome,0,undefined,0,0,777,105095,1304826
30,19,female,Belgian,2,67,guess,loss,5,right,10,guess_start,710,space,0,0,777,104383,1305538
30,19,female,Belgian,2,67,guess,loss,5,right,10,guess_choice,528,f,0,0,777,103851,1306070
30,19,female,Belgian,2,67,guess,loss,5,right,10,guess_outcome,0,undefined,0,0,762,102290,1307631
30,19,female,Belgian,2,67,ITC,loss,5,right,10,ITC_start,476,space,0,0,762,101813,1308108
30,19,female,Belgian,2,67,ITC,loss,5,right,10,ITC_choice,823,f,0,0,762,100988,1308933
30,19,female,Belgian,2,67,ITC,loss,5,right,10,ITC_wait,0,undefined,0,0,762,100985,1308936
30,19,female,Belgian,2,67,ITC,loss,5,right,10,ITC_collect,616,k,0,0,762,100366,1309555
30,19,female,Belgian,2,67,ITC,loss,5,right,10,ITC_outcome,0,undefined,0,0,772,99347,1310574
30,19,female,Belgian,2,68,guess,loss,10,right,3,guess_start,380,space,0,0,772,98965,1310956
30,19,female,Belgian,2,68,guess,loss,10,right,3,guess_choice,474,j,0,0,772,98487,1311434
30,19,female,Belgian,2,68,guess,loss,10,right,3,guess_outcome,0,undefined,0,0,757,96930,1312991
30,19,female,Belgian,2,68,ITC,loss,10,right,3,ITC_start,583,space,0,0,757,96345,1313576
30,19,female,Belgian,2,68,ITC,loss,10,right,3,ITC_choice,1113,j,0,0,757,95229,1314692
30,19,female,Belgian,2,68,ITC,loss,10,right,3,ITC_wait,0,undefined,0,0,757,85224,1324697
30,19,female,Belgian,2,68,ITC,loss,10,right,3,ITC_collect,350,k,0,0,757,84872,1325049
30,19,female,Belgian,2,68,ITC,loss,10,right,3,ITC_outcome,0,undefined,0,0,777,83854,1326067
30,19,female,Belgian,2,69,guess,neutral,5,left,13,guess_start,365,space,0,0,777,83486,1326435
30,19,female,Belgian,2,69,guess,neutral,5,left,13,guess_choice,514,j,0,0,777,82969,1326952
30,19,female,Belgian,2,69,guess,neutral,5,left,13,guess_outcome,0,undefined,0,0,777,81406,1328515
30,19,female,Belgian,2,69,ITC,neutral,5,left,13,ITC_start,612,space,0,0,777,80792,1329129
30,19,female,Belgian,2,69,ITC,neutral,5,left,13,ITC_choice,1256,j,0,0,777,79534,1330387
30,19,female,Belgian,2,69,ITC,neutral,5,left,13,ITC_wait,0,undefined,0,0,777,79530,1330391
30,19,female,Belgian,2,69,ITC,neutral,5,left,13,ITC_collect,734,k,0,0,777,78794,1331127
30,19,female,Belgian,2,69,ITC,neutral,5,left,13,ITC_outcome,0,undefined,0,0,790,77791,1332130
30,19,female,Belgian,2,70,guess,loss,10,left,8,guess_start,374,space,0,0,790,77414,1332507
30,19,female,Belgian,2,70,guess,loss,10,left,8,guess_choice,582,f,0,0,790,76828,1333093
30,19,female,Belgian,2,70,guess,loss,10,left,8,guess_outcome,0,undefined,0,0,775,75271,1334650
30,19,female,Belgian,2,70,ITC,loss,10,left,8,ITC_start,580,space,0,0,775,74689,1335232
30,19,female,Belgian,2,70,ITC,loss,10,left,8,ITC_choice,1537,f,0,0,775,73150,1336771
30,19,female,Belgian,2,70,ITC,loss,10,left,8,ITC_wait,0,undefined,0,0,775,63134,1346787
30,19,female,Belgian,2,70,ITC,loss,10,left,8,ITC_collect,290,k,0,0,775,62842,1347079
30,19,female,Belgian,2,70,ITC,loss,10,left,8,ITC_outcome,0,undefined,0,0,795,61837,1348084
30,19,female,Belgian,2,71,guess,loss,5,left,3,guess_start,416,space,0,0,795,61419,1348502
30,19,female,Belgian,2,71,guess,loss,5,left,3,guess_choice,590,j,0,0,795,60826,1349095
30,19,female,Belgian,2,71,guess,loss,5,left,3,guess_outcome,0,undefined,0,0,780,59259,1350662
30,19,female,Belgian,2,71,ITC,loss,5,left,3,ITC_start,566,space,0,0,780,58691,1351230
30,19,female,Belgian,2,71,ITC,loss,5,left,3,ITC_choice,691,f,0,0,780,58000,1351921
30,19,female,Belgian,2,71,ITC,loss,5,left,3,ITC_wait,0,undefined,0,0,780,52986,1356935
30,19,female,Belgian,2,71,ITC,loss,5,left,3,ITC_collect,338,k,0,0,780,52647,1357274
30,19,female,Belgian,2,71,ITC,loss,5,left,3,ITC_outcome,0,undefined,0,0,800,51632,1358289
30,19,female,Belgian,2,72,guess,loss,5,left,7,guess_start,386,space,0,0,800,51244,1358677
30,19,female,Belgian,2,72,guess,loss,5,left,7,guess_choice,486,j,0,0,800,50756,1359165
30,19,female,Belgian,2,72,guess,loss,5,left,7,guess_outcome,0,undefined,0,0,785,49199,1360722
30,19,female,Belgian,2,72,ITC,loss,5,left,7,ITC_start,552,space,0,0,785,48646,1361275
30,19,female,Belgian,2,72,ITC,loss,5,left,7,ITC_choice,1102,f,0,0,785,47543,1362378
30,19,female,Belgian,2,72,ITC,loss,5,left,7,ITC_wait,0,undefined,0,0,785,42536,1367385
30,19,female,Belgian,2,72,ITC,loss,5,left,7,ITC_collect,672,k,0,0,785,41862,1368059
30,19,female,Belgian,2,72,ITC,loss,5,left,7,ITC_outcome,0,undefined,0,0,805,40846,1369075
30,19,female,Belgian,2,73,guess,neutral,5,left,16,guess_start,421,space,0,0,805,40424,1369497
30,19,female,Belgian,2,73,guess,neutral,5,left,16,guess_choice,516,f,0,0,805,39906,1370015
30,19,female,Belgian,2,73,guess,neutral,5,left,16,guess_outcome,0,undefined,0,0,805,38343,1371578
30,19,female,Belgian,2,73,ITC,neutral,5,left,16,ITC_start,461,space,0,0,805,37881,1372040
30,19,female,Belgian,2,73,ITC,neutral,5,left,16,ITC_choice,669,j,0,0,805,37211,1372710
30,19,female,Belgian,2,73,ITC,neutral,5,left,16,ITC_wait,0,undefined,0,0,805,37208,1372713
30,19,female,Belgian,2,73,ITC,neutral,5,left,16,ITC_collect,542,k,0,0,805,36665,1373256
30,19,female,Belgian,2,73,ITC,neutral,5,left,16,ITC_outcome,0,undefined,0,0,821,35653,1374268
30,19,female,Belgian,2,74,guess,loss,5,right,7,guess_start,514,space,0,0,821,35137,1374784
30,19,female,Belgian,2,74,guess,loss,5,right,7,guess_choice,459,f,0,0,821,34675,1375246
30,19,female,Belgian,2,74,guess,loss,5,right,7,guess_outcome,0,undefined,0,0,806,33116,1376805
30,19,female,Belgian,2,74,ITC,loss,5,right,7,ITC_start,605,space,0,0,806,32510,1377411
30,19,female,Belgian,2,74,ITC,loss,5,right,7,ITC_choice,1192,j,0,0,806,31317,1378604
30,19,female,Belgian,2,74,ITC,loss,5,right,7,ITC_wait,0,undefined,0,0,806,26311,1383610
30,19,female,Belgian,2,74,ITC,loss,5,right,7,ITC_collect,374,k,0,0,806,25935,1383986
30,19,female,Belgian,2,74,ITC,loss,5,right,7,ITC_outcome,0,undefined,0,0,826,24920,1385001
30,19,female,Belgian,2,75,guess,loss,10,right,4,guess_start,415,space,0,0,826,24504,1385417
30,19,female,Belgian,2,75,guess,loss,10,right,4,guess_choice,414,f,0,0,826,24087,1385834
30,19,female,Belgian,2,75,guess,loss,10,right,4,guess_outcome,0,undefined,0,0,811,22520,1387401
30,19,female,Belgian,2,75,ITC,loss,10,right,4,ITC_start,678,space,0,0,811,21840,1388081
30,19,female,Belgian,2,75,ITC,loss,10,right,4,ITC_choice,1038,j,0,0,811,20801,1389120
30,19,female,Belgian,2,75,ITC,loss,10,right,4,ITC_wait,0,undefined,0,0,811,10787,1399134
30,19,female,Belgian,2,75,ITC,loss,10,right,4,ITC_collect,260,k,0,0,811,10525,1399396
30,19,female,Belgian,2,75,ITC,loss,10,right,4,ITC_outcome,0,undefined,0,0,831,9520,1400401
30,19,female,Belgian,2,76,guess,neutral,5,right,13,guess_start,378,space,0,0,831,9139,1400782
30,19,female,Belgian,2,76,guess,neutral,5,right,13,guess_choice,627,f,0,0,831,8508,1401413
30,19,female,Belgian,2,76,guess,neutral,5,right,13,guess_outcome,0,undefined,0,0,831,6946,1402975
30,19,female,Belgian,2,76,ITC,neutral,5,right,13,ITC_start,630,space,0,0,831,6314,1403607
30,19,female,Belgian,2,76,ITC,neutral,5,right,13,ITC_choice,864,f,0,0,831,5448,1404473
30,19,female,Belgian,2,76,ITC,neutral,5,right,13,ITC_wait,0,undefined,0,0,831,5444,1404477
30,19,female,Belgian,2,76,ITC,neutral,5,right,13,ITC_collect,537,k,0,0,831,4906,1405015
30,19,female,Belgian,2,76,ITC,neutral,5,right,13,ITC_outcome,0,undefined,0,0,844,3900,1406021
30,19,female,Belgian,2,77,guess,win,5,left,13,guess_start,419,space,0,0,844,3478,1406443
30,19,female,Belgian,2,77,guess,win,5,left,13,guess_choice,703,j,0,0,844,2771,1407150
30,19,female,Belgian,2,77,guess,win,5,left,13,guess_outcome,0,undefined,0,0,864,1203,1408718
30,19,female,Belgian,2,77,ITC,win,5,left,13,ITC_start,701,space,0,0,864,500,1409421
30,19,female,Belgian,2,77,ITC,win,5,left,13,ITC_choice,0,undefined,0,0,864,-14,1409935
30,19,female,Belgian,3,78,guess,loss,5,right,9,guess_start,504,space,0,0,0,479495,1418715
30,19,female,Belgian,3,78,guess,loss,5,right,9,guess_choice,510,j,0,0,0,478981,1419229
30,19,female,Belgian,3,78,guess,loss,5,right,9,guess_outcome,0,undefined,0,0,-15,477420,1420790
30,19,female,Belgian,3,78,ITC,loss,5,right,9,ITC_start,602,space,0,0,-15,476816,1421394
30,19,female,Belgian,3,78,ITC,loss,5,right,9,ITC_choice,1067,f,0,0,-15,475748,1422462
30,19,female,Belgian,3,78,ITC,loss,5,right,9,ITC_wait,0,undefined,0,0,-15,475744,1422466
30,19,female,Belgian,3,78,ITC,loss,5,right,9,ITC_collect,678,k,0,0,-15,475065,1423145
30,19,female,Belgian,3,78,ITC,loss,5,right,9,ITC_outcome,0,undefined,0,0,-6,474061,1424149
30,19,female,Belgian,3,79,guess,neutral,5,right,12,guess_start,380,space,0,0,-6,473678,1424532
30,19,female,Belgian,3,79,guess,neutral,5,right,12,guess_choice,691,j,0,0,-6,472983,1425227
30,19,female,Belgian,3,79,guess,neutral,5,right,12,guess_outcome,0,undefined,0,0,-6,471426,1426784
30,19,female,Belgian,3,79,ITC,neutral,5,right,12,ITC_start,520,space,0,0,-6,470903,1427307
30,19,female,Belgian,3,79,ITC,neutral,5,right,12,ITC_choice,1355,j,0,0,-6,469545,1428665
30,19,female,Belgian,3,79,ITC,neutral,5,right,12,ITC_wait,0,undefined,0,0,-6,464531,1433679
30,19,female,Belgian,3,79,ITC,neutral,5,right,12,ITC_collect,375,k,0,0,-6,464154,1434056
30,19,female,Belgian,3,79,ITC,neutral,5,right,12,ITC_outcome,0,undefined,0,0,14,463146,1435064
30,19,female,Belgian,3,80,guess,loss,10,right,8,guess_start,333,space,0,0,14,462811,1435399
30,19,female,Belgian,3,80,guess,loss,10,right,8,guess_choice,508,j,0,0,14,462299,1435911
30,19,female,Belgian,3,80,guess,loss,10,right,8,guess_outcome,0,undefined,0,0,-1,460735,1437475
30,19,female,Belgian,3,80,ITC,loss,10,right,8,ITC_start,570,space,0,0,-1,460163,1438047
30,19,female,Belgian,3,80,ITC,loss,10,right,8,ITC_choice,701,j,0,0,-1,459460,1438750
30,19,female,Belgian,3,80,ITC,loss,10,right,8,ITC_wait,0,undefined,0,0,-1,449447,1448763
30,19,female,Belgian,3,80,ITC,loss,10,right,8,ITC_collect,325,k,0,0,-1,449118,1449092
30,19,female,Belgian,3,80,ITC,loss,10,right,8,ITC_outcome,0,undefined,0,0,19,448110,1450100
30,19,female,Belgian,3,81,guess,neutral,5,left,4,guess_start,362,space,0,0,19,447746,1450464
30,19,female,Belgian,3,81,guess,neutral,5,left,4,guess_choice,501,j,0,0,19,447241,1450969
30,19,female,Belgian,3,81,guess,neutral,5,left,4,guess_outcome,0,undefined,0,0,19,445680,1452530
30,19,female,Belgian,3,81,ITC,neutral,5,left,4,ITC_start,446,space,0,0,19,445233,1452977
30,19,female,Belgian,3,81,ITC,neutral,5,left,4,ITC_choice,767,f,0,0,19,444464,1453746
30,19,female,Belgian,3,81,ITC,neutral,5,left,4,ITC_wait,0,undefined,0,0,19,439459,1458751
30,19,female,Belgian,3,81,ITC,neutral,5,left,4,ITC_collect,309,k,0,0,19,439148,1459062
30,19,female,Belgian,3,81,ITC,neutral,5,left,4,ITC_outcome,0,undefined,0,0,39,438141,1460069
30,19,female,Belgian,3,82,guess,neutral,10,left,6,guess_start,303,space,0,0,39,437834,1460376
30,19,female,Belgian,3,82,guess,neutral,10,left,6,guess_choice,473,f,0,0,39,437355,1460855
30,19,female,Belgian,3,82,guess,neutral,10,left,6,guess_outcome,0,undefined,0,0,39,435788,1462422
30,19,female,Belgian,3,82,ITC,neutral,10,left,6,ITC_start,884,space,0,0,39,434903,1463307
30,19,female,Belgian,3,82,ITC,neutral,10,left,6,ITC_choice,625,f,0,0,39,434276,1463934
30,19,female,Belgian,3,82,ITC,neutral,10,left,6,ITC_wait,0,undefined,0,0,39,424263,1473947
30,19,female,Belgian,3,82,ITC,neutral,10,left,6,ITC_collect,317,k,0,0,39,423944,1474266
30,19,female,Belgian,3,82,ITC,neutral,10,left,6,ITC_outcome,0,undefined,0,0,59,422935,1475275
30,19,female,Belgian,3,83,guess,win,5,left,14,guess_start,382,space,0,0,59,422550,1475660
30,19,female,Belgian,3,83,guess,win,5,left,14,guess_choice,598,j,0,0,59,421948,1476262
30,19,female,Belgian,3,83,guess,win,5,left,14,guess_outcome,0,undefined,0,0,79,420379,1477831
30,19,female,Belgian,3,83,ITC,win,5,left,14,ITC_start,596,space,0,0,79,419781,1478429
30,19,female,Belgian,3,83,ITC,win,5,left,14,ITC_choice,618,j,0,0,79,419161,1479049
30,19,female,Belgian,3,83,ITC,win,5,left,14,ITC_wait,0,undefined,0,0,79,419157,1479053
30,19,female,Belgian,3,83,ITC,win,5,left,14,ITC_collect,522,k,0,0,79,418633,1479577
30,19,female,Belgian,3,83,ITC,win,5,left,14,ITC_outcome,0,undefined,0,0,93,417627,1480583
30,19,female,Belgian,3,84,guess,win,5,left,8,guess_start,436,space,0,0,93,417189,1481021
30,19,female,Belgian,3,84,guess,win,5,left,8,guess_choice,431,f,0,0,93,416753,1481457
30,19,female,Belgian,3,84,guess,win,5,left,8,guess_outcome,0,undefined,0,0,113,415197,1483013
30,19,female,Belgian,3,84,ITC,win,5,left,8,ITC_start,422,space,0,0,113,414772,1483438
30,19,female,Belgian,3,84,ITC,win,5,left,8,ITC_choice,1251,f,0,0,113,413519,1484691
30,19,female,Belgian,3,84,ITC,win,5,left,8,ITC_wait,0,undefined,0,0,113,408515,1489695
30,19,female,Belgian,3,84,ITC,win,5,left,8,ITC_collect,769,k,0,0,113,407744,1490466
30,19,female,Belgian,3,84,ITC,win,5,left,8,ITC_outcome,0,undefined,0,0,133,406726,1491484
30,19,female,Belgian,3,85,guess,loss,10,right,1,guess_start,652,space,0,0,133,406071,1492139
30,19,female,Belgian,3,85,guess,loss,10,right,1,guess_choice,385,f,0,0,133,405683,1492527
30,19,female,Belgian,3,85,guess,loss,10,right,1,guess_outcome,0,undefined,0,0,118,404124,1494086
30,19,female,Belgian,3,85,ITC,loss,10,right,1,ITC_start,818,space,0,0,118,403304,1494906
30,19,female,Belgian,3,85,ITC,loss,10,right,1,ITC_choice,818,j,0,0,118,402485,1495725
30,19,female,Belgian,3,85,ITC,loss,10,right,1,ITC_wait,0,undefined,0,0,118,392469,1505741
30,19,female,Belgian,3,85,ITC,loss,10,right,1,ITC_collect,776,k,0,0,118,391691,1506519
30,19,female,Belgian,3,85,ITC,loss,10,right,1,ITC_outcome,0,undefined,0,0,138,390686,1507524
30,19,female,Belgian,3,86,guess,win,5,right,3,guess_start,418,space,0,0,138,390265,1507945
30,19,female,Belgian,3,86,guess,win,5,right,3,guess_choice,329,f,0,0,138,389932,1508278
30,19,female,Belgian,3,86,guess,win,5,right,3,guess_outcome,0,undefined,0,0,158,388365,1509845
30,19,female,Belgian,3,86,ITC,win,5,right,3,ITC_start,460,space,0,0,158,387904,1510306
30,19,female,Belgian,3,86,ITC,win,5,right,3,ITC_choice,677,j,0,0,158,387224,1510986
30,19,female,Belgian,3,86,ITC,win,5,right,3,ITC_wait,0,undefined,0,0,158,382207,1516003
30,19,female,Belgian,3,86,ITC,win,5,right,3,ITC_collect,348,k,0,0,158,381856,1516354
30,19,female,Belgian,3,86,ITC,win,5,right,3,ITC_outcome,0,undefined,0,0,178,380840,1517370
30,19,female,Belgian,3,87,guess,win,10,right,8,guess_start,360,space,0,0,178,380478,1517732
30,19,female,Belgian,3,87,guess,win,10,right,8,guess_choice,490,j,0,0,178,379983,1518227
30,19,female,Belgian,3,87,guess,win,10,right,8,guess_outcome,0,undefined,0,0,198,378426,1519784
30,19,female,Belgian,3,87,ITC,win,10,right,8,ITC_start,497,space,0,0,198,377927,1520283
30,19,female,Belgian,3,87,ITC,win,10,right,8,ITC_choice,934,j,0,0,198,376989,1521221
30,19,female,Belgian,3,87,ITC,win,10,right,8,ITC_wait,0,undefined,0,0,198,366976,1531234
30,19,female,Belgian,3,87,ITC,win,10,right,8,ITC_collect,329,k,0,0,198,366644,1531566
30,19,female,Belgian,3,87,ITC,win,10,right,8,ITC_outcome,0,undefined,0,0,218,365634,1532576
30,19,female,Belgian,3,88,guess,neutral,5,left,7,guess_start,409,space,0,0,218,365222,1532988
30,19,female,Belgian,3,88,guess,neutral,5,left,7,guess_choice,618,j,0,0,218,364602,1533608
30,19,female,Belgian,3,88,guess,neutral,5,left,7,guess_outcome,0,undefined,0,0,218,363036,1535174
30,19,female,Belgian,3,88,ITC,neutral,5,left,7,ITC_start,529,space,0,0,218,362505,1535705
30,19,female,Belgian,3,88,ITC,neutral,5,left,7,ITC_choice,720,f,0,0,218,361783,1536427
30,19,female,Belgian,3,88,ITC,neutral,5,left,7,ITC_wait,0,undefined,0,0,218,356778,1541432
30,19,female,Belgian,3,88,ITC,neutral,5,left,7,ITC_collect,446,k,0,0,218,356329,1541881
30,19,female,Belgian,3,88,ITC,neutral,5,left,7,ITC_outcome,0,undefined,0,0,238,355312,1542898
30,19,female,Belgian,3,89,guess,neutral,10,right,5,guess_start,343,space,0,0,238,354966,1543244
30,19,female,Belgian,3,89,guess,neutral,10,right,5,guess_choice,540,f,0,0,238,354422,1543788
30,19,female,Belgian,3,89,guess,neutral,10,right,5,guess_outcome,0,undefined,0,0,238,352856,1545354
30,19,female,Belgian,3,89,ITC,neutral,10,right,5,ITC_start,674,space,0,0,238,352180,1546030
30,19,female,Belgian,3,89,ITC,neutral,10,right,5,ITC_choice,504,j,0,0,238,351674,1546536
30,19,female,Belgian,3,89,ITC,neutral,10,right,5,ITC_wait,0,undefined,0,0,238,341667,1556543
30,19,female,Belgian,3,89,ITC,neutral,10,right,5,ITC_collect,294,k,0,0,238,341370,1556840
30,19,female,Belgian,3,89,ITC,neutral,10,right,5,ITC_outcome,0,undefined,0,0,258,340359,1557851
30,19,female,Belgian,3,90,guess,win,10,right,6,guess_start,346,space,0,0,258,340011,1558199
30,19,female,Belgian,3,90,guess,win,10,right,6,guess_choice,433,f,0,0,258,339574,1558636
30,19,female,Belgian,3,90,guess,win,10,right,6,guess_outcome,0,undefined,0,0,278,338020,1560190
30,19,female,Belgian,3,90,ITC,win,10,right,6,ITC_start,570,space,0,0,278,337447,1560763
30,19,female,Belgian,3,90,ITC,win,10,right,6,ITC_choice,659,j,0,0,278,336786,1561424
30,19,female,Belgian,3,90,ITC,win,10,right,6,ITC_wait,0,undefined,0,0,278,326770,1571440
30,19,female,Belgian,3,90,ITC,win,10,right,6,ITC_collect,331,k,0,0,278,326437,1571773
30,19,female,Belgian,3,90,ITC,win,10,right,6,ITC_outcome,0,undefined,0,0,298,325430,1572780
30,19,female,Belgian,3,91,guess,win,10,left,2,guess_start,350,space,0,0,298,325077,1573133
30,19,female,Belgian,3,91,guess,win,10,left,2,guess_choice,738,j,0,0,298,324335,1573875
30,19,female,Belgian,3,91,guess,win,10,left,2,guess_outcome,0,undefined,0,0,318,322767,1575443
30,19,female,Belgian,3,91,ITC,win,10,left,2,ITC_start,592,space,0,0,318,322173,1576037
30,19,female,Belgian,3,91,ITC,win,10,left,2,ITC_choice,571,f,0,0,318,321600,1576610
30,19,female,Belgian,3,91,ITC,win,10,left,2,ITC_wait,0,undefined,0,0,318,311596,1586614
30,19,female,Belgian,3,91,ITC,win,10,left,2,ITC_collect,320,k,0,0,318,311273,1586937
30,19,female,Belgian,3,91,ITC,win,10,left,2,ITC_outcome,0,undefined,0,0,338,310257,1587953
30,19,female,Belgian,3,92,guess,neutral,10,left,1,guess_start,378,space,0,0,338,309876,1588334
30,19,female,Belgian,3,92,guess,neutral,10,left,1,guess_choice,650,j,0,0,338,309222,1588988
30,19,female,Belgian,3,92,guess,neutral,10,left,1,guess_outcome,0,undefined,0,0,338,307658,1590552
30,19,female,Belgian,3,92,ITC,neutral,10,left,1,ITC_start,541,space,0,0,338,307115,1591095
30,19,female,Belgian,3,92,ITC,neutral,10,left,1,ITC_choice,613,f,0,0,338,306500,1591710
30,19,female,Belgian,3,92,ITC,neutral,10,left,1,ITC_wait,0,undefined,0,0,338,296486,1601724
30,19,female,Belgian,3,92,ITC,neutral,10,left,1,ITC_collect,373,k,0,0,338,296110,1602100
30,19,female,Belgian,3,92,ITC,neutral,10,left,1,ITC_outcome,0,undefined,0,0,358,295099,1603111
30,19,female,Belgian,3,93,guess,loss,10,left,6,guess_start,387,space,0,0,358,294709,1603501
30,19,female,Belgian,3,93,guess,loss,10,left,6,guess_choice,385,f,0,0,358,294321,1603889
30,19,female,Belgian,3,93,guess,loss,10,left,6,guess_outcome,0,undefined,0,0,343,292762,1605448
30,19,female,Belgian,3,93,ITC,loss,10,left,6,ITC_start,517,space,0,0,343,292243,1605967
30,19,female,Belgian,3,93,ITC,loss,10,left,6,ITC_choice,1034,f,0,0,343,291208,1607002
30,19,female,Belgian,3,93,ITC,loss,10,left,6,ITC_wait,0,undefined,0,0,343,281199,1617011
30,19,female,Belgian,3,93,ITC,loss,10,left,6,ITC_collect,790,k,0,0,343,280406,1617804
30,19,female,Belgian,3,93,ITC,loss,10,left,6,ITC_outcome,0,undefined,0,0,363,279390,1618820
30,19,female,Belgian,3,94,guess,win,5,left,10,guess_start,436,space,0,0,363,278952,1619258
30,19,female,Belgian,3,94,guess,win,5,left,10,guess_choice,367,f,0,0,363,278581,1619629
30,19,female,Belgian,3,94,guess,win,5,left,10,guess_outcome,0,undefined,0,0,383,277012,1621198
30,19,female,Belgian,3,94,ITC,win,5,left,10,ITC_start,420,space,0,0,383,276590,1621620
30,19,female,Belgian,3,94,ITC,win,5,left,10,ITC_choice,1013,j,0,0,383,275575,1622635
30,19,female,Belgian,3,94,ITC,win,5,left,10,ITC_wait,0,undefined,0,0,383,275572,1622638
30,19,female,Belgian,3,94,ITC,win,5,left,10,ITC_collect,630,k,0,0,383,274940,1623270
30,19,female,Belgian,3,94,ITC,win,5,left,10,ITC_outcome,0,undefined,0,0,393,273931,1624279
30,19,female,Belgian,3,95,guess,neutral,10,left,8,guess_start,377,space,0,0,393,273551,1624659
30,19,female,Belgian,3,95,guess,neutral,10,left,8,guess_choice,528,j,0,0,393,273019,1625191
30,19,female,Belgian,3,95,guess,neutral,10,left,8,guess_outcome,0,undefined,0,0,393,271457,1626753
30,19,female,Belgian,3,95,ITC,neutral,10,left,8,ITC_start,274,space,0,0,393,271182,1627028
30,19,female,Belgian,3,95,ITC,neutral,10,left,8,ITC_choice,846,f,0,0,393,270333,1627877
30,19,female,Belgian,3,95,ITC,neutral,10,left,8,ITC_wait,0,undefined,0,0,393,260325,1637885
30,19,female,Belgian,3,95,ITC,neutral,10,left,8,ITC_collect,333,k,0,0,393,259991,1638219
30,19,female,Belgian,3,95,ITC,neutral,10,left,8,ITC_outcome,0,undefined,0,0,413,258977,1639233
30,19,female,Belgian,3,96,guess,win,10,left,4,guess_start,365,space,0,0,413,258609,1639601
30,19,female,Belgian,3,96,guess,win,10,left,4,guess_choice,608,j,0,0,413,257998,1640212
30,19,female,Belgian,3,96,guess,win,10,left,4,guess_outcome,0,undefined,0,0,433,256438,1641772
30,19,female,Belgian,3,96,ITC,win,10,left,4,ITC_start,1040,space,0,0,433,255397,1642813
30,19,female,Belgian,3,96,ITC,win,10,left,4,ITC_choice,1013,f,0,0,433,254381,1643829
30,19,female,Belgian,3,96,ITC,win,10,left,4,ITC_wait,0,undefined,0,0,433,244366,1653844
30,19,female,Belgian,3,96,ITC,win,10,left,4,ITC_collect,379,k,0,0,433,243985,1654225
30,19,female,Belgian,3,96,ITC,win,10,left,4,ITC_outcome,0,undefined,0,0,453,242980,1655230
30,19,female,Belgian,3,97,guess,loss,10,right,5,guess_start,474,space,0,0,453,242503,1655707
30,19,female,Belgian,3,97,guess,loss,10,right,5,guess_choice,413,f,0,0,453,242086,1656124
30,19,female,Belgian,3,97,guess,loss,10,right,5,guess_outcome,0,undefined,0,0,438,240532,1657678
30,19,female,Belgian,3,97,ITC,loss,10,right,5,ITC_start,553,space,0,0,438,239977,1658233
30,19,female,Belgian,3,97,ITC,loss,10,right,5,ITC_choice,1734,j,0,0,438,238241,1659969
30,19,female,Belgian,3,97,ITC,loss,10,right,5,ITC_wait,0,undefined,0,0,438,228231,1669979
30,19,female,Belgian,3,97,ITC,loss,10,right,5,ITC_collect,306,k,0,0,438,227923,1670287
30,19,female,Belgian,3,97,ITC,loss,10,right,5,ITC_outcome,0,undefined,0,0,458,226906,1671304
30,19,female,Belgian,3,98,guess,win,5,left,15,guess_start,311,space,0,0,458,226592,1671618
30,19,female,Belgian,3,98,guess,win,5,left,15,guess_choice,339,f,0,0,458,226248,1671962
30,19,female,Belgian,3,98,guess,win,5,left,15,guess_outcome,0,undefined,0,0,478,224692,1673518
30,19,female,Belgian,3,98,ITC,win,5,left,15,ITC_start,454,space,0,0,478,224235,1673975
30,19,female,Belgian,3,98,ITC,win,5,left,15,ITC_choice,895,j,0,0,478,223338,1674872
30,19,female,Belgian,3,98,ITC,win,5,left,15,ITC_wait,0,undefined,0,0,478,223335,1674875
30,19,female,Belgian,3,98,ITC,win,5,left,15,ITC_collect,446,k,0,0,478,222886,1675324
30,19,female,Belgian,3,98,ITC,win,5,left,15,ITC_outcome,0,undefined,0,0,493,221882,1676328
30,19,female,Belgian,3,99,guess,neutral,5,right,14,guess_start,476,space,0,0,493,221404,1676806
30,19,female,Belgian,3,99,guess,neutral,5,right,14,guess_choice,519,f,0,0,493,220881,1677329
30,19,female,Belgian,3,99,guess,neutral,5,right,14,guess_outcome,0,undefined,0,0,493,219321,1678889
30,19,female,Belgian,3,99,ITC,neutral,5,right,14,ITC_start,441,space,0,0,493,218878,1679332
30,19,female,Belgian,3,99,ITC,neutral,5,right,14,ITC_choice,833,f,0,0,493,218043,1680167
30,19,female,Belgian,3,99,ITC,neutral,5,right,14,ITC_wait,0,undefined,0,0,493,218040,1680170
30,19,female,Belgian,3,99,ITC,neutral,5,right,14,ITC_collect,680,k,0,0,493,217357,1680853
30,19,female,Belgian,3,99,ITC,neutral,5,right,14,ITC_outcome,0,undefined,0,0,507,216349,1681861
30,19,female,Belgian,3,100,guess,neutral,5,right,5,guess_start,368,space,0,0,507,215979,1682231
30,19,female,Belgian,3,100,guess,neutral,5,right,5,guess_choice,672,j,0,0,507,215303,1682907
30,19,female,Belgian,3,100,guess,neutral,5,right,5,guess_outcome,0,undefined,0,0,507,213746,1684464
30,19,female,Belgian,3,100,ITC,neutral,5,right,5,ITC_start,512,space,0,0,507,213232,1684978
30,19,female,Belgian,3,100,ITC,neutral,5,right,5,ITC_choice,1084,j,0,0,507,212145,1686065
30,19,female,Belgian,3,100,ITC,neutral,5,right,5,ITC_wait,0,undefined,0,0,507,207137,1691073
30,19,female,Belgian,3,100,ITC,neutral,5,right,5,ITC_collect,394,k,0,0,507,206740,1691470
30,19,female,Belgian,3,100,ITC,neutral,5,right,5,ITC_outcome,0,undefined,0,0,527,205735,1692475
30,19,female,Belgian,3,101,guess,neutral,5,right,2,guess_start,363,space,0,0,527,205369,1692841
30,19,female,Belgian,3,101,guess,neutral,5,right,2,guess_choice,676,j,0,0,527,204690,1693520
30,19,female,Belgian,3,101,guess,neutral,5,right,2,guess_outcome,0,undefined,0,0,527,203133,1695077
30,19,female,Belgian,3,101,ITC,neutral,5,right,2,ITC_start,569,space,0,0,527,202562,1695648
30,19,female,Belgian,3,101,ITC,neutral,5,right,2,ITC_choice,1127,f,0,0,527,201433,1696777
30,19,female,Belgian,3,101,ITC,neutral,5,right,2,ITC_wait,0,undefined,0,0,527,201430,1696780
30,19,female,Belgian,3,101,ITC,neutral,5,right,2,ITC_collect,561,k,0,0,527,200867,1697343
30,19,female,Belgian,3,101,ITC,neutral,5,right,2,ITC_outcome,0,undefined,0,0,529,199851,1698359
30,19,female,Belgian,3,102,guess,neutral,5,right,1,guess_start,555,space,0,0,529,199294,1698916
30,19,female,Belgian,3,102,guess,neutral,5,right,1,guess_choice,555,j,0,0,529,198735,1699475
30,19,female,Belgian,3,102,guess,neutral,5,right,1,guess_outcome,0,undefined,0,0,529,197170,1701040
30,19,female,Belgian,3,102,ITC,neutral,5,right,1,ITC_start,684,space,0,0,529,196483,1701727
30,19,female,Belgian,3,102,ITC,neutral,5,right,1,ITC_choice,1112,j,0,0,529,195369,1702841
30,19,female,Belgian,3,102,ITC,neutral,5,right,1,ITC_wait,0,undefined,0,0,529,190356,1707854
30,19,female,Belgian,3,102,ITC,neutral,5,right,1,ITC_collect,260,k,0,0,529,190094,1708116
30,19,female,Belgian,3,102,ITC,neutral,5,right,1,ITC_outcome,0,undefined,0,0,549,189085,1709125
30,19,female,Belgian,3,103,guess,neutral,5,right,9,guess_start,283,space,0,0,549,188800,1709410
30,19,female,Belgian,3,103,guess,neutral,5,right,9,guess_choice,475,f,0,0,549,188321,1709889
30,19,female,Belgian,3,103,guess,neutral,5,right,9,guess_outcome,0,undefined,0,0,549,186762,1711448
30,19,female,Belgian,3,103,ITC,neutral,5,right,9,ITC_start,398,space,0,0,549,186362,1711848
30,19,female,Belgian,3,103,ITC,neutral,5,right,9,ITC_choice,830,f,0,0,549,185530,1712680
30,19,female,Belgian,3,103,ITC,neutral,5,right,9,ITC_wait,0,undefined,0,0,549,185527,1712683
30,19,female,Belgian,3,103,ITC,neutral,5,right,9,ITC_collect,614,k,0,0,549,184912,1713298
30,19,female,Belgian,3,103,ITC,neutral,5,right,9,ITC_outcome,0,undefined,0,0,558,183908,1714302
30,19,female,Belgian,3,104,guess,win,10,right,5,guess_start,339,space,0,0,558,183565,1714645
30,19,female,Belgian,3,104,guess,win,10,right,5,guess_choice,490,j,0,0,558,183073,1715137
30,19,female,Belgian,3,104,guess,win,10,right,5,guess_outcome,0,undefined,0,0,578,181516,1716694
30,19,female,Belgian,3,104,ITC,win,10,right,5,ITC_start,390,space,0,0,578,181125,1717085
30,19,female,Belgian,3,104,ITC,win,10,right,5,ITC_choice,1235,j,0,0,578,179889,1718321
30,19,female,Belgian,3,104,ITC,win,10,right,5,ITC_wait,0,undefined,0,0,578,169883,1728327
30,19,female,Belgian,3,104,ITC,win,10,right,5,ITC_collect,322,k,0,0,578,169556,1728654
30,19,female,Belgian,3,104,ITC,win,10,right,5,ITC_outcome,0,undefined,0,0,598,168546,1729664
30,19,female,Belgian,3,105,guess,win,5,left,4,guess_start,341,space,0,0,598,168203,1730007
30,19,female,Belgian,3,105,guess,win,5,left,4,guess_choice,476,j,0,0,598,167724,1730486
30,19,female,Belgian,3,105,guess,win,5,left,4,guess_outcome,0,undefined,0,0,618,166167,1732043
30,19,female,Belgian,3,105,ITC,win,5,left,4,ITC_start,516,space,0,0,618,165649,1732561
30,19,female,Belgian,3,105,ITC,win,5,left,4,ITC_choice,587,f,0,0,618,165061,1733149
30,19,female,Belgian,3,105,ITC,win,5,left,4,ITC_wait,0,undefined,0,0,618,160054,1738156
30,19,female,Belgian,3,105,ITC,win,5,left,4,ITC_collect,477,k,0,0,618,159574,1738636
30,19,female,Belgian,3,105,ITC,win,5,left,4,ITC_outcome,0,undefined,0,0,638,158564,1739646
30,19,female,Belgian,3,106,guess,loss,5,right,15,guess_start,322,space,0,0,638,158240,1739970
30,19,female,Belgian,3,106,guess,loss,5,right,15,guess_choice,475,j,0,0,638,157761,1740449
30,19,female,Belgian,3,106,guess,loss,5,right,15,guess_outcome,0,undefined,0,0,623,156206,1742004
30,19,female,Belgian,3,106,ITC,loss,5,right,15,ITC_start,595,space,0,0,623,155609,1742601
30,19,female,Belgian,3,106,ITC,loss,5,right,15,ITC_choice,594,f,0,0,623,155012,1743198
30,19,female,Belgian,3,106,ITC,loss,5,right,15,ITC_wait,0,undefined,0,0,623,155009,1743201
30,19,female,Belgian,3,106,ITC,loss,5,right,15,ITC_collect,391,k,0,0,623,154616,1743594
30,19,female,Belgian,3,106,ITC,loss,5,right,15,ITC_outcome,0,undefined,0,0,638,153609,1744601
30,19,female,Belgian,3,107,guess,loss,5,right,11,guess_start,366,space,0,0,638,153240,1744970
30,19,female,Belgian,3,107,guess,loss,5,right,11,guess_choice,470,f,0,0,638,152765,1745445
30,19,female,Belgian,3,107,guess,loss,5,right,11,guess_outcome,0,undefined,0,0,623,151198,1747012
30,19,female,Belgian,3,107,ITC,loss,5,right,11,ITC_start,302,space,0,0,623,150893,1747317
30,19,female,Belgian,3,107,ITC,loss,5,right,11,ITC_choice,634,f,0,0,623,150257,1747953
30,19,female,Belgian,3,107,ITC,loss,5,right,11,ITC_wait,0,undefined,0,0,623,150254,1747956
30,19,female,Belgian,3,107,ITC,loss,5,right,11,ITC_collect,453,k,0,0,623,149799,1748411
30,19,female,Belgian,3,107,ITC,loss,5,right,11,ITC_outcome,0,undefined,0,0,634,148790,1749420
30,19,female,Belgian,3,108,guess,loss,5,left,2,guess_start,348,space,0,0,634,148440,1749770
30,19,female,Belgian,3,108,guess,loss,5,left,2,guess_choice,563,j,0,0,634,147872,1750338
30,19,female,Belgian,3,108,guess,loss,5,left,2,guess_outcome,0,undefined,0,0,619,146306,1751904
30,19,female,Belgian,3,108,ITC,loss,5,left,2,ITC_start,297,space,0,0,619,146007,1752203
30,19,female,Belgian,3,108,ITC,loss,5,left,2,ITC_choice,1304,f,0,0,619,144702,1753508
30,19,female,Belgian,3,108,ITC,loss,5,left,2,ITC_wait,0,undefined,0,0,619,139685,1758525
30,19,female,Belgian,3,108,ITC,loss,5,left,2,ITC_collect,337,k,0,0,619,139346,1758864
30,19,female,Belgian,3,108,ITC,loss,5,left,2,ITC_outcome,0,undefined,0,0,639,138329,1759881
30,19,female,Belgian,3,109,guess,win,5,left,1,guess_start,299,space,0,0,639,138027,1760183
30,19,female,Belgian,3,109,guess,win,5,left,1,guess_choice,456,j,0,0,639,137568,1760642
30,19,female,Belgian,3,109,guess,win,5,left,1,guess_outcome,0,undefined,0,0,659,136001,1762209
30,19,female,Belgian,3,109,ITC,win,5,left,1,ITC_start,337,space,0,0,659,135661,1762549
30,19,female,Belgian,3,109,ITC,win,5,left,1,ITC_choice,606,f,0,0,659,135053,1763157
30,19,female,Belgian,3,109,ITC,win,5,left,1,ITC_wait,0,undefined,0,0,659,130039,1768171
30,19,female,Belgian,3,109,ITC,win,5,left,1,ITC_collect,1529,k,0,0,659,128507,1769703
30,19,female,Belgian,3,109,ITC,win,5,left,1,ITC_outcome,0,undefined,0,0,679,127502,1770708
30,19,female,Belgian,3,110,guess,neutral,5,left,8,guess_start,282,space,0,0,679,127218,1770992
30,19,female,Belgian,3,110,guess,neutral,5,left,8,guess_choice,482,j,0,0,679,126731,1771479
30,19,female,Belgian,3,110,guess,neutral,5,left,8,guess_outcome,0,undefined,0,0,679,125168,1773042
30,19,female,Belgian,3,110,ITC,neutral,5,left,8,ITC_start,289,space,0,0,679,124876,1773334
30,19,female,Belgian,3,110,ITC,neutral,5,left,8,ITC_choice,666,j,0,0,679,124208,1774002
30,19,female,Belgian,3,110,ITC,neutral,5,left,8,ITC_wait,0,undefined,0,0,679,124205,1774005
30,19,female,Belgian,3,110,ITC,neutral,5,left,8,ITC_collect,284,k,0,0,679,123920,1774290
30,19,female,Belgian,3,110,ITC,neutral,5,left,8,ITC_outcome,0,undefined,0,0,687,122910,1775300
30,19,female,Belgian,3,111,guess,loss,5,right,12,guess_start,338,space,0,0,687,122568,1775642
30,19,female,Belgian,3,111,guess,loss,5,right,12,guess_choice,454,f,0,0,687,122110,1776100
30,19,female,Belgian,3,111,guess,loss,5,right,12,guess_outcome,0,undefined,0,0,672,120549,1777661
30,19,female,Belgian,3,111,ITC,loss,5,right,12,ITC_start,370,space,0,0,672,120177,1778033
30,19,female,Belgian,3,111,ITC,loss,5,right,12,ITC_choice,654,f,0,0,672,119520,1778690
30,19,female,Belgian,3,111,ITC,loss,5,right,12,ITC_wait,0,undefined,0,0,672,119516,1778694
30,19,female,Belgian,3,111,ITC,loss,5,right,12,ITC_collect,236,k,0,0,672,119278,1778932
30,19,female,Belgian,3,111,ITC,loss,5,right,12,ITC_outcome,0,undefined,0,0,684,118265,1779945
30,19,female,Belgian,3,112,guess,win,5,right,16,guess_start,315,space,0,0,684,117947,1780263
30,19,female,Belgian,3,112,guess,win,5,right,16,guess_choice,552,f,0,0,684,117392,1780818
30,19,female,Belgian,3,112,guess,win,5,right,16,guess_outcome,0,undefined,0,0,704,115832,1782378
30,19,female,Belgian,3,112,ITC,win,5,right,16,ITC_start,643,space,0,0,704,115187,1783023
30,19,female,Belgian,3,112,ITC,win,5,right,16,ITC_choice,827,f,0,0,704,114359,1783851
30,19,female,Belgian,3,112,ITC,win,5,right,16,ITC_wait,0,undefined,0,0,704,114356,1783854
30,19,female,Belgian,3,112,ITC,win,5,right,16,ITC_collect,262,k,0,0,704,114093,1784117
30,19,female,Belgian,3,112,ITC,win,5,right,16,ITC_outcome,0,undefined,0,0,720,113085,1785125
30,19,female,Belgian,3,113,guess,loss,5,right,14,guess_start,334,space,0,0,720,112747,1785463
30,19,female,Belgian,3,113,guess,loss,5,right,14,guess_choice,376,f,0,0,720,112368,1785842
30,19,female,Belgian,3,113,guess,loss,5,right,14,guess_outcome,0,undefined,0,0,705,110811,1787399
30,19,female,Belgian,3,113,ITC,loss,5,right,14,ITC_start,368,space,0,0,705,110441,1787769
30,19,female,Belgian,3,113,ITC,loss,5,right,14,ITC_wait,0,undefined,0,0,705,109775,1788435
30,19,female,Belgian,3,113,ITC,loss,5,right,14,ITC_choice,662,f,0,0,705,109778,1788432
30,19,female,Belgian,3,113,ITC,loss,5,right,14,ITC_collect,227,k,0,0,705,109546,1788664
30,19,female,Belgian,3,113,ITC,loss,5,right,14,ITC_outcome,0,undefined,0,0,719,108538,1789672
30,19,female,Belgian,3,114,guess,win,10,right,7,guess_start,324,space,0,0,719,108211,1789999
30,19,female,Belgian,3,114,guess,win,10,right,7,guess_choice,429,f,0,0,719,107778,1790432
30,19,female,Belgian,3,114,guess,win,10,right,7,guess_outcome,0,undefined,0,0,739,106215,1791995
30,19,female,Belgian,3,114,ITC,win,10,right,7,ITC_start,336,space,0,0,739,105876,1792334
30,19,female,Belgian,3,114,ITC,win,10,right,7,ITC_choice,1258,j,0,0,739,104616,1793594
30,19,female,Belgian,3,114,ITC,win,10,right,7,ITC_wait,0,undefined,0,0,739,94606,1803604
30,19,female,Belgian,3,114,ITC,win,10,right,7,ITC_collect,354,k,0,0,739,94248,1803962
30,19,female,Belgian,3,114,ITC,win,10,right,7,ITC_outcome,0,undefined,0,0,759,93236,1804974
30,19,female,Belgian,3,115,guess,win,5,right,7,guess_start,298,space,0,0,759,92934,1805276
30,19,female,Belgian,3,115,guess,win,5,right,7,guess_choice,419,f,0,0,759,92512,1805698
30,19,female,Belgian,3,115,guess,win,5,right,7,guess_outcome,0,undefined,0,0,779,90945,1807265
30,19,female,Belgian,3,115,ITC,win,5,right,7,ITC_start,579,space,0,0,779,90364,1807846
30,19,female,Belgian,3,115,ITC,win,5,right,7,ITC_choice,1224,j,0,0,779,89138,1809072
30,19,female,Belgian,3,115,ITC,win,5,right,7,ITC_wait,0,undefined,0,0,779,84124,1814086
30,19,female,Belgian,3,115,ITC,win,5,right,7,ITC_collect,545,k,0,0,779,83577,1814633
30,19,female,Belgian,3,115,ITC,win,5,right,7,ITC_outcome,0,undefined,0,0,799,82563,1815647
30,19,female,Belgian,3,116,guess,neutral,5,left,11,guess_start,229,space,0,0,799,82331,1815879
30,19,female,Belgian,3,116,guess,neutral,5,left,11,guess_choice,710,j,0,0,799,81616,1816594
30,19,female,Belgian,3,116,guess,neutral,5,left,11,guess_outcome,0,undefined,0,0,799,80051,1818159
30,19,female,Belgian,3,116,ITC,neutral,5,left,11,ITC_start,685,space,0,0,799,79364,1818846
30,19,female,Belgian,3,116,ITC,neutral,5,left,11,ITC_choice,1054,j,0,0,799,78308,1819902
30,19,female,Belgian,3,116,ITC,neutral,5,left,11,ITC_wait,0,undefined,0,0,799,78305,1819905
30,19,female,Belgian,3,116,ITC,neutral,5,left,11,ITC_collect,333,k,0,0,799,77969,1820241
30,19,female,Belgian,3,116,ITC,neutral,5,left,11,ITC_outcome,0,undefined,0,0,810,76956,1821254
30,19,female,Belgian,3,117,guess,loss,5,right,6,guess_start,375,space,0,0,810,76577,1821633
30,19,female,Belgian,3,117,guess,loss,5,right,6,guess_choice,511,f,0,0,810,76062,1822148
30,19,female,Belgian,3,117,guess,loss,5,right,6,guess_outcome,0,undefined,0,0,795,74502,1823708
30,19,female,Belgian,3,117,ITC,loss,5,right,6,ITC_start,492,space,0,0,795,74008,1824202
30,19,female,Belgian,3,117,ITC,loss,5,right,6,ITC_choice,1468,j,0,0,795,72539,1825671
30,19,female,Belgian,3,117,ITC,loss,5,right,6,ITC_wait,0,undefined,0,0,795,67533,1830677
30,19,female,Belgian,3,117,ITC,loss,5,right,6,ITC_collect,334,k,0,0,795,67197,1831013
30,19,female,Belgian,3,117,ITC,loss,5,right,6,ITC_outcome,0,undefined,0,0,815,66181,1832029
30,19,female,Belgian,3,118,guess,loss,10,right,3,guess_start,346,space,0,0,815,65832,1832378
30,19,female,Belgian,3,118,guess,loss,10,right,3,guess_choice,480,j,0,0,815,65348,1832862
30,19,female,Belgian,3,118,guess,loss,10,right,3,guess_outcome,0,undefined,0,0,800,63787,1834423
30,19,female,Belgian,3,118,ITC,loss,10,right,3,ITC_start,348,space,0,0,800,63437,1834773
30,19,female,Belgian,3,118,ITC,loss,10,right,3,ITC_choice,882,j,0,0,800,62553,1835657
30,19,female,Belgian,3,118,ITC,loss,10,right,3,ITC_wait,0,undefined,0,0,800,52543,1845667
30,19,female,Belgian,3,118,ITC,loss,10,right,3,ITC_collect,668,k,0,0,800,51873,1846337
30,19,female,Belgian,3,118,ITC,loss,10,right,3,ITC_outcome,0,undefined,0,0,820,50863,1847347
30,19,female,Belgian,3,119,guess,neutral,5,right,15,guess_start,370,space,0,0,820,50488,1847722
30,19,female,Belgian,3,119,guess,neutral,5,right,15,guess_choice,505,f,0,0,820,49978,1848232
30,19,female,Belgian,3,119,guess,neutral,5,right,15,guess_outcome,0,undefined,0,0,820,48414,1849796
30,19,female,Belgian,3,119,ITC,neutral,5,right,15,ITC_start,360,space,0,0,820,48052,1850158
30,19,female,Belgian,3,119,ITC,neutral,5,right,15,ITC_choice,553,f,0,0,820,47497,1850713
30,19,female,Belgian,3,119,ITC,neutral,5,right,15,ITC_wait,0,undefined,0,0,820,47493,1850717
30,19,female,Belgian,3,119,ITC,neutral,5,right,15,ITC_collect,498,k,0,0,820,46994,1851216
30,19,female,Belgian,3,119,ITC,neutral,5,right,15,ITC_outcome,0,undefined,0,0,835,45983,1852227
30,19,female,Belgian,3,120,guess,loss,5,right,8,guess_start,433,space,0,0,835,45546,1852664
30,19,female,Belgian,3,120,guess,loss,5,right,8,guess_choice,494,f,0,0,835,45048,1853162
30,19,female,Belgian,3,120,guess,loss,5,right,8,guess_outcome,0,undefined,0,0,820,43491,1854719
30,19,female,Belgian,3,120,ITC,loss,5,right,8,ITC_start,599,space,0,0,820,42890,1855320
30,19,female,Belgian,3,120,ITC,loss,5,right,8,ITC_choice,1201,j,0,0,820,41686,1856524
30,19,female,Belgian,3,120,ITC,loss,5,right,8,ITC_wait,0,undefined,0,0,820,36673,1861537
30,19,female,Belgian,3,120,ITC,loss,5,right,8,ITC_collect,291,k,0,0,820,36380,1861830
30,19,female,Belgian,3,120,ITC,loss,5,right,8,ITC_outcome,0,undefined,0,0,840,35363,1862847
30,19,female,Belgian,3,121,guess,loss,5,left,5,guess_start,382,space,0,0,840,34979,1863231
30,19,female,Belgian,3,121,guess,loss,5,left,5,guess_choice,488,f,0,0,840,34486,1863724
30,19,female,Belgian,3,121,guess,loss,5,left,5,guess_outcome,0,undefined,0,0,825,32918,1865292
30,19,female,Belgian,3,121,ITC,loss,5,left,5,ITC_start,484,space,0,0,825,32432,1865778
30,19,female,Belgian,3,121,ITC,loss,5,left,5,ITC_choice,1179,j,0,0,825,31251,1866959
30,19,female,Belgian,3,121,ITC,loss,5,left,5,ITC_wait,0,undefined,0,0,825,31247,1866963
30,19,female,Belgian,3,121,ITC,loss,5,left,5,ITC_collect,367,k,0,0,825,30878,1867332
30,19,female,Belgian,3,121,ITC,loss,5,left,5,ITC_outcome,0,undefined,0,0,830,29868,1868342
30,19,female,Belgian,3,122,guess,neutral,10,right,4,guess_start,288,space,0,0,830,29577,1868633
30,19,female,Belgian,3,122,guess,neutral,10,right,4,guess_choice,562,j,0,0,830,29011,1869199
30,19,female,Belgian,3,122,guess,neutral,10,right,4,guess_outcome,0,undefined,0,0,830,27442,1870768
30,19,female,Belgian,3,122,ITC,neutral,10,right,4,ITC_start,271,space,0,0,830,27167,1871043
30,19,female,Belgian,3,122,ITC,neutral,10,right,4,ITC_choice,791,j,0,0,830,26375,1871835
30,19,female,Belgian,3,122,ITC,neutral,10,right,4,ITC_wait,0,undefined,0,0,830,16369,1881841
30,19,female,Belgian,3,122,ITC,neutral,10,right,4,ITC_collect,337,k,0,0,830,16030,1882180
30,19,female,Belgian,3,122,ITC,neutral,10,right,4,ITC_outcome,0,undefined,0,0,850,15015,1883195
30,19,female,Belgian,3,123,guess,win,5,right,9,guess_start,377,space,0,0,850,14635,1883575
30,19,female,Belgian,3,123,guess,win,5,right,9,guess_choice,495,f,0,0,850,14136,1884074
30,19,female,Belgian,3,123,guess,win,5,right,9,guess_outcome,0,undefined,0,0,870,12574,1885636
30,19,female,Belgian,3,123,ITC,win,5,right,9,ITC_start,431,space,0,0,870,12141,1886069
30,19,female,Belgian,3,123,ITC,win,5,right,9,ITC_choice,862,f,0,0,870,11277,1886933
30,19,female,Belgian,3,123,ITC,win,5,right,9,ITC_wait,0,undefined,0,0,870,11273,1886937
30,19,female,Belgian,3,123,ITC,win,5,right,9,ITC_collect,343,k,0,0,870,10928,1887282
30,19,female,Belgian,3,123,ITC,win,5,right,9,ITC_outcome,0,undefined,0,0,879,9924,1888286
30,19,female,Belgian,3,124,guess,win,10,right,1,guess_start,302,space,0,0,879,9620,1888590
30,19,female,Belgian,3,124,guess,win,10,right,1,guess_choice,379,j,0,0,879,9237,1888973
30,19,female,Belgian,3,124,guess,win,10,right,1,guess_outcome,0,undefined,0,0,899,7681,1890529
30,19,female,Belgian,3,124,ITC,win,10,right,1,ITC_start,424,space,0,0,899,7254,1890956
30,19,female,Belgian,3,124,ITC,win,10,right,1,ITC_choice,1149,j,0,0,899,6104,1892106
30,19,female,Belgian,3,124,ITC,win,10,right,1,ITC_wait,0,undefined,0,0,899,-6,1898216
30,19,female,Belgian,4,125,guess,loss,5,left,1,guess_start,638,space,0,0,0,479361,1916571
30,19,female,Belgian,4,125,guess,loss,5,left,1,guess_choice,480,j,0,0,0,478876,1917056
30,19,female,Belgian,4,125,guess,loss,5,left,1,guess_outcome,0,undefined,0,0,-15,477317,1918615
30,19,female,Belgian,4,125,ITC,loss,5,left,1,ITC_start,390,space,0,0,-15,476925,1919007
30,19,female,Belgian,4,125,ITC,loss,5,left,1,ITC_choice,928,f,0,0,-15,475994,1919938
30,19,female,Belgian,4,125,ITC,loss,5,left,1,ITC_wait,0,undefined,0,0,-15,470979,1924953
30,19,female,Belgian,4,125,ITC,loss,5,left,1,ITC_collect,278,k,0,0,-15,470699,1925233
30,19,female,Belgian,4,125,ITC,loss,5,left,1,ITC_outcome,0,undefined,0,0,5,469687,1926245
30,19,female,Belgian,4,126,guess,win,5,left,2,guess_start,367,space,0,0,5,469318,1926614
30,19,female,Belgian,4,126,guess,win,5,left,2,guess_choice,431,j,0,0,5,468883,1927049
30,19,female,Belgian,4,126,guess,win,5,left,2,guess_outcome,0,undefined,0,0,25,467317,1928615
30,19,female,Belgian,4,126,ITC,win,5,left,2,ITC_start,427,space,0,0,25,466887,1929045
30,19,female,Belgian,4,126,ITC,win,5,left,2,ITC_choice,684,f,0,0,25,466202,1929730
30,19,female,Belgian,4,126,ITC,win,5,left,2,ITC_wait,0,undefined,0,0,25,461197,1934735
30,19,female,Belgian,4,126,ITC,win,5,left,2,ITC_collect,395,k,0,0,25,460799,1935133
30,19,female,Belgian,4,126,ITC,win,5,left,2,ITC_outcome,0,undefined,0,0,45,459792,1936140
30,19,female,Belgian,4,127,guess,neutral,5,right,6,guess_start,334,space,0,0,45,459456,1936476
30,19,female,Belgian,4,127,guess,neutral,5,right,6,guess_choice,540,j,0,0,45,458911,1937021
30,19,female,Belgian,4,127,guess,neutral,5,right,6,guess_outcome,0,undefined,0,0,45,457347,1938585
30,19,female,Belgian,4,127,ITC,neutral,5,right,6,ITC_start,475,space,0,0,45,456870,1939062
30,19,female,Belgian,4,127,ITC,neutral,5,right,6,ITC_choice,883,j,0,0,45,455985,1939947
30,19,female,Belgian,4,127,ITC,neutral,5,right,6,ITC_wait,0,undefined,0,0,45,450969,1944963
30,19,female,Belgian,4,127,ITC,neutral,5,right,6,ITC_collect,307,k,0,0,45,450660,1945272
30,19,female,Belgian,4,127,ITC,neutral,5,right,6,ITC_outcome,0,undefined,0,0,65,449644,1946288
30,19,female,Belgian,4,128,guess,neutral,10,left,2,guess_start,312,space,0,0,65,449329,1946603
30,19,female,Belgian,4,128,guess,neutral,10,left,2,guess_choice,513,f,0,0,65,448813,1947119
30,19,female,Belgian,4,128,guess,neutral,10,left,2,guess_outcome,0,undefined,0,0,65,447257,1948675
30,19,female,Belgian,4,128,ITC,neutral,10,left,2,ITC_start,284,space,0,0,65,446971,1948961
30,19,female,Belgian,4,128,ITC,neutral,10,left,2,ITC_choice,637,f,0,0,65,446332,1949600
30,19,female,Belgian,4,128,ITC,neutral,10,left,2,ITC_wait,0,undefined,0,0,65,436330,1959602
30,19,female,Belgian,4,128,ITC,neutral,10,left,2,ITC_collect,388,k,0,0,65,435940,1959992
30,19,female,Belgian,4,128,ITC,neutral,10,left,2,ITC_outcome,0,undefined,0,0,85,434931,1961001
30,19,female,Belgian,4,129,guess,loss,5,right,16,guess_start,412,space,0,0,85,434517,1961415
30,19,female,Belgian,4,129,guess,loss,5,right,16,guess_choice,474,j,0,0,85,434038,1961894
30,19,female,Belgian,4,129,guess,loss,5,right,16,guess_outcome,0,undefined,0,0,70,432469,1963463
30,19,female,Belgian,4,129,ITC,loss,5,right,16,ITC_start,429,space,0,0,70,432039,1963893
30,19,female,Belgian,4,129,ITC,loss,5,right,16,ITC_choice,794,f,0,0,70,431242,1964690
30,19,female,Belgian,4,129,ITC,loss,5,right,16,ITC_wait,0,undefined,0,0,70,431239,1964693
30,19,female,Belgian,4,129,ITC,loss,5,right,16,ITC_collect,366,k,0,0,70,430871,1965061
30,19,female,Belgian,4,129,ITC,loss,5,right,16,ITC_outcome,0,undefined,0,0,86,429866,1966066
30,19,female,Belgian,4,130,guess,win,5,right,11,guess_start,370,space,0,0,86,429494,1966438
30,19,female,Belgian,4,130,guess,win,5,right,11,guess_choice,443,f,0,0,86,429045,1966887
30,19,female,Belgian,4,130,guess,win,5,right,11,guess_outcome,0,undefined,0,0,106,427484,1968448
30,19,female,Belgian,4,130,ITC,win,5,right,11,ITC_start,337,space,0,0,106,427145,1968787
30,19,female,Belgian,4,130,ITC,win,5,right,11,ITC_wait,0,undefined,0,0,106,426471,1969461
30,19,female,Belgian,4,130,ITC,win,5,right,11,ITC_choice,668,f,0,0,106,426475,1969457
30,19,female,Belgian,4,130,ITC,win,5,right,11,ITC_collect,275,k,0,0,106,426195,1969737
30,19,female,Belgian,4,130,ITC,win,5,right,11,ITC_outcome,0,undefined,0,0,117,425184,1970748
30,19,female,Belgian,4,131,guess,win,5,right,6,guess_start,908,space,0,0,117,424273,1971659
30,19,female,Belgian,4,131,guess,win,5,right,6,guess_choice,453,f,0,0,117,423816,1972116
30,19,female,Belgian,4,131,guess,win,5,right,6,guess_outcome,0,undefined,0,0,137,422258,1973674
30,19,female,Belgian,4,131,ITC,win,5,right,6,ITC_start,549,space,0,0,137,421707,1974225
30,19,female,Belgian,4,131,ITC,win,5,right,6,ITC_choice,814,f,0,0,137,420891,1975041
30,19,female,Belgian,4,131,ITC,win,5,right,6,ITC_wait,0,undefined,0,0,137,420887,1975045
30,19,female,Belgian,4,131,ITC,win,5,right,6,ITC_collect,434,k,0,0,137,420451,1975481
30,19,female,Belgian,4,131,ITC,win,5,right,6,ITC_outcome,0,undefined,0,0,143,419440,1976492
30,19,female,Belgian,4,132,guess,win,5,left,12,guess_start,349,space,0,0,143,419087,1976845
30,19,female,Belgian,4,132,guess,win,5,left,12,guess_choice,282,f,0,0,143,418801,1977131
30,19,female,Belgian,4,132,guess,win,5,left,12,guess_outcome,0,undefined,0,0,163,417242,1978690
30,19,female,Belgian,4,132,ITC,win,5,left,12,ITC_start,414,space,0,0,163,416825,1979107
30,19,female,Belgian,4,132,ITC,win,5,left,12,ITC_choice,877,f,0,0,163,415946,1979986
30,19,female,Belgian,4,132,ITC,win,5,left,12,ITC_wait,0,undefined,0,0,163,410934,1984998
30,19,female,Belgian,4,132,ITC,win,5,left,12,ITC_collect,269,k,0,0,163,410662,1985270
30,19,female,Belgian,4,132,ITC,win,5,left,12,ITC_outcome,0,undefined,0,0,183,409658,1986274
30,19,female,Belgian,4,133,guess,neutral,10,left,3,guess_start,289,space,0,0,183,409366,1986566
30,19,female,Belgian,4,133,guess,neutral,10,left,3,guess_choice,369,f,0,0,183,408994,1986938
30,19,female,Belgian,4,133,guess,neutral,10,left,3,guess_outcome,0,undefined,0,0,183,407432,1988500
30,19,female,Belgian,4,133,ITC,neutral,10,left,3,ITC_start,285,space,0,0,183,407145,1988787
30,19,female,Belgian,4,133,ITC,neutral,10,left,3,ITC_choice,1019,f,0,0,183,406123,1989809
30,19,female,Belgian,4,133,ITC,neutral,10,left,3,ITC_wait,0,undefined,0,0,183,396120,1999812
30,19,female,Belgian,4,133,ITC,neutral,10,left,3,ITC_collect,347,k,0,0,183,395770,2000162
30,19,female,Belgian,4,133,ITC,neutral,10,left,3,ITC_outcome,0,undefined,0,0,203,394763,2001169
30,19,female,Belgian,4,134,guess,win,10,right,3,guess_start,396,space,0,0,203,394364,2001568
30,19,female,Belgian,4,134,guess,win,10,right,3,guess_choice,504,j,0,0,203,393856,2002076
30,19,female,Belgian,4,134,guess,win,10,right,3,guess_outcome,0,undefined,0,0,223,392301,2003631
30,19,female,Belgian,4,134,ITC,win,10,right,3,ITC_start,494,space,0,0,223,391804,2004128
30,19,female,Belgian,4,134,ITC,win,10,right,3,ITC_choice,764,j,0,0,223,391039,2004893
30,19,female,Belgian,4,134,ITC,win,10,right,3,ITC_wait,0,undefined,0,0,223,381034,2014898
30,19,female,Belgian,4,134,ITC,win,10,right,3,ITC_collect,314,k,0,0,223,380717,2015215
30,19,female,Belgian,4,134,ITC,win,10,right,3,ITC_outcome,0,undefined,0,0,243,379712,2016220
30,19,female,Belgian,4,135,guess,loss,5,right,4,guess_start,515,space,0,0,243,379195,2016737
30,19,female,Belgian,4,135,guess,loss,5,right,4,guess_choice,487,f,0,0,243,378703,2017229
30,19,female,Belgian,4,135,guess,loss,5,right,4,guess_outcome,0,undefined,0,0,228,377144,2018788
30,19,female,Belgian,4,135,ITC,loss,5,right,4,ITC_start,525,space,0,0,228,376617,2019315
30,19,female,Belgian,4,135,ITC,loss,5,right,4,ITC_choice,678,j,0,0,228,375937,2019995
30,19,female,Belgian,4,135,ITC,loss,5,right,4,ITC_wait,0,undefined,0,0,228,370925,2025007
30,19,female,Belgian,4,135,ITC,loss,5,right,4,ITC_collect,440,k,0,0,228,370482,2025450
30,19,female,Belgian,4,135,ITC,loss,5,right,4,ITC_outcome,0,undefined,0,0,248,369463,2026469
30,19,female,Belgian,4,136,guess,neutral,10,left,7,guess_start,287,space,0,0,248,369173,2026759
30,19,female,Belgian,4,136,guess,neutral,10,left,7,guess_choice,537,j,0,0,248,368632,2027300
30,19,female,Belgian,4,136,guess,neutral,10,left,7,guess_outcome,0,undefined,0,0,248,367067,2028865
30,19,female,Belgian,4,136,ITC,neutral,10,left,7,ITC_start,378,space,0,0,248,366686,2029246
30,19,female,Belgian,4,136,ITC,neutral,10,left,7,ITC_choice,1004,j,0,0,248,365679,2030253
30,19,female,Belgian,4,136,ITC,neutral,10,left,7,ITC_wait,0,undefined,0,0,248,365676,2030256
30,19,female,Belgian,4,136,ITC,neutral,10,left,7,ITC_collect,316,k,0,0,248,365358,2030574
30,19,female,Belgian,4,136,ITC,neutral,10,left,7,ITC_outcome,0,undefined,0,0,255,364343,2031589
30,19,female,Belgian,4,137,guess,loss,5,left,13,guess_start,343,space,0,0,255,363998,2031934
30,19,female,Belgian,4,137,guess,loss,5,left,13,guess_choice,457,f,0,0,255,363536,2032396
30,19,female,Belgian,4,137,guess,loss,5,left,13,guess_outcome,0,undefined,0,0,240,361977,2033955
30,19,female,Belgian,4,137,ITC,loss,5,left,13,ITC_start,496,space,0,0,240,361479,2034453
30,19,female,Belgian,4,137,ITC,loss,5,left,13,ITC_choice,698,f,0,0,240,360779,2035153
30,19,female,Belgian,4,137,ITC,loss,5,left,13,ITC_wait,0,undefined,0,0,240,355771,2040161
30,19,female,Belgian,4,137,ITC,loss,5,left,13,ITC_collect,477,k,0,0,240,355291,2040641
30,19,female,Belgian,4,137,ITC,loss,5,left,13,ITC_outcome,0,undefined,0,0,260,354275,2041657
30,19,female,Belgian,4,138,guess,win,5,right,5,guess_start,380,space,0,0,260,353893,2042039
30,19,female,Belgian,4,138,guess,win,5,right,5,guess_choice,469,j,0,0,260,353420,2042512
30,19,female,Belgian,4,138,guess,win,5,right,5,guess_outcome,0,undefined,0,0,280,351859,2044073
30,19,female,Belgian,4,138,ITC,win,5,right,5,ITC_start,426,space,0,0,280,351431,2044501
30,19,female,Belgian,4,138,ITC,win,5,right,5,ITC_choice,988,j,0,0,280,350441,2045491
30,19,female,Belgian,4,138,ITC,win,5,right,5,ITC_wait,0,undefined,0,0,280,345429,2050503
30,19,female,Belgian,4,138,ITC,win,5,right,5,ITC_collect,501,k,0,0,280,344925,2051007
30,19,female,Belgian,4,138,ITC,win,5,right,5,ITC_outcome,0,undefined,0,0,300,343919,2052013
30,19,female,Belgian,4,139,guess,loss,10,left,7,guess_start,250,space,0,0,300,343666,2052266
30,19,female,Belgian,4,139,guess,loss,10,left,7,guess_choice,374,j,0,0,300,343287,2052645
30,19,female,Belgian,4,139,guess,loss,10,left,7,guess_outcome,0,undefined,0,0,285,341726,2054206
30,19,female,Belgian,4,139,ITC,loss,10,left,7,ITC_start,471,space,0,0,285,341253,2054679
30,19,female,Belgian,4,139,ITC,loss,10,left,7,ITC_choice,927,j,0,0,285,340324,2055608
30,19,female,Belgian,4,139,ITC,loss,10,left,7,ITC_wait,0,undefined,0,0,285,340320,2055612
30,19,female,Belgian,4,139,ITC,loss,10,left,7,ITC_collect,269,k,0,0,285,340050,2055882
30,19,female,Belgian,4,139,ITC,loss,10,left,7,ITC_outcome,0,undefined,0,0,292,339031,2056901
30,19,female,Belgian,4,140,guess,neutral,5,left,10,guess_start,288,space,0,0,292,338740,2057192
30,19,female,Belgian,4,140,guess,neutral,5,left,10,guess_choice,697,j,0,0,292,338039,2057893
30,19,female,Belgian,4,140,guess,neutral,5,left,10,guess_outcome,0,undefined,0,0,292,336475,2059457
