subjectID,age,gender,nationality,block_number,trial_number,trial_type,guess_outcome,delay_time,delay_pos,immediate_amount,stage,respRT,respKey,blur_count,focus_count,total_points,remaining_duration,time_elapsed
21,19,female,Belgian,1,1,guess,neutral,5,right,9,guess_start,2968,space,0,0,0,477031,300422
21,19,female,Belgian,1,1,guess,neutral,5,right,9,guess_choice,885,j,0,0,0,476143,301310
21,19,female,Belgian,1,1,guess,neutral,5,right,9,guess_outcome,0,undefined,0,0,0,474572,302881
21,19,female,Belgian,1,1,ITC,neutral,5,right,9,ITC_start,2228,space,0,0,0,472343,305110
21,19,female,Belgian,1,1,ITC,neutral,5,right,9,ITC_choice,1415,j,0,0,0,470927,306526
21,19,female,Belgian,1,1,ITC,neutral,5,right,9,ITC_wait,0,undefined,0,0,0,465922,311531
21,19,female,Belgian,1,1,ITC,neutral,5,right,9,ITC_collect,1482,k,0,0,0,464443,313010
21,19,female,Belgian,1,1,ITC,neutral,5,right,9,ITC_outcome,0,undefined,0,0,20,463440,314013
21,19,female,Belgian,1,2,guess,neutral,10,left,4,guess_start,1643,space,0,0,20,461795,315658
21,19,female,Belgian,1,2,guess,neutral,10,left,4,guess_choice,750,f,0,0,20,461043,316410
21,19,female,Belgian,1,2,guess,neutral,10,left,4,guess_outcome,0,undefined,0,0,20,459489,317964
21,19,female,Belgian,1,2,ITC,neutral,10,left,4,ITC_start,1381,space,0,0,20,458107,319346
21,19,female,Belgian,1,2,ITC,neutral,10,left,4,ITC_choice,1639,f,0,0,20,456467,320986
21,19,female,Belgian,1,2,ITC,neutral,10,left,4,ITC_wait,0,undefined,0,0,20,446456,330997
21,19,female,Belgian,1,2,ITC,neutral,10,left,4,ITC_collect,500,k,0,0,20,445955,331498
21,19,female,Belgian,1,2,ITC,neutral,10,left,4,ITC_outcome,0,undefined,0,0,40,444951,332502
21,19,female,Belgian,1,3,guess,neutral,5,left,10,guess_start,2075,space,0,0,40,442875,334578
21,19,female,Belgian,1,3,guess,neutral,5,left,10,guess_choice,774,j,0,0,40,442099,335354
21,19,female,Belgian,1,3,guess,neutral,5,left,10,guess_outcome,0,undefined,0,0,40,440541,336912
21,19,female,Belgian,1,3,ITC,neutral,5,left,10,ITC_start,1209,space,0,0,40,439331,338122
21,19,female,Belgian,1,3,ITC,neutral,5,left,10,ITC_choice,1599,f,0,0,40,437731,339722
21,19,female,Belgian,1,3,ITC,neutral,5,left,10,ITC_wait,0,undefined,0,0,40,432711,344742
21,19,female,Belgian,1,3,ITC,neutral,5,left,10,ITC_collect,467,k,0,0,40,432243,345210
21,19,female,Belgian,1,3,ITC,neutral,5,left,10,ITC_outcome,0,undefined,0,0,60,431221,346232
21,19,female,Belgian,1,4,guess,win,5,left,2,guess_start,1057,space,0,0,60,430163,347290
21,19,female,Belgian,1,4,guess,win,5,left,2,guess_choice,1358,j,0,0,60,428803,348650
21,19,female,Belgian,1,4,guess,win,5,left,2,guess_outcome,0,undefined,0,0,80,427241,350212
21,19,female,Belgian,1,4,ITC,win,5,left,2,ITC_start,1533,space,0,0,80,425707,351746
21,19,female,Belgian,1,4,ITC,win,5,left,2,ITC_choice,1399,f,0,0,80,424307,353146
21,19,female,Belgian,1,4,ITC,win,5,left,2,ITC_wait,0,undefined,0,0,80,419301,358152
21,19,female,Belgian,1,4,ITC,win,5,left,2,ITC_collect,785,k,0,0,80,418515,358938
21,19,female,Belgian,1,4,ITC,win,5,left,2,ITC_outcome,0,undefined,0,0,100,417511,359942
21,19,female,Belgian,1,5,guess,loss,5,left,11,guess_start,1203,space,0,0,100,416307,361146
21,19,female,Belgian,1,5,guess,loss,5,left,11,guess_choice,757,f,0,0,100,415547,361906
21,19,female,Belgian,1,5,guess,loss,5,left,11,guess_outcome,0,undefined,0,0,85,413981,363472
21,19,female,Belgian,1,5,ITC,loss,5,left,11,ITC_start,1105,space,0,0,85,412875,364578
21,19,female,Belgian,1,5,ITC,loss,5,left,11,ITC_choice,1031,j,0,0,85,411843,365610
21,19,female,Belgian,1,5,ITC,loss,5,left,11,ITC_wait,0,undefined,0,0,85,411841,365612
21,19,female,Belgian,1,5,ITC,loss,5,left,11,ITC_collect,1189,k,0,0,85,410651,366802
21,19,female,Belgian,1,5,ITC,loss,5,left,11,ITC_outcome,0,undefined,0,0,96,409631,367822
21,19,female,Belgian,1,6,guess,loss,10,left,6,guess_start,1130,space,0,0,96,408499,368954
21,19,female,Belgian,1,6,guess,loss,10,left,6,guess_choice,1326,f,0,0,96,407171,370282
21,19,female,Belgian,1,6,guess,loss,10,left,6,guess_outcome,0,undefined,0,0,81,405613,371840
21,19,female,Belgian,1,6,ITC,loss,10,left,6,ITC_start,1257,space,0,0,81,404356,373097
21,19,female,Belgian,1,6,ITC,loss,10,left,6,ITC_choice,1247,f,0,0,81,403108,374345
21,19,female,Belgian,1,6,ITC,loss,10,left,6,ITC_wait,0,undefined,0,0,81,393085,384368
21,19,female,Belgian,1,6,ITC,loss,10,left,6,ITC_collect,424,k,0,0,81,392660,384793
21,19,female,Belgian,1,6,ITC,loss,10,left,6,ITC_outcome,0,undefined,0,0,101,391653,385800
21,19,female,Belgian,1,7,guess,neutral,5,left,1,guess_start,711,space,0,0,101,390940,386513
21,19,female,Belgian,1,7,guess,neutral,5,left,1,guess_choice,798,f,0,0,101,390140,387313
21,19,female,Belgian,1,7,guess,neutral,5,left,1,guess_outcome,0,undefined,0,0,101,388573,388880
21,19,female,Belgian,1,7,ITC,neutral,5,left,1,ITC_start,743,space,0,0,101,387829,389624
21,19,female,Belgian,1,7,ITC,neutral,5,left,1,ITC_choice,1039,f,0,0,101,386788,390665
21,19,female,Belgian,1,7,ITC,neutral,5,left,1,ITC_wait,0,undefined,0,0,101,381783,395670
21,19,female,Belgian,1,7,ITC,neutral,5,left,1,ITC_collect,425,k,0,0,101,381356,396097
21,19,female,Belgian,1,7,ITC,neutral,5,left,1,ITC_outcome,0,undefined,0,0,121,380353,397100
21,19,female,Belgian,1,8,guess,loss,10,left,3,guess_start,723,space,0,0,121,379629,397824
21,19,female,Belgian,1,8,guess,loss,10,left,3,guess_choice,646,j,0,0,121,378981,398472
21,19,female,Belgian,1,8,guess,loss,10,left,3,guess_outcome,0,undefined,0,0,106,377413,400040
21,19,female,Belgian,1,8,ITC,loss,10,left,3,ITC_start,1119,space,0,0,106,376292,401161
21,19,female,Belgian,1,8,ITC,loss,10,left,3,ITC_choice,1270,f,0,0,106,375020,402433
21,19,female,Belgian,1,8,ITC,loss,10,left,3,ITC_wait,0,undefined,0,0,106,365006,412447
21,19,female,Belgian,1,8,ITC,loss,10,left,3,ITC_collect,296,k,0,0,106,364708,412745
21,19,female,Belgian,1,8,ITC,loss,10,left,3,ITC_outcome,0,undefined,0,0,126,363703,413750
21,19,female,Belgian,1,9,guess,neutral,5,left,13,guess_start,809,space,0,0,126,362893,414560
21,19,female,Belgian,1,9,guess,neutral,5,left,13,guess_choice,566,j,0,0,126,362324,415129
21,19,female,Belgian,1,9,guess,neutral,5,left,13,guess_outcome,0,undefined,0,0,126,360763,416690
21,19,female,Belgian,1,9,ITC,neutral,5,left,13,ITC_start,613,space,0,0,126,360148,417305
21,19,female,Belgian,1,9,ITC,neutral,5,left,13,ITC_choice,1023,j,0,0,126,359125,418328
21,19,female,Belgian,1,9,ITC,neutral,5,left,13,ITC_wait,0,undefined,0,0,126,359122,418331
21,19,female,Belgian,1,9,ITC,neutral,5,left,13,ITC_collect,973,k,0,0,126,358148,419305
21,19,female,Belgian,1,9,ITC,neutral,5,left,13,ITC_outcome,0,undefined,0,0,139,357143,420310
21,19,female,Belgian,1,10,guess,loss,5,left,16,guess_start,601,space,0,0,139,356541,420912
21,19,female,Belgian,1,10,guess,loss,5,left,16,guess_choice,878,j,0,0,139,355660,421793
21,19,female,Belgian,1,10,guess,loss,5,left,16,guess_outcome,0,undefined,0,0,124,354103,423350
21,19,female,Belgian,1,10,ITC,loss,5,left,16,ITC_start,649,space,0,0,124,353452,424001
21,19,female,Belgian,1,10,ITC,loss,5,left,16,ITC_choice,943,j,0,0,124,352508,424945
21,19,female,Belgian,1,10,ITC,loss,5,left,16,ITC_wait,0,undefined,0,0,124,352506,424947
21,19,female,Belgian,1,10,ITC,loss,5,left,16,ITC_collect,869,k,0,0,124,351636,425817
21,19,female,Belgian,1,10,ITC,loss,5,left,16,ITC_outcome,0,undefined,0,0,140,350622,426831
21,19,female,Belgian,1,11,guess,neutral,5,right,12,guess_start,721,space,0,0,140,349900,427553
21,19,female,Belgian,1,11,guess,neutral,5,right,12,guess_choice,718,f,0,0,140,349181,428272
21,19,female,Belgian,1,11,guess,neutral,5,right,12,guess_outcome,0,undefined,0,0,140,347612,429841
21,19,female,Belgian,1,11,ITC,neutral,5,right,12,ITC_start,615,space,0,0,140,346997,430456
21,19,female,Belgian,1,11,ITC,neutral,5,right,12,ITC_choice,1079,j,0,0,140,345916,431537
21,19,female,Belgian,1,11,ITC,neutral,5,right,12,ITC_wait,0,undefined,0,0,140,340907,436546
21,19,female,Belgian,1,11,ITC,neutral,5,right,12,ITC_collect,419,k,0,0,140,340487,436966
21,19,female,Belgian,1,11,ITC,neutral,5,right,12,ITC_outcome,0,undefined,0,0,160,339477,437976
21,19,female,Belgian,1,12,guess,neutral,5,right,14,guess_start,628,space,0,0,160,338847,438606
21,19,female,Belgian,1,12,guess,neutral,5,right,14,guess_choice,734,f,0,0,160,338111,439342
21,19,female,Belgian,1,12,guess,neutral,5,right,14,guess_outcome,0,undefined,0,0,160,336557,440896
21,19,female,Belgian,1,12,ITC,neutral,5,right,14,ITC_start,605,space,0,0,160,335951,441502
21,19,female,Belgian,1,12,ITC,neutral,5,right,14,ITC_choice,1431,f,0,0,160,334519,442934
21,19,female,Belgian,1,12,ITC,neutral,5,right,14,ITC_wait,0,undefined,0,0,160,334517,442936
21,19,female,Belgian,1,12,ITC,neutral,5,right,14,ITC_collect,1013,k,0,0,160,333503,443950
21,19,female,Belgian,1,12,ITC,neutral,5,right,14,ITC_outcome,0,undefined,0,0,174,332497,444956
21,19,female,Belgian,1,13,guess,win,10,left,3,guess_start,696,space,0,0,174,331799,445654
21,19,female,Belgian,1,13,guess,win,10,left,3,guess_choice,799,j,0,0,174,330999,446454
21,19,female,Belgian,1,13,guess,win,10,left,3,guess_outcome,0,undefined,0,0,194,329437,448016
21,19,female,Belgian,1,13,ITC,win,10,left,3,ITC_start,549,space,0,0,194,328887,448566
21,19,female,Belgian,1,13,ITC,win,10,left,3,ITC_choice,1071,f,0,0,194,327815,449638
21,19,female,Belgian,1,13,ITC,win,10,left,3,ITC_wait,0,undefined,0,0,194,317801,459652
21,19,female,Belgian,1,13,ITC,win,10,left,3,ITC_collect,369,k,0,0,194,317431,460022
21,19,female,Belgian,1,13,ITC,win,10,left,3,ITC_outcome,0,undefined,0,0,214,316414,461039
21,19,female,Belgian,1,14,guess,loss,5,right,15,guess_start,646,space,0,0,214,315767,461686
21,19,female,Belgian,1,14,guess,loss,5,right,15,guess_choice,758,j,0,0,214,315007,462446
21,19,female,Belgian,1,14,guess,loss,5,right,15,guess_outcome,0,undefined,0,0,199,313444,464009
21,19,female,Belgian,1,14,ITC,loss,5,right,15,ITC_start,668,space,0,0,199,312775,464678
21,19,female,Belgian,1,14,ITC,loss,5,right,15,ITC_choice,1151,j,0,0,199,311623,465830
21,19,female,Belgian,1,14,ITC,loss,5,right,15,ITC_wait,0,undefined,0,0,199,306614,470839
21,19,female,Belgian,1,14,ITC,loss,5,right,15,ITC_collect,518,k,0,0,199,306095,471358
21,19,female,Belgian,1,14,ITC,loss,5,right,15,ITC_outcome,0,undefined,0,0,219,305074,472379
21,19,female,Belgian,1,15,guess,loss,5,left,5,guess_start,626,space,0,0,219,304447,473006
21,19,female,Belgian,1,15,guess,loss,5,left,5,guess_choice,630,j,0,0,219,303815,473638
21,19,female,Belgian,1,15,guess,loss,5,left,5,guess_outcome,0,undefined,0,0,204,302244,475209
21,19,female,Belgian,1,15,ITC,loss,5,left,5,ITC_start,604,space,0,0,204,301639,475814
21,19,female,Belgian,1,15,ITC,loss,5,left,5,ITC_choice,1191,f,0,0,204,300447,477006
21,19,female,Belgian,1,15,ITC,loss,5,left,5,ITC_wait,0,undefined,0,0,204,295434,482019
21,19,female,Belgian,1,15,ITC,loss,5,left,5,ITC_collect,362,k,0,0,204,295071,482382
21,19,female,Belgian,1,15,ITC,loss,5,left,5,ITC_outcome,0,undefined,0,0,224,294064,483389
21,19,female,Belgian,1,16,guess,loss,5,left,6,guess_start,744,space,0,0,224,293319,484134
21,19,female,Belgian,1,16,guess,loss,5,left,6,guess_choice,614,j,0,0,224,292703,484750
21,19,female,Belgian,1,16,guess,loss,5,left,6,guess_outcome,0,undefined,0,0,209,291134,486319
21,19,female,Belgian,1,16,ITC,loss,5,left,6,ITC_start,1319,space,0,0,209,289815,487638
21,19,female,Belgian,1,16,ITC,loss,5,left,6,ITC_choice,1023,f,0,0,209,288791,488662
21,19,female,Belgian,1,16,ITC,loss,5,left,6,ITC_wait,0,undefined,0,0,209,283774,493679
21,19,female,Belgian,1,16,ITC,loss,5,left,6,ITC_collect,358,k,0,0,209,283415,494038
21,19,female,Belgian,1,16,ITC,loss,5,left,6,ITC_outcome,0,undefined,0,0,229,282394,495059
21,19,female,Belgian,1,17,guess,neutral,5,left,11,guess_start,626,space,0,0,229,281767,495686
21,19,female,Belgian,1,17,guess,neutral,5,left,11,guess_choice,774,f,0,0,229,280991,496462
21,19,female,Belgian,1,17,guess,neutral,5,left,11,guess_outcome,0,undefined,0,0,229,279424,498029
21,19,female,Belgian,1,17,ITC,neutral,5,left,11,ITC_start,584,space,0,0,229,278839,498614
21,19,female,Belgian,1,17,ITC,neutral,5,left,11,ITC_choice,735,j,0,0,229,278103,499350
21,19,female,Belgian,1,17,ITC,neutral,5,left,11,ITC_wait,0,undefined,0,0,229,278101,499352
21,19,female,Belgian,1,17,ITC,neutral,5,left,11,ITC_collect,861,k,0,0,229,277239,500214
21,19,female,Belgian,1,17,ITC,neutral,5,left,11,ITC_outcome,0,undefined,0,0,240,276233,501220
21,19,female,Belgian,1,18,guess,win,10,right,1,guess_start,593,space,0,0,240,275639,501814
21,19,female,Belgian,1,18,guess,win,10,right,1,guess_choice,1318,f,0,0,240,274319,503134
21,19,female,Belgian,1,18,guess,win,10,right,1,guess_outcome,0,undefined,0,0,260,272753,504700
21,19,female,Belgian,1,18,ITC,win,10,right,1,ITC_start,450,space,0,0,260,272302,505151
21,19,female,Belgian,1,18,ITC,win,10,right,1,ITC_choice,895,j,0,0,260,271407,506046
21,19,female,Belgian,1,18,ITC,win,10,right,1,ITC_wait,0,undefined,0,0,260,261396,516057
21,19,female,Belgian,1,18,ITC,win,10,right,1,ITC_collect,372,k,0,0,260,261023,516430
21,19,female,Belgian,1,18,ITC,win,10,right,1,ITC_outcome,0,undefined,0,0,280,260007,517446
21,19,female,Belgian,1,19,guess,win,5,left,1,guess_start,1039,space,0,0,280,258967,518486
21,19,female,Belgian,1,19,guess,win,5,left,1,guess_choice,654,j,0,0,280,258311,519142
21,19,female,Belgian,1,19,guess,win,5,left,1,guess_outcome,0,undefined,0,0,300,256747,520706
21,19,female,Belgian,1,19,ITC,win,5,left,1,ITC_start,859,space,0,0,300,255887,521566
21,19,female,Belgian,1,19,ITC,win,5,left,1,ITC_choice,1775,f,0,0,300,254111,523342
21,19,female,Belgian,1,19,ITC,win,5,left,1,ITC_wait,0,undefined,0,0,300,249097,528356
21,19,female,Belgian,1,19,ITC,win,5,left,1,ITC_collect,329,k,0,0,300,248767,528686
21,19,female,Belgian,1,19,ITC,win,5,left,1,ITC_outcome,0,undefined,0,0,320,247747,529706
21,19,female,Belgian,1,20,guess,neutral,10,left,6,guess_start,578,space,0,0,320,247167,530286
21,19,female,Belgian,1,20,guess,neutral,10,left,6,guess_choice,638,f,0,0,320,246527,530926
21,19,female,Belgian,1,20,guess,neutral,10,left,6,guess_outcome,0,undefined,0,0,320,244957,532496
21,19,female,Belgian,1,20,ITC,neutral,10,left,6,ITC_start,517,space,0,0,320,244439,533014
21,19,female,Belgian,1,20,ITC,neutral,10,left,6,ITC_choice,1495,f,0,0,320,242943,534510
21,19,female,Belgian,1,20,ITC,neutral,10,left,6,ITC_wait,0,undefined,0,0,320,232933,544520
21,19,female,Belgian,1,20,ITC,neutral,10,left,6,ITC_collect,277,k,0,0,320,232655,544798
21,19,female,Belgian,1,20,ITC,neutral,10,left,6,ITC_outcome,0,undefined,0,0,340,231651,545802
21,19,female,Belgian,1,21,guess,win,5,left,8,guess_start,747,space,0,0,340,230903,546550
21,19,female,Belgian,1,21,guess,win,5,left,8,guess_choice,582,j,0,0,340,230319,547134
21,19,female,Belgian,1,21,guess,win,5,left,8,guess_outcome,0,undefined,0,0,360,228751,548702
21,19,female,Belgian,1,21,ITC,win,5,left,8,ITC_start,752,space,0,0,360,227999,549454
21,19,female,Belgian,1,21,ITC,win,5,left,8,ITC_choice,767,j,0,0,360,227231,550222
21,19,female,Belgian,1,21,ITC,win,5,left,8,ITC_wait,0,undefined,0,0,360,227229,550224
21,19,female,Belgian,1,21,ITC,win,5,left,8,ITC_collect,901,k,0,0,360,226327,551126
21,19,female,Belgian,1,21,ITC,win,5,left,8,ITC_outcome,0,undefined,0,0,368,225321,552132
21,19,female,Belgian,1,22,guess,neutral,5,right,5,guess_start,537,space,0,0,368,224783,552670
21,19,female,Belgian,1,22,guess,neutral,5,right,5,guess_choice,782,f,0,0,368,223999,553454
21,19,female,Belgian,1,22,guess,neutral,5,right,5,guess_outcome,0,undefined,0,0,368,222431,555022
21,19,female,Belgian,1,22,ITC,neutral,5,right,5,ITC_start,720,space,0,0,368,221711,555742
21,19,female,Belgian,1,22,ITC,neutral,5,right,5,ITC_choice,1327,j,0,0,368,220391,557062
21,19,female,Belgian,1,22,ITC,neutral,5,right,5,ITC_wait,0,undefined,0,0,368,215389,562064
21,19,female,Belgian,1,22,ITC,neutral,5,right,5,ITC_collect,1189,k,0,0,368,214199,563254
21,19,female,Belgian,1,22,ITC,neutral,5,right,5,ITC_outcome,0,undefined,0,0,388,213189,564264
21,19,female,Belgian,1,23,guess,win,10,left,6,guess_start,677,space,0,0,388,212511,564942
21,19,female,Belgian,1,23,guess,win,10,left,6,guess_choice,598,j,0,0,388,211911,565542
21,19,female,Belgian,1,23,guess,win,10,left,6,guess_outcome,0,undefined,0,0,408,210339,567114
21,19,female,Belgian,1,23,ITC,win,10,left,6,ITC_start,771,space,0,0,408,209567,567886
21,19,female,Belgian,1,23,ITC,win,10,left,6,ITC_choice,1215,f,0,0,408,208351,569102
21,19,female,Belgian,1,23,ITC,win,10,left,6,ITC_wait,0,undefined,0,0,408,198343,579110
21,19,female,Belgian,1,23,ITC,win,10,left,6,ITC_collect,438,k,0,0,408,197903,579550
21,19,female,Belgian,1,23,ITC,win,10,left,6,ITC_outcome,0,undefined,0,0,428,196897,580556
21,19,female,Belgian,1,24,guess,loss,10,left,8,guess_start,377,space,0,0,428,196519,580934
21,19,female,Belgian,1,24,guess,loss,10,left,8,guess_choice,654,j,0,0,428,195863,581590
21,19,female,Belgian,1,24,guess,loss,10,left,8,guess_outcome,0,undefined,0,0,413,194297,583156
21,19,female,Belgian,1,24,ITC,loss,10,left,8,ITC_start,641,space,0,0,413,193655,583798
21,19,female,Belgian,1,24,ITC,loss,10,left,8,ITC_choice,1391,j,0,0,413,192263,585190
21,19,female,Belgian,1,24,ITC,loss,10,left,8,ITC_wait,0,undefined,0,0,413,192261,585192
21,19,female,Belgian,1,24,ITC,loss,10,left,8,ITC_collect,1077,k,0,0,413,191183,586270
21,19,female,Belgian,1,24,ITC,loss,10,left,8,ITC_outcome,0,undefined,0,0,421,190167,587286
21,19,female,Belgian,1,25,guess,neutral,5,left,2,guess_start,639,space,0,0,421,189527,587926
21,19,female,Belgian,1,25,guess,neutral,5,left,2,guess_choice,758,j,0,0,421,188767,588686
21,19,female,Belgian,1,25,guess,neutral,5,left,2,guess_outcome,0,undefined,0,0,421,187207,590246
21,19,female,Belgian,1,25,ITC,neutral,5,left,2,ITC_start,551,space,0,0,421,186655,590798
21,19,female,Belgian,1,25,ITC,neutral,5,left,2,ITC_choice,1143,f,0,0,421,185511,591942
21,19,female,Belgian,1,25,ITC,neutral,5,left,2,ITC_wait,0,undefined,0,0,421,180507,596946
21,19,female,Belgian,1,25,ITC,neutral,5,left,2,ITC_collect,611,k,0,0,421,179895,597558
21,19,female,Belgian,1,25,ITC,neutral,5,left,2,ITC_outcome,0,undefined,0,0,441,178887,598566
21,19,female,Belgian,1,26,guess,neutral,5,left,16,guess_start,623,space,0,0,441,178263,599190
21,19,female,Belgian,1,26,guess,neutral,5,left,16,guess_choice,606,j,0,0,441,177655,599798
21,19,female,Belgian,1,26,guess,neutral,5,left,16,guess_outcome,0,undefined,0,0,441,176097,601356
21,19,female,Belgian,1,26,ITC,neutral,5,left,16,ITC_start,577,space,0,0,441,175519,601934
21,19,female,Belgian,1,26,ITC,neutral,5,left,16,ITC_choice,967,j,0,0,441,174551,602902
21,19,female,Belgian,1,26,ITC,neutral,5,left,16,ITC_wait,0,undefined,0,0,441,174548,602905
21,19,female,Belgian,1,26,ITC,neutral,5,left,16,ITC_collect,684,k,0,0,441,173863,603590
21,19,female,Belgian,1,26,ITC,neutral,5,left,16,ITC_outcome,0,undefined,0,0,457,172857,604596
21,19,female,Belgian,1,27,guess,win,5,right,15,guess_start,681,space,0,0,457,172175,605278
21,19,female,Belgian,1,27,guess,win,5,right,15,guess_choice,638,f,0,0,457,171535,605918
21,19,female,Belgian,1,27,guess,win,5,right,15,guess_outcome,0,undefined,0,0,477,169967,607486
21,19,female,Belgian,1,27,ITC,win,5,right,15,ITC_start,407,space,0,0,477,169559,607894
21,19,female,Belgian,1,27,ITC,win,5,right,15,ITC_choice,975,j,0,0,477,168583,608870
21,19,female,Belgian,1,27,ITC,win,5,right,15,ITC_wait,0,undefined,0,0,477,163577,613876
21,19,female,Belgian,1,27,ITC,win,5,right,15,ITC_collect,521,k,0,0,477,163055,614398
21,19,female,Belgian,1,27,ITC,win,5,right,15,ITC_outcome,0,undefined,0,0,497,162037,615416
21,19,female,Belgian,1,28,guess,neutral,10,left,3,guess_start,580,space,0,0,497,161455,615998
21,19,female,Belgian,1,28,guess,neutral,10,left,3,guess_choice,574,j,0,0,497,160879,616574
21,19,female,Belgian,1,28,guess,neutral,10,left,3,guess_outcome,0,undefined,0,0,497,159299,618154
21,19,female,Belgian,1,28,ITC,neutral,10,left,3,ITC_start,778,space,0,0,497,158519,618934
21,19,female,Belgian,1,28,ITC,neutral,10,left,3,ITC_choice,1031,f,0,0,497,157487,619966
21,19,female,Belgian,1,28,ITC,neutral,10,left,3,ITC_wait,0,undefined,0,0,497,147480,629973
21,19,female,Belgian,1,28,ITC,neutral,10,left,3,ITC_collect,328,k,0,0,497,147151,630302
21,19,female,Belgian,1,28,ITC,neutral,10,left,3,ITC_outcome,0,undefined,0,0,517,146147,631306
21,19,female,Belgian,1,29,guess,loss,10,right,7,guess_start,667,space,0,0,517,145479,631974
21,19,female,Belgian,1,29,guess,loss,10,right,7,guess_choice,654,j,0,0,517,144823,632630
21,19,female,Belgian,1,29,guess,loss,10,right,7,guess_outcome,0,undefined,0,0,502,143260,634193
21,19,female,Belgian,1,29,ITC,loss,10,right,7,ITC_start,580,space,0,0,502,142679,634774
21,19,female,Belgian,1,29,ITC,loss,10,right,7,ITC_choice,1311,j,0,0,502,141367,636086
21,19,female,Belgian,1,29,ITC,loss,10,right,7,ITC_wait,0,undefined,0,0,502,131364,646089
21,19,female,Belgian,1,29,ITC,loss,10,right,7,ITC_collect,339,k,0,0,502,131023,646430
21,19,female,Belgian,1,29,ITC,loss,10,right,7,ITC_outcome,0,undefined,0,0,522,130010,647443
21,19,female,Belgian,1,30,guess,neutral,5,left,6,guess_start,290,space,0,0,522,129719,647734
21,19,female,Belgian,1,30,guess,neutral,5,left,6,guess_choice,598,j,0,0,522,129119,648334
21,19,female,Belgian,1,30,guess,neutral,5,left,6,guess_outcome,0,undefined,0,0,522,127560,649893
21,19,female,Belgian,1,30,ITC,neutral,5,left,6,ITC_start,632,space,0,0,522,126927,650526
21,19,female,Belgian,1,30,ITC,neutral,5,left,6,ITC_choice,1095,f,0,0,522,125831,651622
21,19,female,Belgian,1,30,ITC,neutral,5,left,6,ITC_wait,0,undefined,0,0,522,120820,656633
21,19,female,Belgian,1,30,ITC,neutral,5,left,6,ITC_collect,324,k,0,0,522,120495,656958
21,19,female,Belgian,1,30,ITC,neutral,5,left,6,ITC_outcome,0,undefined,0,0,542,119480,657973
21,19,female,Belgian,1,31,guess,win,10,left,5,guess_start,272,space,0,0,542,119207,658246
21,19,female,Belgian,1,31,guess,win,10,left,5,guess_choice,894,j,0,0,542,118311,659142
21,19,female,Belgian,1,31,guess,win,10,left,5,guess_outcome,0,undefined,0,0,562,116740,660713
21,19,female,Belgian,1,31,ITC,win,10,left,5,ITC_start,444,space,0,0,562,116295,661158
21,19,female,Belgian,1,31,ITC,win,10,left,5,ITC_choice,1655,f,0,0,562,114639,662814
21,19,female,Belgian,1,31,ITC,win,10,left,5,ITC_wait,0,undefined,0,0,562,104636,672817
21,19,female,Belgian,1,31,ITC,win,10,left,5,ITC_collect,316,k,0,0,562,104319,673134
21,19,female,Belgian,1,31,ITC,win,10,left,5,ITC_outcome,0,undefined,0,0,582,103316,674137
21,19,female,Belgian,1,32,guess,loss,5,right,10,guess_start,491,space,0,0,582,102823,674630
21,19,female,Belgian,1,32,guess,loss,5,right,10,guess_choice,919,f,0,0,582,101903,675550
21,19,female,Belgian,1,32,guess,loss,5,right,10,guess_outcome,0,undefined,0,0,567,100345,677108
21,19,female,Belgian,1,32,ITC,loss,5,right,10,ITC_start,481,space,0,0,567,99863,677590
21,19,female,Belgian,1,32,ITC,loss,5,right,10,ITC_choice,1248,f,0,0,567,98615,678838
21,19,female,Belgian,1,32,ITC,loss,5,right,10,ITC_wait,0,undefined,0,0,567,98613,678840
21,19,female,Belgian,1,32,ITC,loss,5,right,10,ITC_collect,596,k,0,0,567,98015,679438
21,19,female,Belgian,1,32,ITC,loss,5,right,10,ITC_outcome,0,undefined,0,0,577,97009,680444
21,19,female,Belgian,1,33,guess,loss,10,left,1,guess_start,745,space,0,0,577,96263,681190
21,19,female,Belgian,1,33,guess,loss,10,left,1,guess_choice,662,j,0,0,577,95599,681854
21,19,female,Belgian,1,33,guess,loss,10,left,1,guess_outcome,0,undefined,0,0,562,94035,683418
21,19,female,Belgian,1,33,ITC,loss,10,left,1,ITC_start,539,space,0,0,562,93495,683958
21,19,female,Belgian,1,33,ITC,loss,10,left,1,ITC_choice,1335,f,0,0,562,92159,685294
21,19,female,Belgian,1,33,ITC,loss,10,left,1,ITC_wait,0,undefined,0,0,562,82138,695315
21,19,female,Belgian,1,33,ITC,loss,10,left,1,ITC_collect,314,k,0,0,562,81823,695630
21,19,female,Belgian,1,33,ITC,loss,10,left,1,ITC_outcome,0,undefined,0,0,582,80810,696643
21,19,female,Belgian,1,34,guess,loss,5,right,9,guess_start,426,space,0,0,582,80383,697070
21,19,female,Belgian,1,34,guess,loss,5,right,9,guess_choice,742,j,0,0,582,79639,697814
21,19,female,Belgian,1,34,guess,loss,5,right,9,guess_outcome,0,undefined,0,0,567,78070,699383
21,19,female,Belgian,1,34,ITC,loss,5,right,9,ITC_start,606,space,0,0,567,77463,699990
21,19,female,Belgian,1,34,ITC,loss,5,right,9,ITC_choice,1335,f,0,0,567,76127,701326
21,19,female,Belgian,1,34,ITC,loss,5,right,9,ITC_wait,0,undefined,0,0,567,76125,701328
21,19,female,Belgian,1,34,ITC,loss,5,right,9,ITC_collect,669,k,0,0,567,75455,701998
21,19,female,Belgian,1,34,ITC,loss,5,right,9,ITC_outcome,0,undefined,0,0,576,74450,703003
21,19,female,Belgian,1,35,guess,loss,10,right,5,guess_start,594,space,0,0,576,73855,703598
21,19,female,Belgian,1,35,guess,loss,10,right,5,guess_choice,854,f,0,0,576,72999,704454
21,19,female,Belgian,1,35,guess,loss,10,right,5,guess_outcome,0,undefined,0,0,561,71430,706023
21,19,female,Belgian,1,35,ITC,loss,10,right,5,ITC_start,430,space,0,0,561,70999,706454
21,19,female,Belgian,1,35,ITC,loss,10,right,5,ITC_choice,1023,j,0,0,561,69975,707478
21,19,female,Belgian,1,35,ITC,loss,10,right,5,ITC_wait,0,undefined,0,0,561,59967,717486
21,19,female,Belgian,1,35,ITC,loss,10,right,5,ITC_collect,311,k,0,0,561,59655,717798
21,19,female,Belgian,1,35,ITC,loss,10,right,5,ITC_outcome,0,undefined,0,0,581,58653,718800
21,19,female,Belgian,1,36,guess,loss,5,left,4,guess_start,276,space,0,0,581,58375,719078
21,19,female,Belgian,1,36,guess,loss,5,left,4,guess_choice,622,j,0,0,581,57751,719702
21,19,female,Belgian,1,36,guess,loss,5,left,4,guess_outcome,0,undefined,0,0,566,56183,721270
21,19,female,Belgian,1,36,ITC,loss,5,left,4,ITC_start,487,space,0,0,566,55695,721758
21,19,female,Belgian,1,36,ITC,loss,5,left,4,ITC_choice,1463,f,0,0,566,54231,723222
21,19,female,Belgian,1,36,ITC,loss,5,left,4,ITC_wait,0,undefined,0,0,566,49223,728230
21,19,female,Belgian,1,36,ITC,loss,5,left,4,ITC_collect,567,k,0,0,566,48655,728798
21,19,female,Belgian,1,36,ITC,loss,5,left,4,ITC_outcome,0,undefined,0,0,586,47643,729810
21,19,female,Belgian,1,37,guess,win,5,left,5,guess_start,322,space,0,0,586,47319,730134
21,19,female,Belgian,1,37,guess,win,5,left,5,guess_choice,686,j,0,0,586,46631,730822
21,19,female,Belgian,1,37,guess,win,5,left,5,guess_outcome,0,undefined,0,0,606,45072,732381
21,19,female,Belgian,1,37,ITC,win,5,left,5,ITC_start,424,space,0,0,606,44647,732806
21,19,female,Belgian,1,37,ITC,win,5,left,5,ITC_choice,1367,f,0,0,606,43279,734174
21,19,female,Belgian,1,37,ITC,win,5,left,5,ITC_wait,0,undefined,0,0,606,38262,739191
21,19,female,Belgian,1,37,ITC,win,5,left,5,ITC_collect,262,k,0,0,606,37999,739454
21,19,female,Belgian,1,37,ITC,win,5,left,5,ITC_outcome,0,undefined,0,0,626,36982,740471
21,19,female,Belgian,1,38,guess,win,5,right,13,guess_start,262,space,0,0,626,36719,740734
21,19,female,Belgian,1,38,guess,win,5,right,13,guess_choice,678,j,0,0,626,36039,741414
21,19,female,Belgian,1,38,guess,win,5,right,13,guess_outcome,0,undefined,0,0,646,34472,742981
21,19,female,Belgian,1,38,ITC,win,5,right,13,ITC_start,408,space,0,0,646,34063,743390
21,19,female,Belgian,1,38,ITC,win,5,right,13,ITC_choice,1063,f,0,0,646,32999,744454
21,19,female,Belgian,1,38,ITC,win,5,right,13,ITC_wait,0,undefined,0,0,646,32996,744457
21,19,female,Belgian,1,38,ITC,win,5,right,13,ITC_collect,556,k,0,0,646,32439,745014
21,19,female,Belgian,1,38,ITC,win,5,right,13,ITC_outcome,0,undefined,0,0,659,31432,746021
21,19,female,Belgian,1,39,guess,loss,5,left,3,guess_start,480,space,0,0,659,30951,746502
21,19,female,Belgian,1,39,guess,loss,5,left,3,guess_choice,670,f,0,0,659,30279,747174
21,19,female,Belgian,1,39,guess,loss,5,left,3,guess_outcome,0,undefined,0,0,644,28722,748731
21,19,female,Belgian,1,39,ITC,loss,5,left,3,ITC_start,562,space,0,0,644,28159,749294
21,19,female,Belgian,1,39,ITC,loss,5,left,3,ITC_choice,983,f,0,0,644,27175,750278
21,19,female,Belgian,1,39,ITC,loss,5,left,3,ITC_wait,0,undefined,0,0,644,22172,755281
21,19,female,Belgian,1,39,ITC,loss,5,left,3,ITC_collect,244,k,0,0,644,21927,755526
21,19,female,Belgian,1,39,ITC,loss,5,left,3,ITC_outcome,0,undefined,0,0,664,20912,756541
21,19,female,Belgian,1,40,guess,neutral,5,left,3,guess_start,448,space,0,0,664,20463,756990
21,19,female,Belgian,1,40,guess,neutral,5,left,3,guess_choice,646,f,0,0,664,19815,757638
21,19,female,Belgian,1,40,guess,neutral,5,left,3,guess_outcome,0,undefined,0,0,664,18262,759191
21,19,female,Belgian,1,40,ITC,neutral,5,left,3,ITC_start,726,space,0,0,664,17535,759918
21,19,female,Belgian,1,40,ITC,neutral,5,left,3,ITC_choice,975,f,0,0,664,16559,760894
21,19,female,Belgian,1,40,ITC,neutral,5,left,3,ITC_wait,0,undefined,0,0,664,11542,765911
21,19,female,Belgian,1,40,ITC,neutral,5,left,3,ITC_collect,230,k,0,0,664,11311,766142
21,19,female,Belgian,1,40,ITC,neutral,5,left,3,ITC_outcome,0,undefined,0,0,684,10292,767161
21,19,female,Belgian,1,41,guess,win,5,right,7,guess_start,291,space,0,0,684,9999,767454
21,19,female,Belgian,1,41,guess,win,5,right,7,guess_choice,822,j,0,0,684,9175,768278
21,19,female,Belgian,1,41,guess,win,5,right,7,guess_outcome,0,undefined,0,0,704,7612,769841
21,19,female,Belgian,1,41,ITC,win,5,right,7,ITC_start,588,space,0,0,704,7023,770430
21,19,female,Belgian,1,41,ITC,win,5,right,7,ITC_choice,1054,j,0,0,704,5967,771486
21,19,female,Belgian,1,41,ITC,win,5,right,7,ITC_wait,0,undefined,0,0,704,962,776491
21,19,female,Belgian,1,41,ITC,win,5,right,7,ITC_collect,298,k,0,0,704,663,776790
21,19,female,Belgian,1,41,ITC,win,5,right,7,ITC_outcome,0,undefined,0,0,724,-18,777471
21,19,female,Belgian,2,42,guess,win,5,right,11,guess_start,3111,space,0,0,0,476902,802224
21,19,female,Belgian,2,42,guess,win,5,right,11,guess_choice,798,j,0,0,0,476102,803024
21,19,female,Belgian,2,42,guess,win,5,right,11,guess_outcome,0,undefined,0,0,20,474536,804590
21,19,female,Belgian,2,42,ITC,win,5,right,11,ITC_start,746,space,0,0,20,473790,805336
21,19,female,Belgian,2,42,ITC,win,5,right,11,ITC_choice,807,j,0,0,20,472982,806144
21,19,female,Belgian,2,42,ITC,win,5,right,11,ITC_wait,0,undefined,0,0,20,467976,811150
21,19,female,Belgian,2,42,ITC,win,5,right,11,ITC_collect,313,k,0,0,20,467662,811464
21,19,female,Belgian,2,42,ITC,win,5,right,11,ITC_outcome,0,undefined,0,0,40,466646,812480
21,19,female,Belgian,2,43,guess,neutral,5,left,4,guess_start,399,space,0,0,40,466246,812880
21,19,female,Belgian,2,43,guess,neutral,5,left,4,guess_choice,606,f,0,0,40,465638,813488
21,19,female,Belgian,2,43,guess,neutral,5,left,4,guess_outcome,0,undefined,0,0,40,464076,815050
21,19,female,Belgian,2,43,ITC,neutral,5,left,4,ITC_start,661,space,0,0,40,463414,815712
21,19,female,Belgian,2,43,ITC,neutral,5,left,4,ITC_choice,1071,f,0,0,40,462342,816784
21,19,female,Belgian,2,43,ITC,neutral,5,left,4,ITC_wait,0,undefined,0,0,40,457326,821800
21,19,female,Belgian,2,43,ITC,neutral,5,left,4,ITC_collect,247,k,0,0,40,457078,822048
21,19,female,Belgian,2,43,ITC,neutral,5,left,4,ITC_outcome,0,undefined,0,0,60,456056,823070
21,19,female,Belgian,2,44,guess,win,10,right,4,guess_start,617,space,0,0,60,455438,823688
21,19,female,Belgian,2,44,guess,win,10,right,4,guess_choice,678,j,0,0,60,454758,824368
21,19,female,Belgian,2,44,guess,win,10,right,4,guess_outcome,0,undefined,0,0,80,453196,825930
21,19,female,Belgian,2,44,ITC,win,10,right,4,ITC_start,789,space,0,0,80,452406,826720
21,19,female,Belgian,2,44,ITC,win,10,right,4,ITC_choice,1047,f,0,0,80,451358,827768
21,19,female,Belgian,2,44,ITC,win,10,right,4,ITC_wait,0,undefined,0,0,80,451356,827770
21,19,female,Belgian,2,44,ITC,win,10,right,4,ITC_collect,941,k,0,0,80,450414,828712
21,19,female,Belgian,2,44,ITC,win,10,right,4,ITC_outcome,0,undefined,0,0,84,449401,829725
21,19,female,Belgian,2,45,guess,loss,5,right,14,guess_start,530,space,0,0,84,448870,830256
21,19,female,Belgian,2,45,guess,loss,5,right,14,guess_choice,614,j,0,0,84,448254,830872
21,19,female,Belgian,2,45,guess,loss,5,right,14,guess_outcome,0,undefined,0,0,69,446686,832440
21,19,female,Belgian,2,45,ITC,loss,5,right,14,ITC_start,607,space,0,0,69,446078,833048
21,19,female,Belgian,2,45,ITC,loss,5,right,14,ITC_choice,1223,f,0,0,69,444854,834272
21,19,female,Belgian,2,45,ITC,loss,5,right,14,ITC_wait,0,undefined,0,0,69,444852,834274
21,19,female,Belgian,2,45,ITC,loss,5,right,14,ITC_collect,557,k,0,0,69,444294,834832
21,19,female,Belgian,2,45,ITC,loss,5,right,14,ITC_outcome,0,undefined,0,0,83,443276,835850
21,19,female,Belgian,2,46,guess,loss,5,left,13,guess_start,661,space,0,0,83,442614,836512
21,19,female,Belgian,2,46,guess,loss,5,left,13,guess_choice,462,f,0,0,83,442150,836976
21,19,female,Belgian,2,46,guess,loss,5,left,13,guess_outcome,0,undefined,0,0,68,440590,838536
21,19,female,Belgian,2,46,ITC,loss,5,left,13,ITC_start,480,space,0,0,68,440110,839016
21,19,female,Belgian,2,46,ITC,loss,5,left,13,ITC_choice,1007,j,0,0,68,439102,840024
21,19,female,Belgian,2,46,ITC,loss,5,left,13,ITC_wait,0,undefined,0,0,68,439099,840027
21,19,female,Belgian,2,46,ITC,loss,5,left,13,ITC_collect,620,k,0,0,68,438478,840648
21,19,female,Belgian,2,46,ITC,loss,5,left,13,ITC_outcome,0,undefined,0,0,81,437471,841655
21,19,female,Belgian,2,47,guess,loss,5,left,12,guess_start,527,space,0,0,81,436942,842184
21,19,female,Belgian,2,47,guess,loss,5,left,12,guess_choice,726,j,0,0,81,436214,842912
21,19,female,Belgian,2,47,guess,loss,5,left,12,guess_outcome,0,undefined,0,0,66,434660,844466
21,19,female,Belgian,2,47,ITC,loss,5,left,12,ITC_start,766,space,0,0,66,433894,845232
21,19,female,Belgian,2,47,ITC,loss,5,left,12,ITC_choice,959,f,0,0,66,432934,846192
21,19,female,Belgian,2,47,ITC,loss,5,left,12,ITC_wait,0,undefined,0,0,66,427920,851206
21,19,female,Belgian,2,47,ITC,loss,5,left,12,ITC_collect,290,k,0,0,66,427630,851496
21,19,female,Belgian,2,47,ITC,loss,5,left,12,ITC_outcome,0,undefined,0,0,86,426610,852516
21,19,female,Belgian,2,48,guess,loss,10,right,2,guess_start,468,space,0,0,86,426142,852984
21,19,female,Belgian,2,48,guess,loss,10,right,2,guess_choice,543,j,0,0,86,425598,853528
21,19,female,Belgian,2,48,guess,loss,10,right,2,guess_outcome,0,undefined,0,0,71,424030,855096
21,19,female,Belgian,2,48,ITC,loss,10,right,2,ITC_start,560,space,0,0,71,423469,855657
21,19,female,Belgian,2,48,ITC,loss,10,right,2,ITC_choice,1167,j,0,0,71,422302,856824
21,19,female,Belgian,2,48,ITC,loss,10,right,2,ITC_wait,0,undefined,0,0,71,412272,866854
21,19,female,Belgian,2,48,ITC,loss,10,right,2,ITC_collect,246,k,0,0,71,412024,867102
21,19,female,Belgian,2,48,ITC,loss,10,right,2,ITC_outcome,0,undefined,0,0,91,411011,868115
21,19,female,Belgian,2,49,guess,win,5,right,9,guess_start,338,space,0,0,91,410672,868454
21,19,female,Belgian,2,49,guess,win,5,right,9,guess_choice,558,j,0,0,91,410112,869014
21,19,female,Belgian,2,49,guess,win,5,right,9,guess_outcome,0,undefined,0,0,111,408551,870575
21,19,female,Belgian,2,49,ITC,win,5,right,9,ITC_start,582,space,0,0,111,407968,871158
21,19,female,Belgian,2,49,ITC,win,5,right,9,ITC_choice,887,j,0,0,111,407080,872046
21,19,female,Belgian,2,49,ITC,win,5,right,9,ITC_wait,0,undefined,0,0,111,402061,877065
21,19,female,Belgian,2,49,ITC,win,5,right,9,ITC_collect,252,k,0,0,111,401808,877318
21,19,female,Belgian,2,49,ITC,win,5,right,9,ITC_outcome,0,undefined,0,0,131,400801,878325
21,19,female,Belgian,2,50,guess,neutral,5,right,8,guess_start,375,space,0,0,131,400424,878702
21,19,female,Belgian,2,50,guess,neutral,5,right,8,guess_choice,606,f,0,0,131,399816,879310
21,19,female,Belgian,2,50,guess,neutral,5,right,8,guess_outcome,0,undefined,0,0,131,398261,880865
21,19,female,Belgian,2,50,ITC,neutral,5,right,8,ITC_start,420,space,0,0,131,397840,881286
21,19,female,Belgian,2,50,ITC,neutral,5,right,8,ITC_choice,1079,j,0,0,131,396760,882366
21,19,female,Belgian,2,50,ITC,neutral,5,right,8,ITC_wait,0,undefined,0,0,131,391751,887375
21,19,female,Belgian,2,50,ITC,neutral,5,right,8,ITC_collect,246,k,0,0,131,391504,887622
21,19,female,Belgian,2,50,ITC,neutral,5,right,8,ITC_outcome,0,undefined,0,0,151,390501,888625
21,19,female,Belgian,2,51,guess,win,5,right,16,guess_start,643,space,0,0,151,389856,889270
21,19,female,Belgian,2,51,guess,win,5,right,16,guess_choice,790,f,0,0,151,389064,890062
21,19,female,Belgian,2,51,guess,win,5,right,16,guess_outcome,0,undefined,0,0,171,387501,891625
21,19,female,Belgian,2,51,ITC,win,5,right,16,ITC_start,372,space,0,0,171,387128,891998
21,19,female,Belgian,2,51,ITC,win,5,right,16,ITC_choice,1095,f,0,0,171,386032,893094
21,19,female,Belgian,2,51,ITC,win,5,right,16,ITC_wait,0,undefined,0,0,171,386030,893096
21,19,female,Belgian,2,51,ITC,win,5,right,16,ITC_collect,533,k,0,0,171,385496,893630
21,19,female,Belgian,2,51,ITC,win,5,right,16,ITC_outcome,0,undefined,0,0,187,384481,894645
21,19,female,Belgian,2,52,guess,neutral,10,right,1,guess_start,455,space,0,0,187,384024,895102
21,19,female,Belgian,2,52,guess,neutral,10,right,1,guess_choice,726,f,0,0,187,383296,895830
21,19,female,Belgian,2,52,guess,neutral,10,right,1,guess_outcome,0,undefined,0,0,187,381741,897385
21,19,female,Belgian,2,52,ITC,neutral,10,right,1,ITC_start,428,space,0,0,187,381312,897814
21,19,female,Belgian,2,52,ITC,neutral,10,right,1,ITC_choice,1295,j,0,0,187,380016,899110
21,19,female,Belgian,2,52,ITC,neutral,10,right,1,ITC_wait,0,undefined,0,0,187,370010,909116
21,19,female,Belgian,2,52,ITC,neutral,10,right,1,ITC_collect,217,k,0,0,187,369792,909334
21,19,female,Belgian,2,52,ITC,neutral,10,right,1,ITC_outcome,0,undefined,0,0,207,368790,910336
21,19,female,Belgian,2,53,guess,win,10,left,7,guess_start,324,space,0,0,207,368464,910662
21,19,female,Belgian,2,53,guess,win,10,left,7,guess_choice,718,j,0,0,207,367744,911382
21,19,female,Belgian,2,53,guess,win,10,left,7,guess_outcome,0,undefined,0,0,227,366180,912946
21,19,female,Belgian,2,53,ITC,win,10,left,7,ITC_start,435,space,0,0,227,365744,913382
21,19,female,Belgian,2,53,ITC,win,10,left,7,ITC_choice,1247,f,0,0,227,364496,914630
21,19,female,Belgian,2,53,ITC,win,10,left,7,ITC_wait,0,undefined,0,0,227,354488,924638
21,19,female,Belgian,2,53,ITC,win,10,left,7,ITC_collect,247,k,0,0,227,354240,924886
21,19,female,Belgian,2,53,ITC,win,10,left,7,ITC_outcome,0,undefined,0,0,247,353237,925889
21,19,female,Belgian,2,54,guess,win,5,right,14,guess_start,324,space,0,0,247,352912,926214
21,19,female,Belgian,2,54,guess,win,5,right,14,guess_choice,542,j,0,0,247,352368,926758
21,19,female,Belgian,2,54,guess,win,5,right,14,guess_outcome,0,undefined,0,0,267,350798,928328
21,19,female,Belgian,2,54,ITC,win,5,right,14,ITC_start,452,space,0,0,267,350345,928781
21,19,female,Belgian,2,54,ITC,win,5,right,14,ITC_choice,863,f,0,0,267,349481,929645
21,19,female,Belgian,2,54,ITC,win,5,right,14,ITC_wait,0,undefined,0,0,267,349478,929648
21,19,female,Belgian,2,54,ITC,win,5,right,14,ITC_collect,485,k,0,0,267,348993,930133
21,19,female,Belgian,2,54,ITC,win,5,right,14,ITC_outcome,0,undefined,0,0,281,347978,931148
21,19,female,Belgian,2,55,guess,neutral,10,right,7,guess_start,647,space,0,0,281,347329,931797
21,19,female,Belgian,2,55,guess,neutral,10,right,7,guess_choice,534,f,0,0,281,346793,932333
21,19,female,Belgian,2,55,guess,neutral,10,right,7,guess_outcome,0,undefined,0,0,281,345238,933888
21,19,female,Belgian,2,55,ITC,neutral,10,right,7,ITC_start,740,space,0,0,281,344497,934629
21,19,female,Belgian,2,55,ITC,neutral,10,right,7,ITC_choice,1031,j,0,0,281,343465,935661
21,19,female,Belgian,2,55,ITC,neutral,10,right,7,ITC_wait,0,undefined,0,0,281,333443,945683
21,19,female,Belgian,2,55,ITC,neutral,10,right,7,ITC_collect,289,k,0,0,281,333153,945973
21,19,female,Belgian,2,55,ITC,neutral,10,right,7,ITC_outcome,0,undefined,0,0,301,332150,946976
21,19,female,Belgian,2,56,guess,win,5,right,3,guess_start,396,space,0,0,301,331753,947373
21,19,female,Belgian,2,56,guess,win,5,right,3,guess_choice,590,j,0,0,301,331161,947965
21,19,female,Belgian,2,56,guess,win,5,right,3,guess_outcome,0,undefined,0,0,321,329590,949536
21,19,female,Belgian,2,56,ITC,win,5,right,3,ITC_start,388,space,0,0,321,329201,949925
21,19,female,Belgian,2,56,ITC,win,5,right,3,ITC_choice,1431,j,0,0,321,327769,951357
21,19,female,Belgian,2,56,ITC,win,5,right,3,ITC_wait,0,undefined,0,0,321,322764,956362
21,19,female,Belgian,2,56,ITC,win,5,right,3,ITC_collect,250,k,0,0,321,322513,956613
21,19,female,Belgian,2,56,ITC,win,5,right,3,ITC_outcome,0,undefined,0,0,341,321499,957627
21,19,female,Belgian,2,57,guess,neutral,10,left,2,guess_start,513,space,0,0,341,320985,958141
21,19,female,Belgian,2,57,guess,neutral,10,left,2,guess_choice,526,j,0,0,341,320457,958669
21,19,female,Belgian,2,57,guess,neutral,10,left,2,guess_outcome,0,undefined,0,0,341,318899,960227
21,19,female,Belgian,2,57,ITC,neutral,10,left,2,ITC_start,561,space,0,0,341,318337,960789
21,19,female,Belgian,2,57,ITC,neutral,10,left,2,ITC_choice,1119,f,0,0,341,317217,961909
21,19,female,Belgian,2,57,ITC,neutral,10,left,2,ITC_wait,0,undefined,0,0,341,307207,971919
21,19,female,Belgian,2,57,ITC,neutral,10,left,2,ITC_collect,293,k,0,0,341,306913,972213
21,19,female,Belgian,2,57,ITC,neutral,10,left,2,ITC_outcome,0,undefined,0,0,361,305891,973235
21,19,female,Belgian,2,58,guess,neutral,10,right,8,guess_start,433,space,0,0,361,305457,973669
21,19,female,Belgian,2,58,guess,neutral,10,right,8,guess_choice,502,j,0,0,361,304953,974173
21,19,female,Belgian,2,58,guess,neutral,10,right,8,guess_outcome,0,undefined,0,0,361,303382,975744
21,19,female,Belgian,2,58,ITC,neutral,10,right,8,ITC_start,612,space,0,0,361,302769,976357
21,19,female,Belgian,2,58,ITC,neutral,10,right,8,ITC_choice,1031,j,0,0,361,301737,977389
21,19,female,Belgian,2,58,ITC,neutral,10,right,8,ITC_wait,0,undefined,0,0,361,291733,987393
21,19,female,Belgian,2,58,ITC,neutral,10,right,8,ITC_collect,267,k,0,0,361,291464,987662
21,19,female,Belgian,2,58,ITC,neutral,10,right,8,ITC_outcome,0,undefined,0,0,381,290452,988674
21,19,female,Belgian,2,59,guess,neutral,5,right,7,guess_start,435,space,0,0,381,290016,989110
21,19,female,Belgian,2,59,guess,neutral,5,right,7,guess_choice,558,f,0,0,381,289456,989670
21,19,female,Belgian,2,59,guess,neutral,5,right,7,guess_outcome,0,undefined,0,0,381,287902,991224
21,19,female,Belgian,2,59,ITC,neutral,5,right,7,ITC_start,381,space,0,0,381,287520,991606
21,19,female,Belgian,2,59,ITC,neutral,5,right,7,ITC_choice,1135,j,0,0,381,286384,992742
21,19,female,Belgian,2,59,ITC,neutral,5,right,7,ITC_wait,0,undefined,0,0,381,281382,997744
21,19,female,Belgian,2,59,ITC,neutral,5,right,7,ITC_collect,261,k,0,0,381,281120,998006
21,19,female,Belgian,2,59,ITC,neutral,5,right,7,ITC_outcome,0,undefined,0,0,401,280102,999024
21,19,female,Belgian,2,60,guess,loss,5,left,1,guess_start,485,space,0,0,401,279616,999510
21,19,female,Belgian,2,60,guess,loss,5,left,1,guess_choice,662,f,0,0,401,278952,1000174
21,19,female,Belgian,2,60,guess,loss,5,left,1,guess_outcome,0,undefined,0,0,386,277392,1001734
21,19,female,Belgian,2,60,ITC,loss,5,left,1,ITC_start,431,space,0,0,386,276960,1002166
21,19,female,Belgian,2,60,ITC,loss,5,left,1,ITC_choice,1567,f,0,0,386,275392,1003734
21,19,female,Belgian,2,60,ITC,loss,5,left,1,ITC_wait,0,undefined,0,0,386,270372,1008754
21,19,female,Belgian,2,60,ITC,loss,5,left,1,ITC_collect,250,k,0,0,386,270120,1009006
21,19,female,Belgian,2,60,ITC,loss,5,left,1,ITC_outcome,0,undefined,0,0,406,269102,1010024
21,19,female,Belgian,2,61,guess,loss,5,left,2,guess_start,372,space,0,0,406,268728,1010398
21,19,female,Belgian,2,61,guess,loss,5,left,2,guess_choice,678,j,0,0,406,268048,1011078
21,19,female,Belgian,2,61,guess,loss,5,left,2,guess_outcome,0,undefined,0,0,391,266492,1012634
21,19,female,Belgian,2,61,ITC,loss,5,left,2,ITC_start,370,space,0,0,391,266120,1013006
21,19,female,Belgian,2,61,ITC,loss,5,left,2,ITC_choice,847,f,0,0,391,265273,1013853
21,19,female,Belgian,2,61,ITC,loss,5,left,2,ITC_wait,0,undefined,0,0,391,260262,1018864
21,19,female,Belgian,2,61,ITC,loss,5,left,2,ITC_collect,325,k,0,0,391,259936,1019190
21,19,female,Belgian,2,61,ITC,loss,5,left,2,ITC_outcome,0,undefined,0,0,411,258922,1020204
21,19,female,Belgian,2,62,guess,neutral,5,right,15,guess_start,328,space,0,0,411,258592,1020534
21,19,female,Belgian,2,62,guess,neutral,5,right,15,guess_choice,454,j,0,0,411,258136,1020990
21,19,female,Belgian,2,62,guess,neutral,5,right,15,guess_outcome,0,undefined,0,0,411,256582,1022544
21,19,female,Belgian,2,62,ITC,neutral,5,right,15,ITC_start,380,space,0,0,411,256200,1022926
21,19,female,Belgian,2,62,ITC,neutral,5,right,15,ITC_choice,799,f,0,0,411,255400,1023726
21,19,female,Belgian,2,62,ITC,neutral,5,right,15,ITC_wait,0,undefined,0,0,411,255398,1023728
21,19,female,Belgian,2,62,ITC,neutral,5,right,15,ITC_collect,469,k,0,0,411,254928,1024198
21,19,female,Belgian,2,62,ITC,neutral,5,right,15,ITC_outcome,0,undefined,0,0,426,253922,1025204
21,19,female,Belgian,2,63,guess,win,5,right,4,guess_start,344,space,0,0,426,253576,1025550
21,19,female,Belgian,2,63,guess,win,5,right,4,guess_choice,646,j,0,0,426,252928,1026198
21,19,female,Belgian,2,63,guess,win,5,right,4,guess_outcome,0,undefined,0,0,446,251362,1027764
21,19,female,Belgian,2,63,ITC,win,5,right,4,ITC_start,456,space,0,0,446,250904,1028222
21,19,female,Belgian,2,63,ITC,win,5,right,4,ITC_choice,967,j,0,0,446,249936,1029190
21,19,female,Belgian,2,63,ITC,win,5,right,4,ITC_wait,0,undefined,0,0,446,244922,1034204
21,19,female,Belgian,2,63,ITC,win,5,right,4,ITC_collect,248,k,0,0,446,244672,1034454
21,19,female,Belgian,2,63,ITC,win,5,right,4,ITC_outcome,0,undefined,0,0,466,243661,1035465
21,19,female,Belgian,2,64,guess,loss,5,left,7,guess_start,380,space,0,0,466,243280,1035846
21,19,female,Belgian,2,64,guess,loss,5,left,7,guess_choice,742,f,0,0,466,242536,1036590
21,19,female,Belgian,2,64,guess,loss,5,left,7,guess_outcome,0,undefined,0,0,451,240981,1038145
21,19,female,Belgian,2,64,ITC,loss,5,left,7,ITC_start,340,space,0,0,451,240640,1038486
21,19,female,Belgian,2,64,ITC,loss,5,left,7,ITC_choice,863,f,0,0,451,239776,1039350
21,19,female,Belgian,2,64,ITC,loss,5,left,7,ITC_wait,0,undefined,0,0,451,234771,1044355
21,19,female,Belgian,2,64,ITC,loss,5,left,7,ITC_collect,218,k,0,0,451,234552,1044574
21,19,female,Belgian,2,64,ITC,loss,5,left,7,ITC_outcome,0,undefined,0,0,471,233546,1045580
21,19,female,Belgian,2,65,guess,win,5,left,6,guess_start,417,space,0,0,471,233128,1045998
21,19,female,Belgian,2,65,guess,win,5,left,6,guess_choice,542,j,0,0,471,232584,1046542
21,19,female,Belgian,2,65,guess,win,5,left,6,guess_outcome,0,undefined,0,0,491,231021,1048105
21,19,female,Belgian,2,65,ITC,win,5,left,6,ITC_start,340,space,0,0,491,230680,1048446
21,19,female,Belgian,2,65,ITC,win,5,left,6,ITC_choice,951,f,0,0,491,229728,1049398
21,19,female,Belgian,2,65,ITC,win,5,left,6,ITC_wait,0,undefined,0,0,491,224711,1054415
21,19,female,Belgian,2,65,ITC,win,5,left,6,ITC_collect,238,k,0,0,491,224472,1054654
21,19,female,Belgian,2,65,ITC,win,5,left,6,ITC_outcome,0,undefined,0,0,511,223451,1055675
21,19,female,Belgian,2,66,guess,win,5,left,12,guess_start,330,space,0,0,511,223120,1056006
21,19,female,Belgian,2,66,guess,win,5,left,12,guess_choice,751,j,0,0,511,222368,1056758
21,19,female,Belgian,2,66,guess,win,5,left,12,guess_outcome,0,undefined,0,0,531,220811,1058315
21,19,female,Belgian,2,66,ITC,win,5,left,12,ITC_start,258,space,0,0,531,220552,1058574
21,19,female,Belgian,2,66,ITC,win,5,left,12,ITC_choice,927,f,0,0,531,219624,1059502
21,19,female,Belgian,2,66,ITC,win,5,left,12,ITC_wait,0,undefined,0,0,531,214621,1064505
21,19,female,Belgian,2,66,ITC,win,5,left,12,ITC_collect,292,k,0,0,531,214328,1064798
21,19,female,Belgian,2,66,ITC,win,5,left,12,ITC_outcome,0,undefined,0,0,551,213321,1065805
21,19,female,Belgian,2,67,guess,loss,10,right,4,guess_start,295,space,0,0,551,213024,1066102
21,19,female,Belgian,2,67,guess,loss,10,right,4,guess_choice,614,j,0,0,551,212408,1066718
21,19,female,Belgian,2,67,guess,loss,10,right,4,guess_outcome,0,undefined,0,0,536,210841,1068285
21,19,female,Belgian,2,67,ITC,loss,10,right,4,ITC_start,455,space,0,0,536,210385,1068741
21,19,female,Belgian,2,67,ITC,loss,10,right,4,ITC_choice,1287,j,0,0,536,209096,1070030
21,19,female,Belgian,2,67,ITC,loss,10,right,4,ITC_wait,0,undefined,0,0,536,199094,1080032
21,19,female,Belgian,2,67,ITC,loss,10,right,4,ITC_collect,285,k,0,0,536,198808,1080318
21,19,female,Belgian,2,67,ITC,loss,10,right,4,ITC_outcome,0,undefined,0,0,556,197788,1081338
21,19,female,Belgian,2,68,guess,win,10,left,2,guess_start,418,space,0,0,556,197368,1081758
21,19,female,Belgian,2,68,guess,win,10,left,2,guess_choice,942,f,0,0,556,196424,1082702
21,19,female,Belgian,2,68,guess,win,10,left,2,guess_outcome,0,undefined,0,0,576,194868,1084258
21,19,female,Belgian,2,68,ITC,win,10,left,2,ITC_start,338,space,0,0,576,194528,1084598
21,19,female,Belgian,2,68,ITC,win,10,left,2,ITC_choice,1055,f,0,0,576,193472,1085654
21,19,female,Belgian,2,68,ITC,win,10,left,2,ITC_wait,0,undefined,0,0,576,183468,1095658
21,19,female,Belgian,2,68,ITC,win,10,left,2,ITC_collect,251,k,0,0,576,183216,1095910
21,19,female,Belgian,2,68,ITC,win,10,left,2,ITC_outcome,0,undefined,0,0,596,182213,1096913
21,19,female,Belgian,2,69,guess,win,10,left,8,guess_start,523,space,0,0,596,181688,1097438
21,19,female,Belgian,2,69,guess,win,10,left,8,guess_choice,686,j,0,0,596,181001,1098125
21,19,female,Belgian,2,69,guess,win,10,left,8,guess_outcome,0,undefined,0,0,616,179443,1099683
21,19,female,Belgian,2,69,ITC,win,10,left,8,ITC_start,329,space,0,0,616,179113,1100013
21,19,female,Belgian,2,69,ITC,win,10,left,8,ITC_choice,1111,f,0,0,616,178000,1101126
21,19,female,Belgian,2,69,ITC,win,10,left,8,ITC_wait,0,undefined,0,0,616,167988,1111138
21,19,female,Belgian,2,69,ITC,win,10,left,8,ITC_collect,355,k,0,0,616,167632,1111494
21,19,female,Belgian,2,69,ITC,win,10,left,8,ITC_outcome,0,undefined,0,0,636,166621,1112505
21,19,female,Belgian,2,70,guess,neutral,10,left,5,guess_start,364,space,0,0,636,166256,1112870
21,19,female,Belgian,2,70,guess,neutral,10,left,5,guess_choice,590,j,0,0,636,165665,1113461
21,19,female,Belgian,2,70,guess,neutral,10,left,5,guess_outcome,0,undefined,0,0,636,164111,1115015
21,19,female,Belgian,2,70,ITC,neutral,10,left,5,ITC_start,334,space,0,0,636,163776,1115350
21,19,female,Belgian,2,70,ITC,neutral,10,left,5,ITC_choice,991,f,0,0,636,162785,1116341
21,19,female,Belgian,2,70,ITC,neutral,10,left,5,ITC_wait,0,undefined,0,0,636,152764,1126362
21,19,female,Belgian,2,70,ITC,neutral,10,left,5,ITC_collect,299,k,0,0,636,152464,1126662
21,19,female,Belgian,2,70,ITC,neutral,10,left,5,ITC_outcome,0,undefined,0,0,656,151448,1127678
21,19,female,Belgian,2,71,guess,win,5,left,10,guess_start,375,space,0,0,656,151072,1128054
21,19,female,Belgian,2,71,guess,win,5,left,10,guess_choice,638,j,0,0,656,150433,1128693
21,19,female,Belgian,2,71,guess,win,5,left,10,guess_outcome,0,undefined,0,0,676,148873,1130253
21,19,female,Belgian,2,71,ITC,win,5,left,10,ITC_start,312,space,0,0,676,148561,1130565
21,19,female,Belgian,2,71,ITC,win,5,left,10,ITC_choice,791,f,0,0,676,147769,1131357
21,19,female,Belgian,2,71,ITC,win,5,left,10,ITC_wait,0,undefined,0,0,676,142753,1136373
21,19,female,Belgian,2,71,ITC,win,5,left,10,ITC_collect,239,k,0,0,676,142513,1136613
21,19,female,Belgian,2,71,ITC,win,5,left,10,ITC_outcome,0,undefined,0,0,696,141503,1137623
21,19,female,Belgian,2,72,guess,loss,5,right,8,guess_start,334,space,0,0,696,141168,1137958
21,19,female,Belgian,2,72,guess,loss,5,right,8,guess_choice,622,j,0,0,696,140544,1138582
21,19,female,Belgian,2,72,guess,loss,5,right,8,guess_outcome,0,undefined,0,0,681,138983,1140143
21,19,female,Belgian,2,72,ITC,loss,5,right,8,ITC_start,350,space,0,0,681,138633,1140493
21,19,female,Belgian,2,72,ITC,loss,5,right,8,ITC_choice,1015,j,0,0,681,137616,1141510
21,19,female,Belgian,2,72,ITC,loss,5,right,8,ITC_wait,0,undefined,0,0,681,132613,1146513
21,19,female,Belgian,2,72,ITC,loss,5,right,8,ITC_collect,275,k,0,0,681,132337,1146789
21,19,female,Belgian,2,72,ITC,loss,5,right,8,ITC_outcome,0,undefined,0,0,701,131334,1147792
21,19,female,Belgian,2,73,guess,neutral,10,left,2,guess_start,317,space,0,0,701,131016,1148110
21,19,female,Belgian,2,73,guess,neutral,10,left,2,guess_choice,502,j,0,0,701,130512,1148614
21,19,female,Belgian,2,73,guess,neutral,10,left,2,guess_outcome,0,undefined,0,0,701,128953,1150173
21,19,female,Belgian,2,73,ITC,neutral,10,left,2,ITC_start,464,space,0,0,701,128489,1150637
21,19,female,Belgian,2,73,ITC,neutral,10,left,2,ITC_choice,1143,f,0,0,701,127344,1151782
21,19,female,Belgian,2,73,ITC,neutral,10,left,2,ITC_wait,0,undefined,0,0,701,117328,1161798
21,19,female,Belgian,2,73,ITC,neutral,10,left,2,ITC_collect,270,k,0,0,701,117056,1162070
21,19,female,Belgian,2,73,ITC,neutral,10,left,2,ITC_outcome,0,undefined,0,0,721,116043,1163083
21,19,female,Belgian,2,74,guess,neutral,10,right,7,guess_start,298,space,0,0,721,115744,1163382
21,19,female,Belgian,2,74,guess,neutral,10,right,7,guess_choice,541,f,0,0,721,115201,1163925
21,19,female,Belgian,2,74,guess,neutral,10,right,7,guess_outcome,0,undefined,0,0,721,113633,1165493
21,19,female,Belgian,2,74,ITC,neutral,10,right,7,ITC_start,544,space,0,0,721,113088,1166038
21,19,female,Belgian,2,74,ITC,neutral,10,right,7,ITC_choice,1183,j,0,0,721,111905,1167221
21,19,female,Belgian,2,74,ITC,neutral,10,right,7,ITC_wait,0,undefined,0,0,721,101893,1177233
21,19,female,Belgian,2,74,ITC,neutral,10,right,7,ITC_collect,260,k,0,0,721,101632,1177494
21,19,female,Belgian,2,74,ITC,neutral,10,right,7,ITC_outcome,0,undefined,0,0,741,100618,1178508
21,19,female,Belgian,2,75,guess,loss,5,left,7,guess_start,513,space,0,0,741,100105,1179021
21,19,female,Belgian,2,75,guess,loss,5,left,7,guess_choice,910,f,0,0,741,99192,1179934
21,19,female,Belgian,2,75,guess,loss,5,left,7,guess_outcome,0,undefined,0,0,726,97638,1181488
21,19,female,Belgian,2,75,ITC,loss,5,left,7,ITC_start,349,space,0,0,726,97289,1181837
21,19,female,Belgian,2,75,ITC,loss,5,left,7,ITC_choice,871,f,0,0,726,96417,1182709
21,19,female,Belgian,2,75,ITC,loss,5,left,7,ITC_wait,0,undefined,0,0,726,91408,1187718
21,19,female,Belgian,2,75,ITC,loss,5,left,7,ITC_collect,359,k,0,0,726,91048,1188078
21,19,female,Belgian,2,75,ITC,loss,5,left,7,ITC_outcome,0,undefined,0,0,746,90038,1189088
21,19,female,Belgian,2,76,guess,loss,5,right,12,guess_start,468,space,0,0,746,89568,1189558
21,19,female,Belgian,2,76,guess,loss,5,right,12,guess_choice,614,j,0,0,746,88952,1190174
21,19,female,Belgian,2,76,guess,loss,5,right,12,guess_outcome,0,undefined,0,0,731,87393,1191733
21,19,female,Belgian,2,76,ITC,loss,5,right,12,ITC_start,431,space,0,0,731,86960,1192166
21,19,female,Belgian,2,76,ITC,loss,5,right,12,ITC_choice,1015,f,0,0,731,85944,1193182
21,19,female,Belgian,2,76,ITC,loss,5,right,12,ITC_wait,0,undefined,0,0,731,85942,1193184
21,19,female,Belgian,2,76,ITC,loss,5,right,12,ITC_collect,357,k,0,0,731,85584,1193542
21,19,female,Belgian,2,76,ITC,loss,5,right,12,ITC_outcome,0,undefined,0,0,743,84568,1194558
21,19,female,Belgian,2,77,guess,win,5,right,5,guess_start,342,space,0,0,743,84225,1194901
21,19,female,Belgian,2,77,guess,win,5,right,5,guess_choice,622,j,0,0,743,83600,1195526
21,19,female,Belgian,2,77,guess,win,5,right,5,guess_outcome,0,undefined,0,0,763,82028,1197098
21,19,female,Belgian,2,77,ITC,win,5,right,5,ITC_start,459,space,0,0,763,81569,1197557
21,19,female,Belgian,2,77,ITC,win,5,right,5,ITC_choice,1383,j,0,0,763,80185,1198941
21,19,female,Belgian,2,77,ITC,win,5,right,5,ITC_wait,0,undefined,0,0,763,75178,1203948
21,19,female,Belgian,2,77,ITC,win,5,right,5,ITC_collect,241,k,0,0,763,74937,1204189
21,19,female,Belgian,2,77,ITC,win,5,right,5,ITC_outcome,0,undefined,0,0,783,73928,1205198
21,19,female,Belgian,2,78,guess,loss,10,right,6,guess_start,518,space,0,0,783,73409,1205717
21,19,female,Belgian,2,78,guess,loss,10,right,6,guess_choice,918,f,0,0,783,72489,1206637
21,19,female,Belgian,2,78,guess,loss,10,right,6,guess_outcome,0,undefined,0,0,768,70928,1208198
21,19,female,Belgian,2,78,ITC,loss,10,right,6,ITC_start,303,space,0,0,768,70624,1208502
21,19,female,Belgian,2,78,ITC,loss,10,right,6,ITC_choice,863,j,0,0,768,69760,1209366
21,19,female,Belgian,2,78,ITC,loss,10,right,6,ITC_wait,0,undefined,0,0,768,59755,1219371
21,19,female,Belgian,2,78,ITC,loss,10,right,6,ITC_collect,265,k,0,0,768,59488,1219638
21,19,female,Belgian,2,78,ITC,loss,10,right,6,ITC_outcome,0,undefined,0,0,788,58475,1220651
21,19,female,Belgian,2,79,guess,loss,5,right,8,guess_start,618,space,0,0,788,57857,1221269
21,19,female,Belgian,2,79,guess,loss,5,right,8,guess_choice,774,f,0,0,788,57081,1222045
21,19,female,Belgian,2,79,guess,loss,5,right,8,guess_outcome,0,undefined,0,0,773,55515,1223611
21,19,female,Belgian,2,79,ITC,loss,5,right,8,ITC_start,282,space,0,0,773,55232,1223894
21,19,female,Belgian,2,79,ITC,loss,5,right,8,ITC_choice,1407,j,0,0,773,53824,1225302
21,19,female,Belgian,2,79,ITC,loss,5,right,8,ITC_wait,0,undefined,0,0,773,48815,1230311
21,19,female,Belgian,2,79,ITC,loss,5,right,8,ITC_collect,238,k,0,0,773,48576,1230550
21,19,female,Belgian,2,79,ITC,loss,5,right,8,ITC_outcome,0,undefined,0,0,793,47555,1231571
21,19,female,Belgian,2,80,guess,loss,5,right,10,guess_start,346,space,0,0,793,47208,1231918
21,19,female,Belgian,2,80,guess,loss,5,right,10,guess_choice,686,j,0,0,793,46520,1232606
21,19,female,Belgian,2,80,guess,loss,5,right,10,guess_outcome,0,undefined,0,0,778,44965,1234161
21,19,female,Belgian,2,80,ITC,loss,5,right,10,ITC_start,420,space,0,0,778,44545,1234581
21,19,female,Belgian,2,80,ITC,loss,5,right,10,ITC_choice,1023,j,0,0,778,43520,1235606
21,19,female,Belgian,2,80,ITC,loss,5,right,10,ITC_wait,0,undefined,0,0,778,38505,1240621
21,19,female,Belgian,2,80,ITC,loss,5,right,10,ITC_collect,311,k,0,0,778,38193,1240933
21,19,female,Belgian,2,80,ITC,loss,5,right,10,ITC_outcome,0,undefined,0,0,798,37185,1241941
21,19,female,Belgian,2,81,guess,neutral,5,left,8,guess_start,431,space,0,0,798,36753,1242373
21,19,female,Belgian,2,81,guess,neutral,5,left,8,guess_choice,630,j,0,0,798,36120,1243006
21,19,female,Belgian,2,81,guess,neutral,5,left,8,guess_outcome,0,undefined,0,0,798,34555,1244571
21,19,female,Belgian,2,81,ITC,neutral,5,left,8,ITC_start,442,space,0,0,798,34113,1245013
21,19,female,Belgian,2,81,ITC,neutral,5,left,8,ITC_choice,911,f,0,0,798,33201,1245925
21,19,female,Belgian,2,81,ITC,neutral,5,left,8,ITC_wait,0,undefined,0,0,798,28195,1250931
21,19,female,Belgian,2,81,ITC,neutral,5,left,8,ITC_collect,297,k,0,0,798,27896,1251230
21,19,female,Belgian,2,81,ITC,neutral,5,left,8,ITC_outcome,0,undefined,0,0,818,26875,1252251
21,19,female,Belgian,2,82,guess,loss,5,left,16,guess_start,401,space,0,0,818,26473,1252653
21,19,female,Belgian,2,82,guess,loss,5,left,16,guess_choice,582,j,0,0,818,25889,1253237
21,19,female,Belgian,2,82,guess,loss,5,left,16,guess_outcome,0,undefined,0,0,803,24335,1254791
21,19,female,Belgian,2,82,ITC,loss,5,left,16,ITC_start,542,space,0,0,803,23793,1255333
21,19,female,Belgian,2,82,ITC,loss,5,left,16,ITC_choice,807,f,0,0,803,22985,1256141
21,19,female,Belgian,2,82,ITC,loss,5,left,16,ITC_wait,0,undefined,0,0,803,17975,1261151
21,19,female,Belgian,2,82,ITC,loss,5,left,16,ITC_collect,261,k,0,0,803,17712,1261414
21,19,female,Belgian,2,82,ITC,loss,5,left,16,ITC_outcome,0,undefined,0,0,823,16695,1262431
21,19,female,Belgian,2,83,guess,win,5,right,13,guess_start,325,space,0,0,823,16369,1262757
21,19,female,Belgian,2,83,guess,win,5,right,13,guess_choice,574,j,0,0,823,15793,1263333
21,19,female,Belgian,2,83,guess,win,5,right,13,guess_outcome,0,undefined,0,0,843,14235,1264891
21,19,female,Belgian,2,83,ITC,win,5,right,13,ITC_start,417,space,0,0,843,13817,1265309
21,19,female,Belgian,2,83,ITC,win,5,right,13,ITC_choice,1207,f,0,0,843,12608,1266518
21,19,female,Belgian,2,83,ITC,win,5,right,13,ITC_wait,0,undefined,0,0,843,12607,1266519
21,19,female,Belgian,2,83,ITC,win,5,right,13,ITC_collect,389,k,0,0,843,12217,1266909
21,19,female,Belgian,2,83,ITC,win,5,right,13,ITC_outcome,0,undefined,0,0,856,11208,1267918
21,19,female,Belgian,2,84,guess,neutral,5,right,11,guess_start,454,space,0,0,856,10753,1268373
21,19,female,Belgian,2,84,guess,neutral,5,right,11,guess_choice,567,f,0,0,856,10185,1268941
21,19,female,Belgian,2,84,guess,neutral,5,right,11,guess_outcome,0,undefined,0,0,856,8615,1270511
21,19,female,Belgian,2,84,ITC,neutral,5,right,11,ITC_start,517,space,0,0,856,8097,1271029
21,19,female,Belgian,2,84,ITC,neutral,5,right,11,ITC_choice,1054,f,0,0,856,7041,1272085
21,19,female,Belgian,2,84,ITC,neutral,5,right,11,ITC_wait,0,undefined,0,0,856,7039,1272087
21,19,female,Belgian,2,84,ITC,neutral,5,right,11,ITC_collect,389,k,0,0,856,6649,1272477
21,19,female,Belgian,2,84,ITC,neutral,5,right,11,ITC_outcome,0,undefined,0,0,867,5635,1273491
21,19,female,Belgian,2,85,guess,win,5,right,9,guess_start,553,space,0,0,867,5081,1274045
21,19,female,Belgian,2,85,guess,win,5,right,9,guess_choice,734,j,0,0,867,4344,1274782
21,19,female,Belgian,2,85,guess,win,5,right,9,guess_outcome,0,undefined,0,0,887,2775,1276351
21,19,female,Belgian,2,85,ITC,win,5,right,9,ITC_start,350,space,0,0,887,2424,1276702
21,19,female,Belgian,2,85,ITC,win,5,right,9,ITC_choice,1159,j,0,0,887,1265,1277861
21,19,female,Belgian,2,85,ITC,win,5,right,9,ITC_wait,0,undefined,0,0,887,-15,1279141
21,19,female,Belgian,3,86,guess,neutral,5,right,5,guess_start,871,space,0,0,0,479129,1287757
21,19,female,Belgian,3,86,guess,neutral,5,right,5,guess_choice,646,j,0,0,0,478481,1288405
21,19,female,Belgian,3,86,guess,neutral,5,right,5,guess_outcome,0,undefined,0,0,0,476909,1289977
21,19,female,Belgian,3,86,ITC,neutral,5,right,5,ITC_start,491,space,0,0,0,476417,1290469
21,19,female,Belgian,3,86,ITC,neutral,5,right,5,ITC_choice,943,j,0,0,0,475473,1291413
21,19,female,Belgian,3,86,ITC,neutral,5,right,5,ITC_wait,0,undefined,0,0,0,470468,1296418
21,19,female,Belgian,3,86,ITC,neutral,5,right,5,ITC_collect,259,k,0,0,0,470209,1296677
21,19,female,Belgian,3,86,ITC,neutral,5,right,5,ITC_outcome,0,undefined,0,0,20,469198,1297688
21,19,female,Belgian,3,87,guess,win,5,left,3,guess_start,437,space,0,0,20,468761,1298125
21,19,female,Belgian,3,87,guess,win,5,left,3,guess_choice,518,j,0,0,20,468241,1298645
21,19,female,Belgian,3,87,guess,win,5,left,3,guess_outcome,0,undefined,0,0,40,466678,1300208
21,19,female,Belgian,3,87,ITC,win,5,left,3,ITC_start,437,space,0,0,40,466248,1300638
21,19,female,Belgian,3,87,ITC,win,5,left,3,ITC_choice,1111,f,0,0,40,465136,1301750
21,19,female,Belgian,3,87,ITC,win,5,left,3,ITC_wait,0,undefined,0,0,40,460126,1306760
21,19,female,Belgian,3,87,ITC,win,5,left,3,ITC_collect,285,k,0,0,40,459840,1307046
21,19,female,Belgian,3,87,ITC,win,5,left,3,ITC_outcome,0,undefined,0,0,60,458826,1308060
21,19,female,Belgian,3,88,guess,neutral,5,left,16,guess_start,369,space,0,0,60,458456,1308430
21,19,female,Belgian,3,88,guess,neutral,5,left,16,guess_choice,542,j,0,0,60,457913,1308973
21,19,female,Belgian,3,88,guess,neutral,5,left,16,guess_outcome,0,undefined,0,0,60,456356,1310530
21,19,female,Belgian,3,88,ITC,neutral,5,left,16,ITC_start,339,space,0,0,60,456017,1310869
21,19,female,Belgian,3,88,ITC,neutral,5,left,16,ITC_choice,879,j,0,0,60,455136,1311750
21,19,female,Belgian,3,88,ITC,neutral,5,left,16,ITC_wait,0,undefined,0,0,60,455134,1311752
21,19,female,Belgian,3,88,ITC,neutral,5,left,16,ITC_collect,277,k,0,0,60,454856,1312030
21,19,female,Belgian,3,88,ITC,neutral,5,left,16,ITC_outcome,0,undefined,0,0,76,453846,1313040
21,19,female,Belgian,3,89,guess,loss,10,right,1,guess_start,268,space,0,0,76,453576,1313310
21,19,female,Belgian,3,89,guess,loss,10,right,1,guess_choice,941,f,0,0,76,452632,1314254
21,19,female,Belgian,3,89,guess,loss,10,right,1,guess_outcome,0,undefined,0,0,61,451066,1315820
21,19,female,Belgian,3,89,ITC,loss,10,right,1,ITC_start,320,space,0,0,61,450744,1316142
21,19,female,Belgian,3,89,ITC,loss,10,right,1,ITC_choice,999,j,0,0,61,449744,1317142
21,19,female,Belgian,3,89,ITC,loss,10,right,1,ITC_wait,0,undefined,0,0,61,439738,1327148
21,19,female,Belgian,3,89,ITC,loss,10,right,1,ITC_collect,257,k,0,0,61,439480,1327406
21,19,female,Belgian,3,89,ITC,loss,10,right,1,ITC_outcome,0,undefined,0,0,81,438467,1328419
21,19,female,Belgian,3,90,guess,win,5,right,14,guess_start,305,space,0,0,81,438161,1328725
21,19,female,Belgian,3,90,guess,win,5,right,14,guess_choice,542,f,0,0,81,437617,1329269
21,19,female,Belgian,3,90,guess,win,5,right,14,guess_outcome,0,undefined,0,0,101,436057,1330829
21,19,female,Belgian,3,90,ITC,win,5,right,14,ITC_start,296,space,0,0,101,435761,1331125
21,19,female,Belgian,3,90,ITC,win,5,right,14,ITC_choice,855,f,0,0,101,434905,1331981
21,19,female,Belgian,3,90,ITC,win,5,right,14,ITC_wait,0,undefined,0,0,101,434902,1331984
21,19,female,Belgian,3,90,ITC,win,5,right,14,ITC_collect,381,k,0,0,101,434520,1332366
21,19,female,Belgian,3,90,ITC,win,5,right,14,ITC_outcome,0,undefined,0,0,115,433517,1333369
21,19,female,Belgian,3,91,guess,win,10,left,4,guess_start,435,space,0,0,115,433081,1333805
21,19,female,Belgian,3,91,guess,win,10,left,4,guess_choice,854,j,0,0,115,432224,1334662
21,19,female,Belgian,3,91,guess,win,10,left,4,guess_outcome,0,undefined,0,0,135,430657,1336229
21,19,female,Belgian,3,91,ITC,win,10,left,4,ITC_start,328,space,0,0,135,430328,1336558
21,19,female,Belgian,3,91,ITC,win,10,left,4,ITC_choice,1279,f,0,0,135,429049,1337837
21,19,female,Belgian,3,91,ITC,win,10,left,4,ITC_wait,0,undefined,0,0,135,419042,1347844
21,19,female,Belgian,3,91,ITC,win,10,left,4,ITC_collect,312,k,0,0,135,418728,1348158
21,19,female,Belgian,3,91,ITC,win,10,left,4,ITC_outcome,0,undefined,0,0,155,417713,1349173
21,19,female,Belgian,3,92,guess,neutral,5,left,12,guess_start,304,space,0,0,155,417408,1349478
21,19,female,Belgian,3,92,guess,neutral,5,left,12,guess_choice,574,f,0,0,155,416832,1350054
21,19,female,Belgian,3,92,guess,neutral,5,left,12,guess_outcome,0,undefined,0,0,155,415263,1351623
21,19,female,Belgian,3,92,ITC,neutral,5,left,12,ITC_start,294,space,0,0,155,414969,1351917
21,19,female,Belgian,3,92,ITC,neutral,5,left,12,ITC_choice,991,j,0,0,155,413977,1352909
21,19,female,Belgian,3,92,ITC,neutral,5,left,12,ITC_wait,0,undefined,0,0,155,413975,1352911
21,19,female,Belgian,3,92,ITC,neutral,5,left,12,ITC_collect,461,k,0,0,155,413512,1353374
21,19,female,Belgian,3,92,ITC,neutral,5,left,12,ITC_outcome,0,undefined,0,0,167,412503,1354383
21,19,female,Belgian,3,93,guess,neutral,10,left,6,guess_start,446,space,0,0,167,412056,1354830
21,19,female,Belgian,3,93,guess,neutral,10,left,6,guess_choice,558,f,0,0,167,411497,1355389
21,19,female,Belgian,3,93,guess,neutral,10,left,6,guess_outcome,0,undefined,0,0,167,409943,1356943
21,19,female,Belgian,3,93,ITC,neutral,10,left,6,ITC_start,534,space,0,0,167,409408,1357478
21,19,female,Belgian,3,93,ITC,neutral,10,left,6,ITC_choice,886,f,0,0,167,408520,1358366
21,19,female,Belgian,3,93,ITC,neutral,10,left,6,ITC_wait,0,undefined,0,0,167,398510,1368376
21,19,female,Belgian,3,93,ITC,neutral,10,left,6,ITC_collect,284,k,0,0,167,398225,1368661
21,19,female,Belgian,3,93,ITC,neutral,10,left,6,ITC_outcome,0,undefined,0,0,187,397221,1369665
21,19,female,Belgian,3,94,guess,loss,5,right,15,guess_start,451,space,0,0,187,396769,1370117
21,19,female,Belgian,3,94,guess,loss,5,right,15,guess_choice,662,j,0,0,187,396105,1370781
21,19,female,Belgian,3,94,guess,loss,5,right,15,guess_outcome,0,undefined,0,0,172,394541,1372345
21,19,female,Belgian,3,94,ITC,loss,5,right,15,ITC_start,300,space,0,0,172,394240,1372646
21,19,female,Belgian,3,94,ITC,loss,5,right,15,ITC_choice,1215,f,0,0,172,393025,1373861
21,19,female,Belgian,3,94,ITC,loss,5,right,15,ITC_wait,0,undefined,0,0,172,393023,1373863
21,19,female,Belgian,3,94,ITC,loss,5,right,15,ITC_collect,373,k,0,0,172,392649,1374237
21,19,female,Belgian,3,94,ITC,loss,5,right,15,ITC_outcome,0,undefined,0,0,187,391631,1375255
21,19,female,Belgian,3,95,guess,win,10,right,1,guess_start,357,space,0,0,187,391273,1375613
21,19,female,Belgian,3,95,guess,win,10,right,1,guess_choice,526,j,0,0,187,390745,1376141
21,19,female,Belgian,3,95,guess,win,10,right,1,guess_outcome,0,undefined,0,0,207,389191,1377695
21,19,female,Belgian,3,95,ITC,win,10,right,1,ITC_start,325,space,0,0,207,388865,1378021
21,19,female,Belgian,3,95,ITC,win,10,right,1,ITC_choice,864,j,0,0,207,388000,1378886
21,19,female,Belgian,3,95,ITC,win,10,right,1,ITC_wait,0,undefined,0,0,207,377984,1388902
21,19,female,Belgian,3,95,ITC,win,10,right,1,ITC_collect,278,k,0,0,207,377705,1389181
21,19,female,Belgian,3,95,ITC,win,10,right,1,ITC_outcome,0,undefined,0,0,227,376691,1390195
21,19,female,Belgian,3,96,guess,neutral,5,left,2,guess_start,354,space,0,0,227,376337,1390549
21,19,female,Belgian,3,96,guess,neutral,5,left,2,guess_choice,494,f,0,0,227,375840,1391046
21,19,female,Belgian,3,96,guess,neutral,5,left,2,guess_outcome,0,undefined,0,0,227,374281,1392605
21,19,female,Belgian,3,96,ITC,neutral,5,left,2,ITC_start,576,space,0,0,227,373705,1393181
21,19,female,Belgian,3,96,ITC,neutral,5,left,2,ITC_choice,943,f,0,0,227,372760,1394126
21,19,female,Belgian,3,96,ITC,neutral,5,left,2,ITC_wait,0,undefined,0,0,227,367751,1399135
21,19,female,Belgian,3,96,ITC,neutral,5,left,2,ITC_collect,310,k,0,0,227,367441,1399445
21,19,female,Belgian,3,96,ITC,neutral,5,left,2,ITC_outcome,0,undefined,0,0,247,366431,1400455
21,19,female,Belgian,3,97,guess,neutral,5,right,14,guess_start,334,space,0,0,247,366097,1400789
21,19,female,Belgian,3,97,guess,neutral,5,right,14,guess_choice,502,j,0,0,247,365593,1401293
21,19,female,Belgian,3,97,guess,neutral,5,right,14,guess_outcome,0,undefined,0,0,247,364021,1402865
21,19,female,Belgian,3,97,ITC,neutral,5,right,14,ITC_start,324,space,0,0,247,363697,1403189
21,19,female,Belgian,3,97,ITC,neutral,5,right,14,ITC_choice,767,f,0,0,247,362929,1403957
21,19,female,Belgian,3,97,ITC,neutral,5,right,14,ITC_wait,0,undefined,0,0,247,362926,1403960
21,19,female,Belgian,3,97,ITC,neutral,5,right,14,ITC_collect,349,k,0,0,247,362577,1404309
21,19,female,Belgian,3,97,ITC,neutral,5,right,14,ITC_outcome,0,undefined,0,0,261,361561,1405325
21,19,female,Belgian,3,98,guess,win,5,right,10,guess_start,400,space,0,0,261,361161,1405725
21,19,female,Belgian,3,98,guess,win,5,right,10,guess_choice,566,j,0,0,261,360593,1406293
21,19,female,Belgian,3,98,guess,win,5,right,10,guess_outcome,0,undefined,0,0,281,359021,1407865
21,19,female,Belgian,3,98,ITC,win,5,right,10,ITC_start,564,space,0,0,281,358457,1408429
21,19,female,Belgian,3,98,ITC,win,5,right,10,ITC_choice,1543,j,0,0,281,356913,1409973
21,19,female,Belgian,3,98,ITC,win,5,right,10,ITC_wait,0,undefined,0,0,281,351901,1414985
21,19,female,Belgian,3,98,ITC,win,5,right,10,ITC_collect,276,k,0,0,281,351625,1415261
21,19,female,Belgian,3,98,ITC,win,5,right,10,ITC_outcome,0,undefined,0,0,301,350611,1416275
21,19,female,Belgian,3,99,guess,neutral,10,right,8,guess_start,313,space,0,0,301,350297,1416589
21,19,female,Belgian,3,99,guess,neutral,10,right,8,guess_choice,462,f,0,0,301,349833,1417053
21,19,female,Belgian,3,99,guess,neutral,10,right,8,guess_outcome,0,undefined,0,0,301,348261,1418625
21,19,female,Belgian,3,99,ITC,neutral,10,right,8,ITC_start,419,space,0,0,301,347841,1419045
21,19,female,Belgian,3,99,ITC,neutral,10,right,8,ITC_choice,943,j,0,0,301,346896,1419990
21,19,female,Belgian,3,100,guess,win,10,left,7,guess_start,498,space,0,0,321,335073,1431813
21,19,female,Belgian,3,100,guess,win,10,left,7,guess_outcome,0,undefined,0,0,341,333032,1433854
21,19,female,Belgian,3,99,ITC,neutral,10,right,8,ITC_wait,0,undefined,0,0,301,336894,1429992
21,19,female,Belgian,3,100,guess,win,10,left,7,guess_choice,486,f,0,0,321,334585,1432301
21,19,female,Belgian,3,99,ITC,neutral,10,right,8,ITC_outcome,0,undefined,0,0,321,335572,1431314
21,19,female,Belgian,3,99,ITC,neutral,10,right,8,ITC_collect,309,k,0,0,301,336585,1430301
21,19,female,Belgian,3,100,ITC,win,10,left,7,ITC_start,286,space,0,0,341,332745,1434141
21,19,female,Belgian,3,100,ITC,win,10,left,7,ITC_choice,1047,f,0,0,341,331697,1435189
21,19,female,Belgian,3,100,ITC,win,10,left,7,ITC_wait,0,undefined,0,0,341,321691,1445195
21,19,female,Belgian,3,100,ITC,win,10,left,7,ITC_collect,273,k,0,0,341,321417,1445469
21,19,female,Belgian,3,100,ITC,win,10,left,7,ITC_outcome,0,undefined,0,0,361,320399,1446487
21,19,female,Belgian,3,101,guess,win,5,right,16,guess_start,269,space,0,0,361,320129,1446757
21,19,female,Belgian,3,101,guess,win,5,right,16,guess_choice,735,j,0,0,361,319393,1447493
21,19,female,Belgian,3,101,guess,win,5,right,16,guess_outcome,0,undefined,0,0,381,317829,1449057
21,19,female,Belgian,3,101,ITC,win,5,right,16,ITC_start,371,space,0,0,381,317457,1449429
21,19,female,Belgian,3,101,ITC,win,5,right,16,ITC_choice,775,f,0,0,381,316681,1450205
21,19,female,Belgian,3,101,ITC,win,5,right,16,ITC_wait,0,undefined,0,0,381,316679,1450207
21,19,female,Belgian,3,101,ITC,win,5,right,16,ITC_collect,389,k,0,0,381,316289,1450597
21,19,female,Belgian,3,101,ITC,win,5,right,16,ITC_outcome,0,undefined,0,0,397,315279,1451607
21,19,female,Belgian,3,102,guess,loss,5,left,1,guess_start,429,space,0,0,397,314849,1452037
21,19,female,Belgian,3,102,guess,loss,5,left,1,guess_choice,630,f,0,0,397,314217,1452669
21,19,female,Belgian,3,102,guess,loss,5,left,1,guess_outcome,0,undefined,0,0,382,312659,1454227
21,19,female,Belgian,3,102,ITC,loss,5,left,1,ITC_start,393,space,0,0,382,312265,1454621
21,19,female,Belgian,3,102,ITC,loss,5,left,1,ITC_choice,903,f,0,0,382,311361,1455525
21,19,female,Belgian,3,102,ITC,loss,5,left,1,ITC_wait,0,undefined,0,0,382,306339,1460547
21,19,female,Belgian,3,102,ITC,loss,5,left,1,ITC_collect,241,k,0,0,382,306097,1460789
21,19,female,Belgian,3,102,ITC,loss,5,left,1,ITC_outcome,0,undefined,0,0,402,305079,1461807
21,19,female,Belgian,3,103,guess,loss,5,right,3,guess_start,349,space,0,0,402,304729,1462157
21,19,female,Belgian,3,103,guess,loss,5,right,3,guess_choice,446,j,0,0,402,304281,1462605
21,19,female,Belgian,3,103,guess,loss,5,right,3,guess_outcome,0,undefined,0,0,387,302709,1464177
21,19,female,Belgian,3,103,ITC,loss,5,right,3,ITC_start,323,space,0,0,387,302385,1464501
21,19,female,Belgian,3,103,ITC,loss,5,right,3,ITC_choice,863,j,0,0,387,301521,1465365
21,19,female,Belgian,3,103,ITC,loss,5,right,3,ITC_wait,0,undefined,0,0,387,296509,1470377
21,19,female,Belgian,3,103,ITC,loss,5,right,3,ITC_collect,283,k,0,0,387,296225,1470661
21,19,female,Belgian,3,103,ITC,loss,5,right,3,ITC_outcome,0,undefined,0,0,407,295209,1471677
21,19,female,Belgian,3,104,guess,win,5,left,2,guess_start,407,space,0,0,407,294801,1472085
21,19,female,Belgian,3,104,guess,win,5,left,2,guess_choice,494,f,0,0,407,294305,1472581
21,19,female,Belgian,3,104,guess,win,5,left,2,guess_outcome,0,undefined,0,0,427,292739,1474147
21,19,female,Belgian,3,104,ITC,win,5,left,2,ITC_start,329,space,0,0,427,292409,1474477
21,19,female,Belgian,3,104,ITC,win,5,left,2,ITC_choice,743,f,0,0,427,291665,1475221
21,19,female,Belgian,3,104,ITC,win,5,left,2,ITC_wait,0,undefined,0,0,427,286649,1480237
21,19,female,Belgian,3,104,ITC,win,5,left,2,ITC_collect,311,k,0,0,427,286337,1480549
21,19,female,Belgian,3,104,ITC,win,5,left,2,ITC_outcome,0,undefined,0,0,447,285319,1481567
21,19,female,Belgian,3,105,guess,loss,5,left,4,guess_start,381,space,0,0,447,284937,1481949
21,19,female,Belgian,3,105,guess,loss,5,left,4,guess_choice,526,j,0,0,447,284409,1482477
21,19,female,Belgian,3,105,guess,loss,5,left,4,guess_outcome,0,undefined,0,0,432,282839,1484047
21,19,female,Belgian,3,105,ITC,loss,5,left,4,ITC_start,261,space,0,0,432,282577,1484309
21,19,female,Belgian,3,105,ITC,loss,5,left,4,ITC_choice,703,f,0,0,432,281873,1485013
21,19,female,Belgian,3,105,ITC,loss,5,left,4,ITC_wait,0,undefined,0,0,432,276859,1490027
21,19,female,Belgian,3,105,ITC,loss,5,left,4,ITC_collect,257,k,0,0,432,276601,1490285
21,19,female,Belgian,3,105,ITC,loss,5,left,4,ITC_outcome,0,undefined,0,0,452,275598,1491288
21,19,female,Belgian,3,106,guess,loss,5,right,13,guess_start,821,space,0,0,452,274777,1492109
21,19,female,Belgian,3,106,guess,loss,5,right,13,guess_choice,662,j,0,0,452,274113,1492773
21,19,female,Belgian,3,106,guess,loss,5,right,13,guess_outcome,0,undefined,0,0,437,272549,1494337
21,19,female,Belgian,3,106,ITC,loss,5,right,13,ITC_start,435,space,0,0,437,272113,1494773
21,19,female,Belgian,3,106,ITC,loss,5,right,13,ITC_choice,871,f,0,0,437,271241,1495645
21,19,female,Belgian,3,106,ITC,loss,5,right,13,ITC_wait,0,undefined,0,0,437,271238,1495648
21,19,female,Belgian,3,106,ITC,loss,5,right,13,ITC_collect,300,k,0,0,437,270937,1495949
21,19,female,Belgian,3,106,ITC,loss,5,right,13,ITC_outcome,0,undefined,0,0,450,269918,1496968
21,19,female,Belgian,3,107,guess,neutral,5,right,9,guess_start,365,space,0,0,450,269553,1497333
21,19,female,Belgian,3,107,guess,neutral,5,right,9,guess_choice,494,f,0,0,450,269057,1497829
21,19,female,Belgian,3,107,guess,neutral,5,right,9,guess_outcome,0,undefined,0,0,450,267488,1499398
21,19,female,Belgian,3,107,ITC,neutral,5,right,9,ITC_start,655,space,0,0,450,266833,1500053
21,19,female,Belgian,3,107,ITC,neutral,5,right,9,ITC_choice,783,j,0,0,450,266049,1500837
21,19,female,Belgian,3,107,ITC,neutral,5,right,9,ITC_wait,0,undefined,0,0,450,261028,1505858
21,19,female,Belgian,3,107,ITC,neutral,5,right,9,ITC_collect,251,k,0,0,450,260777,1506109
21,19,female,Belgian,3,107,ITC,neutral,5,right,9,ITC_outcome,0,undefined,0,0,470,259759,1507127
21,19,female,Belgian,3,108,guess,loss,5,right,9,guess_start,405,space,0,0,470,259353,1507533
21,19,female,Belgian,3,108,guess,loss,5,right,9,guess_choice,518,f,0,0,470,258833,1508053
21,19,female,Belgian,3,108,guess,loss,5,right,9,guess_outcome,0,undefined,0,0,455,257268,1509618
21,19,female,Belgian,3,108,ITC,loss,5,right,9,ITC_start,963,space,0,0,455,256305,1510581
21,19,female,Belgian,3,108,ITC,loss,5,right,9,ITC_choice,871,j,0,0,455,255433,1511453
21,19,female,Belgian,3,108,ITC,loss,5,right,9,ITC_wait,0,undefined,0,0,455,250418,1516468
21,19,female,Belgian,3,108,ITC,loss,5,right,9,ITC_collect,369,k,0,0,455,250049,1516837
21,19,female,Belgian,3,108,ITC,loss,5,right,9,ITC_outcome,0,undefined,0,0,475,249028,1517858
21,19,female,Belgian,3,109,guess,neutral,5,left,7,guess_start,402,space,0,0,475,248625,1518261
21,19,female,Belgian,3,109,guess,neutral,5,left,7,guess_choice,566,f,0,0,475,248057,1518829
21,19,female,Belgian,3,109,guess,neutral,5,left,7,guess_outcome,0,undefined,0,0,475,246498,1520388
21,19,female,Belgian,3,109,ITC,neutral,5,left,7,ITC_start,456,space,0,0,475,246041,1520845
21,19,female,Belgian,3,109,ITC,neutral,5,left,7,ITC_choice,1551,f,0,0,475,244489,1522397
21,19,female,Belgian,3,109,ITC,neutral,5,left,7,ITC_wait,0,undefined,0,0,475,239468,1527418
21,19,female,Belgian,3,109,ITC,neutral,5,left,7,ITC_collect,242,k,0,0,475,239225,1527661
21,19,female,Belgian,3,109,ITC,neutral,5,left,7,ITC_outcome,0,undefined,0,0,495,238208,1528678
21,19,female,Belgian,3,110,guess,win,10,left,5,guess_start,438,space,0,0,495,237769,1529117
21,19,female,Belgian,3,110,guess,win,10,left,5,guess_choice,830,j,0,0,495,236937,1529949
21,19,female,Belgian,3,110,guess,win,10,left,5,guess_outcome,0,undefined,0,0,515,235378,1531508
21,19,female,Belgian,3,110,ITC,win,10,left,5,ITC_start,288,space,0,0,515,235089,1531797
21,19,female,Belgian,3,110,ITC,win,10,left,5,ITC_choice,983,f,0,0,515,234105,1532781
21,19,female,Belgian,3,110,ITC,win,10,left,5,ITC_wait,0,undefined,0,0,515,224093,1542793
21,19,female,Belgian,3,110,ITC,win,10,left,5,ITC_collect,268,k,0,0,515,223825,1543061
21,19,female,Belgian,3,110,ITC,win,10,left,5,ITC_outcome,0,undefined,0,0,535,222820,1544066
21,19,female,Belgian,3,111,guess,win,10,left,6,guess_start,298,space,0,0,535,222521,1544365
21,19,female,Belgian,3,111,guess,win,10,left,6,guess_choice,582,j,0,0,535,221937,1544949
21,19,female,Belgian,3,111,guess,win,10,left,6,guess_outcome,0,undefined,0,0,555,220380,1546506
21,19,female,Belgian,3,111,ITC,win,10,left,6,ITC_start,322,space,0,0,555,220057,1546829
21,19,female,Belgian,3,111,ITC,win,10,left,6,ITC_choice,999,f,0,0,555,219057,1547829
21,19,female,Belgian,3,111,ITC,win,10,left,6,ITC_wait,0,undefined,0,0,555,209039,1557847
21,19,female,Belgian,3,111,ITC,win,10,left,6,ITC_collect,310,k,0,0,555,208729,1558157
21,19,female,Belgian,3,111,ITC,win,10,left,6,ITC_outcome,0,undefined,0,0,575,207708,1559178
21,19,female,Belgian,3,112,guess,win,5,right,8,guess_start,618,space,0,0,575,207089,1559797
21,19,female,Belgian,3,112,guess,win,5,right,8,guess_choice,622,j,0,0,575,206465,1560421
21,19,female,Belgian,3,112,guess,win,5,right,8,guess_outcome,0,undefined,0,0,595,204898,1561988
21,19,female,Belgian,3,112,ITC,win,5,right,8,ITC_start,312,space,0,0,595,204585,1562301
21,19,female,Belgian,3,112,ITC,win,5,right,8,ITC_choice,1159,j,0,0,595,203425,1563461
21,19,female,Belgian,3,112,ITC,win,5,right,8,ITC_wait,0,undefined,0,0,595,198418,1568468
21,19,female,Belgian,3,112,ITC,win,5,right,8,ITC_collect,247,k,0,0,595,198169,1568717
21,19,female,Belgian,3,112,ITC,win,5,right,8,ITC_outcome,0,undefined,0,0,615,197147,1569739
21,19,female,Belgian,3,113,guess,loss,5,left,14,guess_start,426,space,0,0,615,196721,1570165
21,19,female,Belgian,3,113,guess,loss,5,left,14,guess_choice,590,f,0,0,615,196129,1570757
21,19,female,Belgian,3,113,guess,loss,5,left,14,guess_outcome,0,undefined,0,0,600,194557,1572329
21,19,female,Belgian,3,113,ITC,loss,5,left,14,ITC_start,252,space,0,0,600,194305,1572581
21,19,female,Belgian,3,113,ITC,loss,5,left,14,ITC_choice,1479,j,0,0,600,192825,1574061
21,19,female,Belgian,3,113,ITC,loss,5,left,14,ITC_wait,0,undefined,0,0,600,192823,1574063
21,19,female,Belgian,3,113,ITC,loss,5,left,14,ITC_collect,669,k,0,0,600,192153,1574733
21,19,female,Belgian,3,113,ITC,loss,5,left,14,ITC_outcome,0,undefined,0,0,614,191147,1575739
21,19,female,Belgian,3,114,guess,win,10,right,2,guess_start,313,space,0,0,614,190833,1576053
21,19,female,Belgian,3,114,guess,win,10,right,2,guess_choice,566,f,0,0,614,190265,1576621
21,19,female,Belgian,3,114,guess,win,10,right,2,guess_outcome,0,undefined,0,0,634,188707,1578179
21,19,female,Belgian,3,114,ITC,win,10,right,2,ITC_start,330,space,0,0,634,188377,1578509
21,19,female,Belgian,3,114,ITC,win,10,right,2,ITC_choice,1055,j,0,0,634,187320,1579566
21,19,female,Belgian,3,114,ITC,win,10,right,2,ITC_wait,0,undefined,0,0,634,177301,1589585
21,19,female,Belgian,3,114,ITC,win,10,right,2,ITC_collect,251,k,0,0,634,177049,1589837
21,19,female,Belgian,3,114,ITC,win,10,right,2,ITC_outcome,0,undefined,0,0,654,176036,1590850
21,19,female,Belgian,3,115,guess,neutral,5,right,6,guess_start,514,space,0,0,654,175521,1591365
21,19,female,Belgian,3,115,guess,neutral,5,right,6,guess_choice,534,f,0,0,654,174985,1591901
21,19,female,Belgian,3,115,guess,neutral,5,right,6,guess_outcome,0,undefined,0,0,654,173416,1593470
21,19,female,Belgian,3,115,ITC,neutral,5,right,6,ITC_start,438,space,0,0,654,172977,1593909
21,19,female,Belgian,3,115,ITC,neutral,5,right,6,ITC_choice,807,j,0,0,654,172169,1594717
21,19,female,Belgian,3,115,ITC,neutral,5,right,6,ITC_wait,0,undefined,0,0,654,167156,1599730
21,19,female,Belgian,3,115,ITC,neutral,5,right,6,ITC_collect,266,k,0,0,654,166889,1599997
21,19,female,Belgian,3,115,ITC,neutral,5,right,6,ITC_outcome,0,undefined,0,0,674,165876,1601010
21,19,female,Belgian,3,116,guess,loss,10,right,3,guess_start,394,space,0,0,674,165481,1601405
21,19,female,Belgian,3,116,guess,loss,10,right,3,guess_choice,542,f,0,0,674,164937,1601949
21,19,female,Belgian,3,116,guess,loss,10,right,3,guess_outcome,0,undefined,0,0,659,163376,1603510
21,19,female,Belgian,3,116,ITC,loss,10,right,3,ITC_start,326,space,0,0,659,163049,1603837
21,19,female,Belgian,3,116,ITC,loss,10,right,3,ITC_choice,911,j,0,0,659,162137,1604749
21,19,female,Belgian,3,116,ITC,loss,10,right,3,ITC_wait,0,undefined,0,0,659,152127,1614759
21,19,female,Belgian,3,116,ITC,loss,10,right,3,ITC_collect,349,k,0,0,659,151777,1615109
21,19,female,Belgian,3,116,ITC,loss,10,right,3,ITC_outcome,0,undefined,0,0,679,150764,1616122
21,19,female,Belgian,3,117,guess,win,5,right,15,guess_start,362,space,0,0,679,150401,1616485
21,19,female,Belgian,3,117,guess,win,5,right,15,guess_choice,518,j,0,0,679,149881,1617005
21,19,female,Belgian,3,117,guess,win,5,right,15,guess_outcome,0,undefined,0,0,699,148324,1618562
21,19,female,Belgian,3,117,ITC,win,5,right,15,ITC_start,338,space,0,0,699,147985,1618901
21,19,female,Belgian,3,117,ITC,win,5,right,15,ITC_choice,1071,f,0,0,699,146913,1619973
21,19,female,Belgian,3,117,ITC,win,5,right,15,ITC_wait,0,undefined,0,0,699,146910,1619976
21,19,female,Belgian,3,117,ITC,win,5,right,15,ITC_collect,412,k,0,0,699,146497,1620389
21,19,female,Belgian,3,117,ITC,win,5,right,15,ITC_outcome,0,undefined,0,0,714,145494,1621392
21,19,female,Belgian,3,118,guess,neutral,5,right,10,guess_start,347,space,0,0,714,145145,1621741
21,19,female,Belgian,3,118,guess,neutral,5,right,10,guess_choice,766,j,0,0,714,144377,1622509
21,19,female,Belgian,3,118,guess,neutral,5,right,10,guess_outcome,0,undefined,0,0,714,142824,1624062
21,19,female,Belgian,3,118,ITC,neutral,5,right,10,ITC_start,526,space,0,0,714,142297,1624589
21,19,female,Belgian,3,118,ITC,neutral,5,right,10,ITC_choice,1375,j,0,0,714,140921,1625965
21,19,female,Belgian,3,118,ITC,neutral,5,right,10,ITC_wait,0,undefined,0,0,714,135914,1630972
21,19,female,Belgian,3,118,ITC,neutral,5,right,10,ITC_collect,248,k,0,0,714,135665,1631221
21,19,female,Belgian,3,118,ITC,neutral,5,right,10,ITC_outcome,0,undefined,0,0,734,134654,1632232
21,19,female,Belgian,3,119,guess,win,5,left,7,guess_start,347,space,0,0,734,134305,1632581
21,19,female,Belgian,3,119,guess,win,5,left,7,guess_choice,726,f,0,0,734,133577,1633309
21,19,female,Belgian,3,119,guess,win,5,left,7,guess_outcome,0,undefined,0,0,754,132024,1634862
21,19,female,Belgian,3,119,ITC,win,5,left,7,ITC_start,222,space,0,0,754,131801,1635085
21,19,female,Belgian,3,119,ITC,win,5,left,7,ITC_choice,790,f,0,0,754,131009,1635877
21,19,female,Belgian,3,119,ITC,win,5,left,7,ITC_wait,0,undefined,0,0,754,126004,1640882
21,19,female,Belgian,3,119,ITC,win,5,left,7,ITC_collect,273,k,0,0,754,125729,1641157
21,19,female,Belgian,3,119,ITC,win,5,left,7,ITC_outcome,0,undefined,0,0,774,124713,1642173
21,19,female,Belgian,3,120,guess,win,5,right,6,guess_start,327,space,0,0,774,124385,1642501
21,19,female,Belgian,3,120,guess,win,5,right,6,guess_choice,774,j,0,0,774,123609,1643277
21,19,female,Belgian,3,120,guess,win,5,right,6,guess_outcome,0,undefined,0,0,794,122053,1644833
21,19,female,Belgian,3,120,ITC,win,5,right,6,ITC_start,243,space,0,0,794,121809,1645077
21,19,female,Belgian,3,120,ITC,win,5,right,6,ITC_choice,927,j,0,0,794,120881,1646005
21,19,female,Belgian,3,120,ITC,win,5,right,6,ITC_wait,0,undefined,0,0,794,115864,1651022
21,19,female,Belgian,3,120,ITC,win,5,right,6,ITC_collect,286,k,0,0,794,115577,1651309
21,19,female,Belgian,3,120,ITC,win,5,right,6,ITC_outcome,0,undefined,0,0,814,114563,1652323
21,19,female,Belgian,3,121,guess,loss,5,left,6,guess_start,401,space,0,0,814,114161,1652725
21,19,female,Belgian,3,121,guess,loss,5,left,6,guess_choice,1038,j,0,0,814,113121,1653765
21,19,female,Belgian,3,121,guess,loss,5,left,6,guess_outcome,0,undefined,0,0,799,111563,1655323
21,19,female,Belgian,3,121,ITC,loss,5,left,6,ITC_start,290,space,0,0,799,111273,1655613
21,19,female,Belgian,3,121,ITC,loss,5,left,6,ITC_choice,703,f,0,0,799,110569,1656317
21,19,female,Belgian,3,121,ITC,loss,5,left,6,ITC_wait,0,undefined,0,0,799,105563,1661323
21,19,female,Belgian,3,121,ITC,loss,5,left,6,ITC_collect,257,k,0,0,799,105305,1661581
21,19,female,Belgian,3,121,ITC,loss,5,left,6,ITC_outcome,0,undefined,0,0,819,104293,1662593
21,19,female,Belgian,3,122,guess,win,5,left,12,guess_start,355,space,0,0,819,103937,1662949
21,19,female,Belgian,3,122,guess,win,5,left,12,guess_choice,550,f,0,0,819,103385,1663501
21,19,female,Belgian,3,122,guess,win,5,left,12,guess_outcome,0,undefined,0,0,839,101813,1665073
21,19,female,Belgian,3,122,ITC,win,5,left,12,ITC_start,67,space,0,0,839,101745,1665141
21,19,female,Belgian,3,122,ITC,win,5,left,12,ITC_choice,903,f,0,0,839,100841,1666045
21,19,female,Belgian,3,122,ITC,win,5,left,12,ITC_wait,0,undefined,0,0,839,95823,1671063
21,19,female,Belgian,3,122,ITC,win,5,left,12,ITC_collect,253,k,0,0,839,95569,1671317
21,19,female,Belgian,3,122,ITC,win,5,left,12,ITC_outcome,0,undefined,0,0,859,94563,1672323
21,19,female,Belgian,3,123,guess,win,10,right,3,guess_start,457,space,0,0,859,94105,1672781
21,19,female,Belgian,3,123,guess,win,10,right,3,guess_choice,630,j,0,0,859,93473,1673413
21,19,female,Belgian,3,123,guess,win,10,right,3,guess_outcome,0,undefined,0,0,879,91903,1674983
21,19,female,Belgian,3,123,ITC,win,10,right,3,ITC_start,261,space,0,0,879,91641,1675245
21,19,female,Belgian,3,123,ITC,win,10,right,3,ITC_choice,1070,j,0,0,879,90569,1676317
21,19,female,Belgian,3,123,ITC,win,10,right,3,ITC_wait,0,undefined,0,0,879,80559,1686327
21,19,female,Belgian,3,123,ITC,win,10,right,3,ITC_collect,277,k,0,0,879,80281,1686605
21,19,female,Belgian,3,123,ITC,win,10,right,3,ITC_outcome,0,undefined,0,0,899,79268,1687618
21,19,female,Belgian,3,124,guess,win,10,left,8,guess_start,490,space,0,0,899,78777,1688109
21,19,female,Belgian,3,124,guess,win,10,left,8,guess_choice,566,f,0,0,899,78209,1688677
21,19,female,Belgian,3,124,guess,win,10,left,8,guess_outcome,0,undefined,0,0,919,76648,1690238
21,19,female,Belgian,3,124,ITC,win,10,left,8,ITC_start,318,space,0,0,919,76329,1690557
21,19,female,Belgian,3,124,ITC,win,10,left,8,ITC_choice,999,f,0,0,919,75329,1691557
21,19,female,Belgian,3,124,ITC,win,10,left,8,ITC_wait,0,undefined,0,0,919,65314,1701572
21,19,female,Belgian,3,124,ITC,win,10,left,8,ITC_collect,496,k,0,0,919,64817,1702069
21,19,female,Belgian,3,124,ITC,win,10,left,8,ITC_outcome,0,undefined,0,0,939,63812,1703074
21,19,female,Belgian,3,125,guess,neutral,5,left,3,guess_start,402,space,0,0,939,63409,1703477
21,19,female,Belgian,3,125,guess,neutral,5,left,3,guess_choice,550,f,0,0,939,62857,1704029
21,19,female,Belgian,3,125,guess,neutral,5,left,3,guess_outcome,0,undefined,0,0,939,61302,1705584
21,19,female,Belgian,3,125,ITC,neutral,5,left,3,ITC_start,388,space,0,0,939,60913,1705973
21,19,female,Belgian,3,125,ITC,neutral,5,left,3,ITC_choice,718,f,0,0,939,60193,1706693
21,19,female,Belgian,3,125,ITC,neutral,5,left,3,ITC_wait,0,undefined,0,0,939,55177,1711709
21,19,female,Belgian,3,125,ITC,neutral,5,left,3,ITC_collect,294,k,0,0,939,54881,1712005
21,19,female,Belgian,3,125,ITC,neutral,5,left,3,ITC_outcome,0,undefined,0,0,959,53862,1713024
21,19,female,Belgian,3,126,guess,neutral,5,left,1,guess_start,612,space,0,0,959,53249,1713637
21,19,female,Belgian,3,126,guess,neutral,5,left,1,guess_choice,566,j,0,0,959,52681,1714205
21,19,female,Belgian,3,126,guess,neutral,5,left,1,guess_outcome,0,undefined,0,0,959,51112,1715774
21,19,female,Belgian,3,126,ITC,neutral,5,left,1,ITC_start,934,space,0,0,959,50177,1716709
21,19,female,Belgian,3,126,ITC,neutral,5,left,1,ITC_choice,719,f,0,0,959,49457,1717429
21,19,female,Belgian,3,126,ITC,neutral,5,left,1,ITC_wait,0,undefined,0,0,959,44442,1722444
21,19,female,Belgian,3,126,ITC,neutral,5,left,1,ITC_collect,256,k,0,0,959,44185,1722701
21,19,female,Belgian,3,126,ITC,neutral,5,left,1,ITC_outcome,0,undefined,0,0,979,43172,1723714
21,19,female,Belgian,3,127,guess,loss,5,right,5,guess_start,442,space,0,0,979,42729,1724157
21,19,female,Belgian,3,127,guess,loss,5,right,5,guess_choice,678,j,0,0,979,42049,1724837
21,19,female,Belgian,3,127,guess,loss,5,right,5,guess_outcome,0,undefined,0,0,964,40482,1726404
21,19,female,Belgian,3,127,ITC,loss,5,right,5,ITC_start,336,space,0,0,964,40144,1726742
21,19,female,Belgian,3,127,ITC,loss,5,right,5,ITC_choice,718,j,0,0,964,39425,1727461
21,19,female,Belgian,3,127,ITC,loss,5,right,5,ITC_wait,0,undefined,0,0,964,34422,1732464
21,19,female,Belgian,3,127,ITC,loss,5,right,5,ITC_collect,244,k,0,0,964,34177,1732709
21,19,female,Belgian,3,127,ITC,loss,5,right,5,ITC_outcome,0,undefined,0,0,984,33162,1733724
21,19,female,Belgian,3,128,guess,neutral,5,left,13,guess_start,536,space,0,0,984,32625,1734261
21,19,female,Belgian,3,128,guess,neutral,5,left,13,guess_choice,590,j,0,0,984,32033,1734853
21,19,female,Belgian,3,128,guess,neutral,5,left,13,guess_outcome,0,undefined,0,0,984,30472,1736414
21,19,female,Belgian,3,128,ITC,neutral,5,left,13,ITC_start,366,space,0,0,984,30105,1736781
21,19,female,Belgian,3,128,ITC,neutral,5,left,13,ITC_choice,967,j,0,0,984,29137,1737749
21,19,female,Belgian,3,128,ITC,neutral,5,left,13,ITC_wait,0,undefined,0,0,984,29134,1737752
21,19,female,Belgian,3,128,ITC,neutral,5,left,13,ITC_collect,388,k,0,0,984,28745,1738141
21,19,female,Belgian,3,128,ITC,neutral,5,left,13,ITC_outcome,0,undefined,0,0,997,27742,1739144
21,19,female,Belgian,3,129,guess,neutral,10,right,4,guess_start,484,space,0,0,997,27257,1739629
21,19,female,Belgian,3,129,guess,neutral,10,right,4,guess_choice,518,j,0,0,997,26737,1740149
21,19,female,Belgian,3,129,guess,neutral,10,right,4,guess_outcome,0,undefined,0,0,997,25182,1741704
21,19,female,Belgian,3,129,ITC,neutral,10,right,4,ITC_start,707,space,0,0,997,24473,1742413
21,19,female,Belgian,3,129,ITC,neutral,10,right,4,ITC_choice,967,j,0,0,997,23505,1743381
21,19,female,Belgian,3,129,ITC,neutral,10,right,4,ITC_wait,0,undefined,0,0,997,13498,1753388
21,19,female,Belgian,3,129,ITC,neutral,10,right,4,ITC_collect,280,k,0,0,997,13217,1753669
21,19,female,Belgian,3,129,ITC,neutral,10,right,4,ITC_outcome,0,undefined,0,0,1017,12208,1754678
21,19,female,Belgian,3,130,guess,win,5,right,4,guess_start,486,space,0,0,1017,11721,1755165
21,19,female,Belgian,3,130,guess,win,5,right,4,guess_choice,638,f,0,0,1017,11081,1755805
21,19,female,Belgian,3,130,guess,win,5,right,4,guess_outcome,0,undefined,0,0,1037,9518,1757368
21,19,female,Belgian,3,130,ITC,win,5,right,4,ITC_start,316,space,0,0,1037,9201,1757685
21,19,female,Belgian,3,130,ITC,win,5,right,4,ITC_choice,911,j,0,0,1037,8289,1758597
21,19,female,Belgian,3,130,ITC,win,5,right,4,ITC_wait,0,undefined,0,0,1037,3278,1763608
21,19,female,Belgian,3,130,ITC,win,5,right,4,ITC_collect,428,k,0,0,1037,2849,1764037
21,19,female,Belgian,3,130,ITC,win,5,right,4,ITC_outcome,0,undefined,0,0,1057,1838,1765048
21,19,female,Belgian,3,131,guess,neutral,10,left,5,guess_start,427,space,0,0,1057,1409,1765477
21,19,female,Belgian,3,131,guess,neutral,10,left,5,guess_choice,462,f,0,0,1057,945,1765941
21,19,female,Belgian,3,131,guess,neutral,10,left,5,guess_outcome,0,undefined,0,0,1057,-12,1766898
21,19,female,Belgian,4,132,guess,win,5,left,11,guess_start,935,space,0,0,0,479064,1845205
21,19,female,Belgian,4,132,guess,win,5,left,11,guess_choice,678,j,0,0,0,478383,1845886
21,19,female,Belgian,4,132,guess,win,5,left,11,guess_outcome,0,undefined,0,0,20,476821,1847448
21,19,female,Belgian,4,132,ITC,win,5,left,11,ITC_start,293,space,0,0,20,476528,1847741
21,19,female,Belgian,4,132,ITC,win,5,left,11,ITC_choice,815,f,0,0,20,475712,1848557
21,19,female,Belgian,4,132,ITC,win,5,left,11,ITC_wait,0,undefined,0,0,20,470701,1853568
21,19,female,Belgian,4,132,ITC,win,5,left,11,ITC_collect,357,k,0,0,20,470343,1853926
21,19,female,Belgian,4,132,ITC,win,5,left,11,ITC_outcome,0,undefined,0,0,40,469331,1854938
21,19,female,Belgian,4,133,guess,loss,10,left,5,guess_start,306,space,0,0,40,469023,1855246
21,19,female,Belgian,4,133,guess,loss,10,left,5,guess_choice,622,j,0,0,40,468400,1855869
21,19,female,Belgian,4,133,guess,loss,10,left,5,guess_outcome,0,undefined,0,0,25,466841,1857428
21,19,female,Belgian,4,133,ITC,loss,10,left,5,ITC_start,424,space,0,0,25,466416,1857853
21,19,female,Belgian,4,133,ITC,loss,10,left,5,ITC_choice,895,f,0,0,25,465520,1858749
21,19,female,Belgian,4,133,ITC,loss,10,left,5,ITC_wait,0,undefined,0,0,25,455508,1868761
21,19,female,Belgian,4,133,ITC,loss,10,left,5,ITC_collect,283,k,0,0,25,455223,1869046
21,19,female,Belgian,4,133,ITC,loss,10,left,5,ITC_outcome,0,undefined,0,0,45,454212,1870057
21,19,female,Belgian,4,134,guess,loss,10,left,7,guess_start,315,space,0,0,45,453896,1870373
21,19,female,Belgian,4,134,guess,loss,10,left,7,guess_choice,598,j,0,0,45,453296,1870973
21,19,female,Belgian,4,134,guess,loss,10,left,7,guess_outcome,0,undefined,0,0,30,451742,1872527
21,19,female,Belgian,4,134,ITC,loss,10,left,7,ITC_start,286,space,0,0,30,451456,1872813
21,19,female,Belgian,4,134,ITC,loss,10,left,7,ITC_choice,799,f,0,0,30,450656,1873613
21,19,female,Belgian,4,134,ITC,loss,10,left,7,ITC_wait,0,undefined,0,0,30,440642,1883627
21,19,female,Belgian,4,134,ITC,loss,10,left,7,ITC_collect,273,k,0,0,30,440368,1883901
21,19,female,Belgian,4,134,ITC,loss,10,left,7,ITC_outcome,0,undefined,0,0,50,439350,1884919
21,19,female,Belgian,4,135,guess,neutral,5,right,4,guess_start,445,space,0,0,50,438904,1885365
21,19,female,Belgian,4,135,guess,neutral,5,right,4,guess_choice,702,f,0,0,50,438200,1886069
21,19,female,Belgian,4,135,guess,neutral,5,right,4,guess_outcome,0,undefined,0,0,50,436640,1887629
21,19,female,Belgian,4,135,ITC,neutral,5,right,4,ITC_start,376,space,0,0,50,436263,1888006
21,19,female,Belgian,4,135,ITC,neutral,5,right,4,ITC_choice,927,j,0,0,50,435336,1888933
21,19,female,Belgian,4,135,ITC,neutral,5,right,4,ITC_wait,0,undefined,0,0,50,430330,1893939
21,19,female,Belgian,4,135,ITC,neutral,5,right,4,ITC_collect,274,k,0,0,50,430055,1894214
21,19,female,Belgian,4,135,ITC,neutral,5,right,4,ITC_outcome,0,undefined,0,0,70,429040,1895229
21,19,female,Belgian,4,136,guess,neutral,10,left,3,guess_start,447,space,0,0,70,428592,1895677
21,19,female,Belgian,4,136,guess,neutral,10,left,3,guess_choice,838,j,0,0,70,427752,1896517
21,19,female,Belgian,4,136,guess,neutral,10,left,3,guess_outcome,0,undefined,0,0,70,426180,1898089
21,19,female,Belgian,4,136,ITC,neutral,10,left,3,ITC_start,372,space,0,0,70,425808,1898461
21,19,female,Belgian,4,136,ITC,neutral,10,left,3,ITC_choice,1007,f,0,0,70,424800,1899469
21,19,female,Belgian,4,136,ITC,neutral,10,left,3,ITC_wait,0,undefined,0,0,70,414780,1909489
21,19,female,Belgian,4,136,ITC,neutral,10,left,3,ITC_collect,219,k,0,0,70,414560,1909709
21,19,female,Belgian,4,136,ITC,neutral,10,left,3,ITC_outcome,0,undefined,0,0,90,413548,1910721
21,19,female,Belgian,4,137,guess,neutral,5,left,15,guess_start,346,space,0,0,90,413200,1911069
21,19,female,Belgian,4,137,guess,neutral,5,left,15,guess_choice,494,j,0,0,90,412704,1911565
21,19,female,Belgian,4,137,guess,neutral,5,left,15,guess_outcome,0,undefined,0,0,90,411138,1913131
21,19,female,Belgian,4,137,ITC,neutral,5,left,15,ITC_start,417,space,0,0,90,410720,1913549
21,19,female,Belgian,4,137,ITC,neutral,5,left,15,ITC_choice,967,j,0,0,90,409752,1914517
21,19,female,Belgian,4,137,ITC,neutral,5,left,15,ITC_wait,0,undefined,0,0,90,409750,1914519
21,19,female,Belgian,4,137,ITC,neutral,5,left,15,ITC_collect,293,k,0,0,90,409456,1914813
21,19,female,Belgian,4,137,ITC,neutral,5,left,15,ITC_outcome,0,undefined,0,0,105,408448,1915821
21,19,female,Belgian,4,138,guess,loss,10,right,4,guess_start,494,space,0,0,105,407952,1916317
21,19,female,Belgian,4,138,guess,loss,10,right,4,guess_choice,734,f,0,0,105,407216,1917053
21,19,female,Belgian,4,138,guess,loss,10,right,4,guess_outcome,0,undefined,0,0,90,405658,1918611
21,19,female,Belgian,4,138,ITC,loss,10,right,4,ITC_start,281,space,0,0,90,405376,1918893
21,19,female,Belgian,4,138,ITC,loss,10,right,4,ITC_choice,775,j,0,0,90,404600,1919669
21,19,female,Belgian,4,138,ITC,loss,10,right,4,ITC_wait,0,undefined,0,0,90,394590,1929679
21,19,female,Belgian,4,138,ITC,loss,10,right,4,ITC_collect,268,k,0,0,90,394320,1929949
21,19,female,Belgian,4,138,ITC,loss,10,right,4,ITC_outcome,0,undefined,0,0,110,393314,1930955
21,19,female,Belgian,4,139,guess,loss,5,right,2,guess_start,401,space,0,0,110,392912,1931357
21,19,female,Belgian,4,139,guess,loss,5,right,2,guess_choice,518,j,0,0,110,392392,1931877
21,19,female,Belgian,4,139,guess,loss,5,right,2,guess_outcome,0,undefined,0,0,95,390824,1933445
21,19,female,Belgian,4,139,ITC,loss,5,right,2,ITC_start,399,space,0,0,95,390424,1933845
21,19,female,Belgian,4,139,ITC,loss,5,right,2,ITC_choice,863,j,0,0,95,389560,1934709
21,19,female,Belgian,4,139,ITC,loss,5,right,2,ITC_wait,0,undefined,0,0,95,384544,1939725
21,19,female,Belgian,4,139,ITC,loss,5,right,2,ITC_collect,367,k,0,0,95,384176,1940093
21,19,female,Belgian,4,139,ITC,loss,5,right,2,ITC_outcome,0,undefined,0,0,115,383174,1941095
21,19,female,Belgian,4,140,guess,loss,5,right,11,guess_start,493,space,0,0,115,382680,1941589
21,19,female,Belgian,4,140,guess,loss,5,right,11,guess_choice,526,f,0,0,115,382152,1942117
21,19,female,Belgian,4,140,guess,loss,5,right,11,guess_outcome,0,undefined,0,0,100,380596,1943673
21,19,female,Belgian,4,140,ITC,loss,5,right,11,ITC_start,300,space,0,0,100,380296,1943973
21,19,female,Belgian,4,140,ITC,loss,5,right,11,ITC_choice,887,f,0,0,100,379408,1944861
