subjectID,age,gender,nationality,block_number,trial_number,trial_type,guess_outcome,delay_time,delay_pos,immediate_amount,stage,respRT,respKey,blur_count,focus_count,total_points,remaining_duration,time_elapsed
7,18,female,Belg,1,1,guess,neutral,5,left,13,guess_start,2752,space,0,0,0,477246,324056
7,18,female,Belg,1,1,guess,neutral,5,left,13,guess_choice,1455,j,0,0,0,475784,325518
7,18,female,Belg,1,1,guess,neutral,5,left,13,guess_outcome,0,undefined,0,0,0,474222,327080
7,18,female,Belg,1,1,ITC,neutral,5,left,13,ITC_start,4927,space,0,0,0,469292,332010
7,18,female,Belg,1,1,ITC,neutral,5,left,13,ITC_choice,5060,f,0,0,0,464229,337073
7,18,female,Belg,1,1,ITC,neutral,5,left,13,ITC_wait,0,undefined,0,0,0,459222,342080
7,18,female,Belg,1,1,ITC,neutral,5,left,13,ITC_collect,1338,k,0,0,0,457881,343421
7,18,female,Belg,1,1,ITC,neutral,5,left,13,ITC_outcome,0,undefined,0,0,20,456865,344437
7,18,female,Belg,1,2,guess,win,5,right,2,guess_start,2372,space,0,0,20,454489,346813
7,18,female,Belg,1,2,guess,win,5,right,2,guess_choice,1735,f,0,0,20,452748,348554
7,18,female,Belg,1,2,guess,win,5,right,2,guess_outcome,0,undefined,0,0,40,451180,350122
7,18,female,Belg,1,2,ITC,win,5,right,2,ITC_start,1628,space,0,0,40,449550,351752
7,18,female,Belg,1,2,ITC,win,5,right,2,ITC_choice,3436,j,0,0,40,446111,355191
7,18,female,Belg,1,2,ITC,win,5,right,2,ITC_wait,0,undefined,0,0,40,441107,360195
7,18,female,Belg,1,2,ITC,win,5,right,2,ITC_collect,1099,k,0,0,40,440005,361297
7,18,female,Belg,1,2,ITC,win,5,right,2,ITC_outcome,0,undefined,0,0,60,438990,362312
7,18,female,Belg,1,3,guess,neutral,5,right,5,guess_start,1168,space,0,0,60,437819,363483
7,18,female,Belg,1,3,guess,neutral,5,right,5,guess_choice,1032,f,0,0,60,436782,364520
7,18,female,Belg,1,3,guess,neutral,5,right,5,guess_outcome,0,undefined,0,0,60,435213,366089
7,18,female,Belg,1,3,ITC,neutral,5,right,5,ITC_start,899,space,0,0,60,434311,366991
7,18,female,Belg,1,3,ITC,neutral,5,right,5,ITC_choice,3564,j,0,0,60,430744,370558
7,18,female,Belg,1,3,ITC,neutral,5,right,5,ITC_wait,0,undefined,0,0,60,425726,375576
7,18,female,Belg,1,3,ITC,neutral,5,right,5,ITC_collect,963,k,0,0,60,424761,376541
7,18,female,Belg,1,3,ITC,neutral,5,right,5,ITC_outcome,0,undefined,0,0,80,423754,377548
7,18,female,Belg,1,4,guess,neutral,5,right,15,guess_start,1242,space,0,0,80,422509,378793
7,18,female,Belg,1,4,guess,neutral,5,right,15,guess_choice,856,f,0,0,80,421648,379654
7,18,female,Belg,1,4,guess,neutral,5,right,15,guess_outcome,0,undefined,0,0,80,420085,381217
7,18,female,Belg,1,4,ITC,neutral,5,right,15,ITC_start,1074,space,0,0,80,419007,382295
7,18,female,Belg,1,4,ITC,neutral,5,right,15,ITC_choice,2098,f,0,0,80,416907,384395
7,18,female,Belg,1,4,ITC,neutral,5,right,15,ITC_wait,0,undefined,0,0,80,416903,384399
7,18,female,Belg,1,4,ITC,neutral,5,right,15,ITC_collect,1294,k,0,0,80,415605,385697
7,18,female,Belg,1,4,ITC,neutral,5,right,15,ITC_outcome,0,undefined,0,0,95,414599,386703
7,18,female,Belg,1,5,guess,win,5,right,16,guess_start,694,space,0,0,95,413902,387400
7,18,female,Belg,1,5,guess,win,5,right,16,guess_choice,1136,j,0,0,95,412760,388542
7,18,female,Belg,1,5,guess,win,5,right,16,guess_outcome,0,undefined,0,0,115,411198,390104
7,18,female,Belg,1,5,ITC,win,5,right,16,ITC_start,787,space,0,0,115,410408,390894
7,18,female,Belg,1,5,ITC,win,5,right,16,ITC_choice,1339,f,0,0,115,409067,392235
7,18,female,Belg,1,5,ITC,win,5,right,16,ITC_wait,0,undefined,0,0,115,409063,392239
7,18,female,Belg,1,5,ITC,win,5,right,16,ITC_collect,846,k,0,0,115,408215,393087
7,18,female,Belg,1,5,ITC,win,5,right,16,ITC_outcome,0,undefined,0,0,131,407206,394096
7,18,female,Belg,1,6,guess,neutral,10,right,4,guess_start,621,space,0,0,131,406582,394720
7,18,female,Belg,1,6,guess,neutral,10,right,4,guess_choice,933,j,0,0,131,405644,395658
7,18,female,Belg,1,6,guess,neutral,10,right,4,guess_outcome,0,undefined,0,0,131,404077,397225
7,18,female,Belg,1,6,ITC,neutral,10,right,4,ITC_start,1824,space,0,0,131,402250,399052
7,18,female,Belg,1,6,ITC,neutral,10,right,4,ITC_choice,3276,f,0,0,131,398972,402330
7,18,female,Belg,1,6,ITC,neutral,10,right,4,ITC_wait,0,undefined,0,0,131,398967,402335
7,18,female,Belg,1,6,ITC,neutral,10,right,4,ITC_collect,1385,k,0,0,131,397580,403722
7,18,female,Belg,1,6,ITC,neutral,10,right,4,ITC_outcome,0,undefined,0,0,135,396559,404743
7,18,female,Belg,1,7,guess,neutral,5,left,7,guess_start,643,space,0,0,135,395914,405388
7,18,female,Belg,1,7,guess,neutral,5,left,7,guess_choice,743,j,0,0,135,395166,406136
7,18,female,Belg,1,7,guess,neutral,5,left,7,guess_outcome,0,undefined,0,0,135,393609,407693
7,18,female,Belg,1,7,ITC,neutral,5,left,7,ITC_start,1534,space,0,0,135,392073,409229
7,18,female,Belg,1,7,ITC,neutral,5,left,7,ITC_choice,1719,f,0,0,135,390351,410951
7,18,female,Belg,1,7,ITC,neutral,5,left,7,ITC_wait,0,undefined,0,0,135,385346,415956
7,18,female,Belg,1,7,ITC,neutral,5,left,7,ITC_collect,373,k,0,0,135,384970,416332
7,18,female,Belg,1,7,ITC,neutral,5,left,7,ITC_outcome,0,undefined,0,0,155,383957,417345
7,18,female,Belg,1,8,guess,neutral,5,left,4,guess_start,627,space,0,0,155,383325,417977
7,18,female,Belg,1,8,guess,neutral,5,left,4,guess_choice,634,j,0,0,155,382686,418616
7,18,female,Belg,1,8,guess,neutral,5,left,4,guess_outcome,0,undefined,0,0,155,381122,420180
7,18,female,Belg,1,8,ITC,neutral,5,left,4,ITC_start,629,space,0,0,155,380491,420811
7,18,female,Belg,1,8,ITC,neutral,5,left,4,ITC_choice,1850,f,0,0,155,378639,422663
7,18,female,Belg,1,8,ITC,neutral,5,left,4,ITC_wait,0,undefined,0,0,155,373628,427674
7,18,female,Belg,1,8,ITC,neutral,5,left,4,ITC_collect,621,k,0,0,155,373005,428297
7,18,female,Belg,1,8,ITC,neutral,5,left,4,ITC_outcome,0,undefined,0,0,175,371987,429315
7,18,female,Belg,1,9,guess,neutral,5,left,10,guess_start,675,space,0,0,175,371310,429992
7,18,female,Belg,1,9,guess,neutral,5,left,10,guess_choice,774,f,0,0,175,370530,430772
7,18,female,Belg,1,9,guess,neutral,5,left,10,guess_outcome,0,undefined,0,0,175,368969,432333
7,18,female,Belg,1,9,ITC,neutral,5,left,10,ITC_start,547,space,0,0,175,368420,432882
7,18,female,Belg,1,9,ITC,neutral,5,left,10,ITC_choice,1719,f,0,0,175,366698,434604
7,18,female,Belg,1,9,ITC,neutral,5,left,10,ITC_wait,0,undefined,0,0,175,361683,439619
7,18,female,Belg,1,9,ITC,neutral,5,left,10,ITC_collect,368,k,0,0,175,361313,439989
7,18,female,Belg,1,9,ITC,neutral,5,left,10,ITC_outcome,0,undefined,0,0,195,360295,441007
7,18,female,Belg,1,10,guess,neutral,5,right,16,guess_start,585,space,0,0,195,359708,441594
7,18,female,Belg,1,10,guess,neutral,5,right,16,guess_choice,624,j,0,0,195,359078,442224
7,18,female,Belg,1,10,guess,neutral,5,right,16,guess_outcome,0,undefined,0,0,195,357510,443792
7,18,female,Belg,1,10,ITC,neutral,5,right,16,ITC_start,695,space,0,0,195,356813,444489
7,18,female,Belg,1,10,ITC,neutral,5,right,16,ITC_choice,1893,f,0,0,195,354917,446385
7,18,female,Belg,1,10,ITC,neutral,5,right,16,ITC_wait,0,undefined,0,0,195,354913,446389
7,18,female,Belg,1,10,ITC,neutral,5,right,16,ITC_collect,782,k,0,0,195,354129,447173
7,18,female,Belg,1,10,ITC,neutral,5,right,16,ITC_outcome,0,undefined,0,0,211,353120,448182
7,18,female,Belg,1,11,guess,loss,10,right,3,guess_start,627,space,0,0,211,352491,448811
7,18,female,Belg,1,11,guess,loss,10,right,3,guess_choice,1058,f,0,0,211,351429,449873
7,18,female,Belg,1,11,guess,loss,10,right,3,guess_outcome,0,undefined,0,0,196,349869,451433
7,18,female,Belg,1,11,ITC,loss,10,right,3,ITC_start,960,space,0,0,196,348907,452395
7,18,female,Belg,1,11,ITC,loss,10,right,3,ITC_choice,2243,f,0,0,196,346662,454640
7,18,female,Belg,1,11,ITC,loss,10,right,3,ITC_wait,0,undefined,0,0,196,346659,454643
7,18,female,Belg,1,11,ITC,loss,10,right,3,ITC_collect,1735,k,0,0,196,344921,456381
7,18,female,Belg,1,11,ITC,loss,10,right,3,ITC_outcome,0,undefined,0,0,199,343913,457389
7,18,female,Belg,1,12,guess,win,10,right,3,guess_start,490,space,0,0,199,343420,457882
7,18,female,Belg,1,12,guess,win,10,right,3,guess_choice,1208,f,0,0,199,342207,459095
7,18,female,Belg,1,12,guess,win,10,right,3,guess_outcome,0,undefined,0,0,219,340650,460652
7,18,female,Belg,1,12,ITC,win,10,right,3,ITC_start,552,space,0,0,219,340096,461206
7,18,female,Belg,1,12,ITC,win,10,right,3,ITC_wait,0,undefined,0,0,219,337871,463431
7,18,female,Belg,1,12,ITC,win,10,right,3,ITC_choice,2220,f,0,0,219,337875,463427
7,18,female,Belg,1,12,ITC,win,10,right,3,ITC_collect,637,k,0,0,219,337231,464071
7,18,female,Belg,1,12,ITC,win,10,right,3,ITC_outcome,0,undefined,0,0,222,336224,465078
7,18,female,Belg,1,13,guess,neutral,10,right,2,guess_start,533,space,0,0,222,335689,465613
7,18,female,Belg,1,13,guess,neutral,10,right,2,guess_choice,644,f,0,0,222,335042,466260
7,18,female,Belg,1,13,guess,neutral,10,right,2,guess_outcome,0,undefined,0,0,222,333487,467815
7,18,female,Belg,1,13,ITC,neutral,10,right,2,ITC_start,429,space,0,0,222,333056,468246
7,18,female,Belg,1,13,ITC,neutral,10,right,2,ITC_choice,1710,f,0,0,222,331344,469958
7,18,female,Belg,1,13,ITC,neutral,10,right,2,ITC_wait,0,undefined,0,0,222,331340,469962
7,18,female,Belg,1,13,ITC,neutral,10,right,2,ITC_collect,887,k,0,0,222,330450,470852
7,18,female,Belg,1,13,ITC,neutral,10,right,2,ITC_outcome,0,undefined,0,0,224,329436,471866
7,18,female,Belg,1,14,guess,win,5,right,5,guess_start,361,space,0,0,224,329073,472229
7,18,female,Belg,1,14,guess,win,5,right,5,guess_choice,1093,j,0,0,224,327974,473328
7,18,female,Belg,1,14,guess,win,5,right,5,guess_outcome,0,undefined,0,0,244,326408,474894
7,18,female,Belg,1,14,ITC,win,5,right,5,ITC_start,456,space,0,0,244,325948,475354
7,18,female,Belg,1,14,ITC,win,5,right,5,ITC_choice,2577,j,0,0,244,323369,477933
7,18,female,Belg,1,14,ITC,win,5,right,5,ITC_wait,0,undefined,0,0,244,318353,482949
7,18,female,Belg,1,14,ITC,win,5,right,5,ITC_collect,454,k,0,0,244,317896,483406
7,18,female,Belg,1,14,ITC,win,5,right,5,ITC_outcome,0,undefined,0,0,264,316880,484422
7,18,female,Belg,1,15,guess,win,5,left,14,guess_start,519,space,0,0,264,316359,484943
7,18,female,Belg,1,15,guess,win,5,left,14,guess_choice,851,f,0,0,264,315503,485799
7,18,female,Belg,1,15,guess,win,5,left,14,guess_outcome,0,undefined,0,0,284,313935,487367
7,18,female,Belg,1,15,ITC,win,5,left,14,ITC_start,625,space,0,0,284,313309,487993
7,18,female,Belg,1,15,ITC,win,5,left,14,ITC_wait,0,undefined,0,0,284,311320,489982
7,18,female,Belg,1,15,ITC,win,5,left,14,ITC_choice,1983,j,0,0,284,311323,489979
7,18,female,Belg,1,15,ITC,win,5,left,14,ITC_collect,674,k,0,0,284,310644,490658
7,18,female,Belg,1,15,ITC,win,5,left,14,ITC_outcome,0,undefined,0,0,298,309630,491672
7,18,female,Belg,1,16,guess,win,10,right,6,guess_start,540,space,0,0,298,309087,492215
7,18,female,Belg,1,16,guess,win,10,right,6,guess_choice,1344,f,0,0,298,307739,493563
7,18,female,Belg,1,16,guess,win,10,right,6,guess_outcome,0,undefined,0,0,318,306180,495122
7,18,female,Belg,1,16,ITC,win,10,right,6,ITC_start,574,space,0,0,318,305605,495697
7,18,female,Belg,1,16,ITC,win,10,right,6,ITC_choice,1755,f,0,0,318,303847,497455
7,18,female,Belg,1,16,ITC,win,10,right,6,ITC_wait,0,undefined,0,0,318,303843,497459
7,18,female,Belg,1,16,ITC,win,10,right,6,ITC_collect,641,k,0,0,318,303200,498102
7,18,female,Belg,1,16,ITC,win,10,right,6,ITC_outcome,0,undefined,0,0,324,302190,499112
7,18,female,Belg,1,17,guess,loss,5,left,5,guess_start,629,space,0,0,324,301559,499743
7,18,female,Belg,1,17,guess,loss,5,left,5,guess_choice,685,j,0,0,324,300869,500433
7,18,female,Belg,1,17,guess,loss,5,left,5,guess_outcome,0,undefined,0,0,309,299314,501988
7,18,female,Belg,1,17,ITC,loss,5,left,5,ITC_start,688,space,0,0,309,298624,502678
7,18,female,Belg,1,17,ITC,loss,5,left,5,ITC_choice,2023,f,0,0,309,296599,504703
7,18,female,Belg,1,17,ITC,loss,5,left,5,ITC_wait,0,undefined,0,0,309,291587,509715
7,18,female,Belg,1,17,ITC,loss,5,left,5,ITC_collect,375,k,0,0,309,291209,510093
7,18,female,Belg,1,17,ITC,loss,5,left,5,ITC_outcome,0,undefined,0,0,329,290194,511108
7,18,female,Belg,1,18,guess,win,5,left,9,guess_start,967,space,0,0,329,289224,512078
7,18,female,Belg,1,18,guess,win,5,left,9,guess_choice,745,j,0,0,329,288475,512827
7,18,female,Belg,1,18,guess,win,5,left,9,guess_outcome,0,undefined,0,0,349,286913,514389
7,18,female,Belg,1,18,ITC,win,5,left,9,ITC_start,770,space,0,0,349,286141,515161
7,18,female,Belg,1,18,ITC,win,5,left,9,ITC_choice,2732,f,0,0,349,283406,517896
7,18,female,Belg,1,18,ITC,win,5,left,9,ITC_wait,0,undefined,0,0,349,278393,522909
7,18,female,Belg,1,18,ITC,win,5,left,9,ITC_collect,5334,k,0,0,349,273056,528246
7,18,female,Belg,1,18,ITC,win,5,left,9,ITC_outcome,0,undefined,0,0,369,272047,529255
7,18,female,Belg,1,19,guess,loss,5,right,14,guess_start,1097,space,0,0,369,270947,530355
7,18,female,Belg,1,19,guess,loss,5,right,14,guess_choice,1004,j,0,0,369,269939,531363
7,18,female,Belg,1,19,guess,loss,5,right,14,guess_outcome,0,undefined,0,0,354,268380,532922
7,18,female,Belg,1,19,ITC,loss,5,right,14,ITC_start,664,space,0,0,354,267714,533588
7,18,female,Belg,1,19,ITC,loss,5,right,14,ITC_choice,1101,f,0,0,354,266612,534690
7,18,female,Belg,1,19,ITC,loss,5,right,14,ITC_wait,0,undefined,0,0,354,266608,534694
7,18,female,Belg,1,19,ITC,loss,5,right,14,ITC_collect,2983,k,0,0,354,263623,537679
7,18,female,Belg,1,19,ITC,loss,5,right,14,ITC_outcome,0,undefined,0,0,368,262606,538696
7,18,female,Belg,1,20,guess,win,10,right,4,guess_start,594,space,0,0,368,262009,539293
7,18,female,Belg,1,20,guess,win,10,right,4,guess_choice,623,j,0,0,368,261381,539921
7,18,female,Belg,1,20,guess,win,10,right,4,guess_outcome,0,undefined,0,0,388,259817,541485
7,18,female,Belg,1,20,ITC,win,10,right,4,ITC_start,1058,space,0,0,388,258757,542545
7,18,female,Belg,1,20,ITC,win,10,right,4,ITC_choice,1885,f,0,0,388,256870,544432
7,18,female,Belg,1,20,ITC,win,10,right,4,ITC_wait,0,undefined,0,0,388,256866,544436
7,18,female,Belg,1,20,ITC,win,10,right,4,ITC_collect,516,k,0,0,388,256347,544955
7,18,female,Belg,1,20,ITC,win,10,right,4,ITC_outcome,0,undefined,0,0,392,255341,545961
7,18,female,Belg,1,21,guess,loss,10,left,7,guess_start,571,space,0,0,392,254765,546537
7,18,female,Belg,1,21,guess,loss,10,left,7,guess_choice,1834,f,0,0,392,252927,548375
7,18,female,Belg,1,21,guess,loss,10,left,7,guess_outcome,0,undefined,0,0,377,251360,549942
7,18,female,Belg,1,21,ITC,loss,10,left,7,ITC_start,879,space,0,0,377,250478,550824
7,18,female,Belg,1,21,ITC,loss,10,left,7,ITC_choice,1366,j,0,0,377,249110,552192
7,18,female,Belg,1,21,ITC,loss,10,left,7,ITC_wait,0,undefined,0,0,377,249106,552196
7,18,female,Belg,1,21,ITC,loss,10,left,7,ITC_collect,2372,k,0,0,377,246732,554570
7,18,female,Belg,1,21,ITC,loss,10,left,7,ITC_outcome,0,undefined,0,0,384,245717,555585
7,18,female,Belg,1,22,guess,loss,5,left,6,guess_start,800,space,0,0,384,244914,556388
7,18,female,Belg,1,22,guess,loss,5,left,6,guess_choice,1143,j,0,0,384,243766,557536
7,18,female,Belg,1,22,guess,loss,5,left,6,guess_outcome,0,undefined,0,0,369,242198,559104
7,18,female,Belg,1,22,ITC,loss,5,left,6,ITC_start,615,space,0,0,369,241581,559721
7,18,female,Belg,1,22,ITC,loss,5,left,6,ITC_choice,2275,f,0,0,369,239304,561998
7,18,female,Belg,1,22,ITC,loss,5,left,6,ITC_wait,0,undefined,0,0,369,234291,567011
7,18,female,Belg,1,22,ITC,loss,5,left,6,ITC_collect,281,k,0,0,369,234007,567295
7,18,female,Belg,1,22,ITC,loss,5,left,6,ITC_outcome,0,undefined,0,0,389,232988,568314
7,18,female,Belg,1,23,guess,loss,10,right,5,guess_start,581,space,0,0,389,232404,568898
7,18,female,Belg,1,23,guess,loss,10,right,5,guess_choice,819,j,0,0,389,231581,569721
7,18,female,Belg,1,23,guess,loss,10,right,5,guess_outcome,0,undefined,0,0,374,230021,571281
7,18,female,Belg,1,23,ITC,loss,10,right,5,ITC_start,769,space,0,0,374,229249,572053
7,18,female,Belg,1,23,ITC,loss,10,right,5,ITC_choice,1712,f,0,0,374,227535,573767
7,18,female,Belg,1,23,ITC,loss,10,right,5,ITC_wait,0,undefined,0,0,374,227531,573771
7,18,female,Belg,1,23,ITC,loss,10,right,5,ITC_collect,589,k,0,0,374,226940,574362
7,18,female,Belg,1,23,ITC,loss,10,right,5,ITC_outcome,0,undefined,0,0,379,225933,575369
7,18,female,Belg,1,24,guess,loss,5,right,16,guess_start,666,space,0,0,379,225264,576038
7,18,female,Belg,1,24,guess,loss,5,right,16,guess_choice,924,j,0,0,379,224335,576967
7,18,female,Belg,1,24,guess,loss,5,right,16,guess_outcome,0,undefined,0,0,364,222779,578523
7,18,female,Belg,1,24,ITC,loss,5,right,16,ITC_start,1086,space,0,0,364,221691,579611
7,18,female,Belg,1,24,ITC,loss,5,right,16,ITC_choice,1419,f,0,0,364,220269,581033
7,18,female,Belg,1,24,ITC,loss,5,right,16,ITC_wait,0,undefined,0,0,364,220265,581037
7,18,female,Belg,1,24,ITC,loss,5,right,16,ITC_collect,598,k,0,0,364,219665,581637
7,18,female,Belg,1,24,ITC,loss,5,right,16,ITC_outcome,0,undefined,0,0,380,218659,582643
7,18,female,Belg,1,25,guess,win,10,right,2,guess_start,600,space,0,0,380,218057,583245
7,18,female,Belg,1,25,guess,win,10,right,2,guess_choice,1241,j,0,0,380,216810,584492
7,18,female,Belg,1,25,guess,win,10,right,2,guess_outcome,0,undefined,0,0,400,215255,586047
7,18,female,Belg,1,25,ITC,win,10,right,2,ITC_start,722,space,0,0,400,214530,586772
7,18,female,Belg,1,25,ITC,win,10,right,2,ITC_choice,2043,f,0,0,400,212485,588817
7,18,female,Belg,1,25,ITC,win,10,right,2,ITC_wait,0,undefined,0,0,400,212481,588821
7,18,female,Belg,1,25,ITC,win,10,right,2,ITC_collect,279,k,0,0,400,212200,589102
7,18,female,Belg,1,25,ITC,win,10,right,2,ITC_outcome,0,undefined,0,0,402,211187,590115
7,18,female,Belg,1,26,guess,loss,10,right,6,guess_start,268,space,0,0,402,210917,590385
7,18,female,Belg,1,26,guess,loss,10,right,6,guess_choice,939,f,0,0,402,209973,591329
7,18,female,Belg,1,26,guess,loss,10,right,6,guess_outcome,0,undefined,0,0,387,208415,592887
7,18,female,Belg,1,26,ITC,loss,10,right,6,ITC_start,451,space,0,0,387,207961,593341
7,18,female,Belg,1,26,ITC,loss,10,right,6,ITC_wait,0,undefined,0,0,387,206418,594884
7,18,female,Belg,1,26,ITC,loss,10,right,6,ITC_choice,1537,f,0,0,387,206422,594880
7,18,female,Belg,1,26,ITC,loss,10,right,6,ITC_collect,622,k,0,0,387,205794,595508
7,18,female,Belg,1,26,ITC,loss,10,right,6,ITC_outcome,0,undefined,0,0,393,204782,596520
7,18,female,Belg,1,27,guess,win,5,left,7,guess_start,643,space,0,0,393,204137,597165
7,18,female,Belg,1,27,guess,win,5,left,7,guess_choice,1856,j,0,0,393,202276,599026
7,18,female,Belg,1,27,guess,win,5,left,7,guess_outcome,0,undefined,0,0,413,200712,600590
7,18,female,Belg,1,27,ITC,win,5,left,7,ITC_start,475,space,0,0,413,200234,601068
7,18,female,Belg,1,27,ITC,win,5,left,7,ITC_choice,1983,f,0,0,413,198249,603053
7,18,female,Belg,1,27,ITC,win,5,left,7,ITC_wait,0,undefined,0,0,413,193239,608063
7,18,female,Belg,1,27,ITC,win,5,left,7,ITC_collect,1366,k,0,0,413,191870,609432
7,18,female,Belg,1,27,ITC,win,5,left,7,ITC_outcome,0,undefined,0,0,433,190864,610438
7,18,female,Belg,1,28,guess,loss,5,left,15,guess_start,612,space,0,0,433,190250,611052
7,18,female,Belg,1,28,guess,loss,5,left,15,guess_choice,665,j,0,0,433,189580,611722
7,18,female,Belg,1,28,guess,loss,5,left,15,guess_outcome,0,undefined,0,0,418,188019,613283
7,18,female,Belg,1,28,ITC,loss,5,left,15,ITC_start,94,space,0,0,418,187923,613379
7,18,female,Belg,1,28,ITC,loss,5,left,15,ITC_wait,0,undefined,0,0,418,185933,615369
7,18,female,Belg,1,28,ITC,loss,5,left,15,ITC_choice,1984,j,0,0,418,185937,615365
7,18,female,Belg,1,28,ITC,loss,5,left,15,ITC_collect,616,k,0,0,418,185315,615987
7,18,female,Belg,1,28,ITC,loss,5,left,15,ITC_outcome,0,undefined,0,0,433,184305,616997
7,18,female,Belg,1,29,guess,neutral,5,right,12,guess_start,341,space,0,0,433,183961,617341
7,18,female,Belg,1,29,guess,neutral,5,right,12,guess_choice,1192,f,0,0,433,182764,618538
7,18,female,Belg,1,29,guess,neutral,5,right,12,guess_outcome,0,undefined,0,0,433,181195,620107
7,18,female,Belg,1,29,ITC,neutral,5,right,12,ITC_start,1100,space,0,0,433,180093,621209
7,18,female,Belg,1,29,ITC,neutral,5,right,12,ITC_choice,2371,f,0,0,433,177720,623582
7,18,female,Belg,1,29,ITC,neutral,5,right,12,ITC_wait,0,undefined,0,0,433,177716,623586
7,18,female,Belg,1,29,ITC,neutral,5,right,12,ITC_collect,543,k,0,0,433,177171,624131
7,18,female,Belg,1,29,ITC,neutral,5,right,12,ITC_outcome,0,undefined,0,0,445,176165,625137
7,18,female,Belg,1,30,guess,loss,5,left,8,guess_start,374,space,0,0,445,175788,625514
7,18,female,Belg,1,30,guess,loss,5,left,8,guess_choice,734,j,0,0,445,175050,626252
7,18,female,Belg,1,30,guess,loss,5,left,8,guess_outcome,0,undefined,0,0,430,173487,627815
7,18,female,Belg,1,30,ITC,loss,5,left,8,ITC_start,326,space,0,0,430,173159,628143
7,18,female,Belg,1,30,ITC,loss,5,left,8,ITC_choice,2483,f,0,0,430,170674,630628
7,18,female,Belg,1,30,ITC,loss,5,left,8,ITC_wait,0,undefined,0,0,430,165670,635632
7,18,female,Belg,1,30,ITC,loss,5,left,8,ITC_collect,607,k,0,0,430,165060,636242
7,18,female,Belg,1,30,ITC,loss,5,left,8,ITC_outcome,0,undefined,0,0,450,164042,637260
7,18,female,Belg,1,31,guess,loss,5,right,13,guess_start,1213,space,0,0,450,162826,638476
7,18,female,Belg,1,31,guess,loss,5,right,13,guess_choice,805,j,0,0,450,162017,639285
7,18,female,Belg,1,31,guess,loss,5,right,13,guess_outcome,0,undefined,0,0,435,160460,640842
7,18,female,Belg,1,31,ITC,loss,5,right,13,ITC_start,1145,space,0,0,435,159312,641990
7,18,female,Belg,1,31,ITC,loss,5,right,13,ITC_choice,42,j,0,0,435,159268,642034
7,18,female,Belg,1,31,ITC,loss,5,right,13,ITC_wait,0,undefined,0,0,435,154251,647051
7,18,female,Belg,1,31,ITC,loss,5,right,13,ITC_collect,775,k,0,0,435,153473,647829
7,18,female,Belg,1,31,ITC,loss,5,right,13,ITC_outcome,0,undefined,0,0,455,152457,648845
7,18,female,Belg,1,32,guess,neutral,5,left,2,guess_start,472,space,0,0,455,151982,649320
7,18,female,Belg,1,32,guess,neutral,5,left,2,guess_choice,759,f,0,0,455,151219,650083
7,18,female,Belg,1,32,guess,neutral,5,left,2,guess_outcome,0,undefined,0,0,455,149661,651641
7,18,female,Belg,1,32,ITC,neutral,5,left,2,ITC_start,617,space,0,0,455,149042,652260
7,18,female,Belg,1,32,ITC,neutral,5,left,2,ITC_choice,1625,f,0,0,455,147415,653887
7,18,female,Belg,1,32,ITC,neutral,5,left,2,ITC_wait,0,undefined,0,0,455,142409,658893
7,18,female,Belg,1,32,ITC,neutral,5,left,2,ITC_collect,331,k,0,0,455,142075,659227
7,18,female,Belg,1,32,ITC,neutral,5,left,2,ITC_outcome,0,undefined,0,0,475,141060,660242
7,18,female,Belg,1,33,guess,win,5,right,1,guess_start,622,space,0,0,475,140436,660866
7,18,female,Belg,1,33,guess,win,5,right,1,guess_choice,660,j,0,0,475,139772,661530
7,18,female,Belg,1,33,guess,win,5,right,1,guess_outcome,0,undefined,0,0,495,138204,663098
7,18,female,Belg,1,33,ITC,win,5,right,1,ITC_start,541,space,0,0,495,137661,663641
7,18,female,Belg,1,33,ITC,win,5,right,1,ITC_choice,1454,j,0,0,495,136202,665100
7,18,female,Belg,1,33,ITC,win,5,right,1,ITC_wait,0,undefined,0,0,495,131190,670112
7,18,female,Belg,1,33,ITC,win,5,right,1,ITC_collect,227,k,0,0,495,130959,670343
7,18,female,Belg,1,33,ITC,win,5,right,1,ITC_outcome,0,undefined,0,0,515,129953,671349
7,18,female,Belg,1,34,guess,loss,5,left,4,guess_start,532,space,0,0,515,129418,671884
7,18,female,Belg,1,34,guess,loss,5,left,4,guess_choice,1034,f,0,0,515,128380,672922
7,18,female,Belg,1,34,guess,loss,5,left,4,guess_outcome,0,undefined,0,0,500,126820,674482
7,18,female,Belg,1,34,ITC,loss,5,left,4,ITC_start,968,space,0,0,500,125850,675452
7,18,female,Belg,1,34,ITC,loss,5,left,4,ITC_choice,1255,f,0,0,500,124593,676709
7,18,female,Belg,1,34,ITC,loss,5,left,4,ITC_wait,0,undefined,0,0,500,119585,681717
7,18,female,Belg,1,34,ITC,loss,5,left,4,ITC_collect,713,k,0,0,500,118869,682433
7,18,female,Belg,1,34,ITC,loss,5,left,4,ITC_outcome,0,undefined,0,0,520,117865,683437
7,18,female,Belg,1,35,guess,loss,10,left,2,guess_start,345,space,0,0,520,117518,683784
7,18,female,Belg,1,35,guess,loss,10,left,2,guess_choice,686,j,0,0,520,116828,684474
7,18,female,Belg,1,35,guess,loss,10,left,2,guess_outcome,0,undefined,0,0,505,115258,686044
7,18,female,Belg,1,35,ITC,loss,10,left,2,ITC_start,2724,space,0,0,505,112532,688770
7,18,female,Belg,1,35,ITC,loss,10,left,2,ITC_choice,1479,j,0,0,505,111050,690252
7,18,female,Belg,1,35,ITC,loss,10,left,2,ITC_wait,0,undefined,0,0,505,111047,690255
7,18,female,Belg,1,35,ITC,loss,10,left,2,ITC_collect,619,k,0,0,505,110426,690876
7,18,female,Belg,1,35,ITC,loss,10,left,2,ITC_outcome,0,undefined,0,0,507,109408,691894
7,18,female,Belg,1,36,guess,win,10,right,7,guess_start,636,space,0,0,507,108769,692533
7,18,female,Belg,1,36,guess,win,10,right,7,guess_choice,854,f,0,0,507,107911,693391
7,18,female,Belg,1,36,guess,win,10,right,7,guess_outcome,0,undefined,0,0,527,106341,694961
7,18,female,Belg,1,36,ITC,win,10,right,7,ITC_start,418,space,0,0,527,105921,695381
7,18,female,Belg,1,36,ITC,win,10,right,7,ITC_choice,1663,f,0,0,527,104254,697048
7,18,female,Belg,1,36,ITC,win,10,right,7,ITC_wait,0,undefined,0,0,527,104251,697051
7,18,female,Belg,1,36,ITC,win,10,right,7,ITC_collect,469,k,0,0,527,103779,697523
7,18,female,Belg,1,36,ITC,win,10,right,7,ITC_outcome,0,undefined,0,0,534,102763,698539
7,18,female,Belg,1,37,guess,loss,5,right,2,guess_start,283,space,0,0,534,102477,698825
7,18,female,Belg,1,37,guess,loss,5,right,2,guess_choice,744,j,0,0,534,101729,699573
7,18,female,Belg,1,37,guess,loss,5,right,2,guess_outcome,0,undefined,0,0,519,100164,701138
7,18,female,Belg,1,37,ITC,loss,5,right,2,ITC_start,489,space,0,0,519,99673,701629
7,18,female,Belg,1,37,ITC,loss,5,right,2,ITC_choice,1477,j,0,0,519,98194,703108
7,18,female,Belg,1,37,ITC,loss,5,right,2,ITC_wait,0,undefined,0,0,519,93182,708120
7,18,female,Belg,1,37,ITC,loss,5,right,2,ITC_collect,942,k,0,0,519,92238,709064
7,18,female,Belg,1,37,ITC,loss,5,right,2,ITC_outcome,0,undefined,0,0,539,91234,710068
7,18,female,Belg,1,38,guess,neutral,10,left,5,guess_start,655,space,0,0,539,90576,710726
7,18,female,Belg,1,38,guess,neutral,10,left,5,guess_choice,1258,f,0,0,539,89314,711988
7,18,female,Belg,1,38,guess,neutral,10,left,5,guess_outcome,0,undefined,0,0,539,87751,713551
7,18,female,Belg,1,38,ITC,neutral,10,left,5,ITC_start,558,space,0,0,539,87191,714111
7,18,female,Belg,1,38,ITC,neutral,10,left,5,ITC_choice,1108,j,0,0,539,86081,715221
7,18,female,Belg,1,38,ITC,neutral,10,left,5,ITC_wait,0,undefined,0,0,539,86077,715225
7,18,female,Belg,1,38,ITC,neutral,10,left,5,ITC_collect,832,k,0,0,539,85242,716060
7,18,female,Belg,1,38,ITC,neutral,10,left,5,ITC_outcome,0,undefined,0,0,544,84235,717067
7,18,female,Belg,1,39,guess,loss,10,right,1,guess_start,503,space,0,0,544,83730,717572
7,18,female,Belg,1,39,guess,loss,10,right,1,guess_choice,659,j,0,0,544,83067,718235
7,18,female,Belg,1,39,guess,loss,10,right,1,guess_outcome,0,undefined,0,0,529,81509,719793
7,18,female,Belg,1,39,ITC,loss,10,right,1,ITC_start,466,space,0,0,529,81041,720261
7,18,female,Belg,1,39,ITC,loss,10,right,1,ITC_wait,0,undefined,0,0,529,78846,722456
7,18,female,Belg,1,39,ITC,loss,10,right,1,ITC_choice,2188,f,0,0,529,78850,722452
7,18,female,Belg,1,39,ITC,loss,10,right,1,ITC_collect,213,k,0,0,529,78631,722671
7,18,female,Belg,1,39,ITC,loss,10,right,1,ITC_outcome,0,undefined,0,0,530,77622,723680
7,18,female,Belg,1,40,guess,neutral,5,right,6,guess_start,697,space,0,0,530,76922,724380
7,18,female,Belg,1,40,guess,neutral,5,right,6,guess_choice,653,f,0,0,530,76265,725037
7,18,female,Belg,1,40,guess,neutral,5,right,6,guess_outcome,0,undefined,0,0,530,74702,726600
7,18,female,Belg,1,40,ITC,neutral,5,right,6,ITC_start,526,space,0,0,530,74174,727128
7,18,female,Belg,1,40,ITC,neutral,5,right,6,ITC_choice,2005,j,0,0,530,72167,729135
7,18,female,Belg,1,40,ITC,neutral,5,right,6,ITC_wait,0,undefined,0,0,530,67159,734143
7,18,female,Belg,1,40,ITC,neutral,5,right,6,ITC_collect,623,k,0,0,530,66533,734769
7,18,female,Belg,1,40,ITC,neutral,5,right,6,ITC_outcome,0,undefined,0,0,550,65516,735786
7,18,female,Belg,1,41,guess,win,5,left,10,guess_start,517,space,0,0,550,64997,736305
7,18,female,Belg,1,41,guess,win,5,left,10,guess_choice,791,j,0,0,550,64202,737100
7,18,female,Belg,1,41,guess,win,5,left,10,guess_outcome,0,undefined,0,0,570,62638,738664
7,18,female,Belg,1,41,ITC,win,5,left,10,ITC_start,562,space,0,0,570,62074,739228
7,18,female,Belg,1,41,ITC,win,5,left,10,ITC_wait,0,undefined,0,0,570,60771,740531
7,18,female,Belg,1,41,ITC,win,5,left,10,ITC_choice,1297,j,0,0,570,60775,740527
7,18,female,Belg,1,41,ITC,win,5,left,10,ITC_collect,676,k,0,0,570,60093,741209
7,18,female,Belg,1,41,ITC,win,5,left,10,ITC_outcome,0,undefined,0,0,580,59078,742224
7,18,female,Belg,1,42,guess,neutral,5,right,1,guess_start,450,space,0,0,580,58626,742676
7,18,female,Belg,1,42,guess,neutral,5,right,1,guess_choice,854,j,0,0,580,57767,743535
7,18,female,Belg,1,42,guess,neutral,5,right,1,guess_outcome,0,undefined,0,0,580,56210,745092
7,18,female,Belg,1,42,ITC,neutral,5,right,1,ITC_start,916,space,0,0,580,55291,746011
7,18,female,Belg,1,42,ITC,neutral,5,right,1,ITC_choice,1518,j,0,0,580,53771,747531
7,18,female,Belg,1,42,ITC,neutral,5,right,1,ITC_wait,0,undefined,0,0,580,48764,752538
7,18,female,Belg,1,42,ITC,neutral,5,right,1,ITC_collect,988,k,0,0,580,47773,753529
7,18,female,Belg,1,42,ITC,neutral,5,right,1,ITC_outcome,0,undefined,0,0,600,46755,754547
7,18,female,Belg,1,43,guess,neutral,10,right,1,guess_start,1715,space,0,0,600,45037,756265
7,18,female,Belg,1,43,guess,neutral,10,right,1,guess_choice,744,j,0,0,600,44288,757014
7,18,female,Belg,1,43,guess,neutral,10,right,1,guess_outcome,0,undefined,0,0,600,42721,758581
7,18,female,Belg,1,43,ITC,neutral,10,right,1,ITC_start,1029,space,0,0,600,41689,759613
7,18,female,Belg,1,43,ITC,neutral,10,right,1,ITC_choice,1739,f,0,0,600,39948,761354
7,18,female,Belg,1,43,ITC,neutral,10,right,1,ITC_wait,0,undefined,0,0,600,39944,761358
7,18,female,Belg,1,43,ITC,neutral,10,right,1,ITC_collect,538,k,0,0,600,39404,761898
7,18,female,Belg,1,43,ITC,neutral,10,right,1,ITC_outcome,0,undefined,0,0,601,38400,762902
7,18,female,Belg,1,44,guess,loss,5,left,1,guess_start,609,space,0,0,601,37788,763514
7,18,female,Belg,1,44,guess,loss,5,left,1,guess_choice,670,j,0,0,601,37114,764188
7,18,female,Belg,1,44,guess,loss,5,left,1,guess_outcome,0,undefined,0,0,586,35554,765748
7,18,female,Belg,1,44,ITC,loss,5,left,1,ITC_start,524,space,0,0,586,35028,766274
7,18,female,Belg,1,44,ITC,loss,5,left,1,ITC_choice,1995,f,0,0,586,33031,768271
7,18,female,Belg,1,44,ITC,loss,5,left,1,ITC_wait,0,undefined,0,0,586,28018,773284
7,18,female,Belg,1,44,ITC,loss,5,left,1,ITC_collect,901,k,0,0,586,27115,774187
7,18,female,Belg,1,44,ITC,loss,5,left,1,ITC_outcome,0,undefined,0,0,606,26097,775205
7,18,female,Belg,1,45,guess,neutral,5,right,3,guess_start,702,space,0,0,606,25393,775909
7,18,female,Belg,1,45,guess,neutral,5,right,3,guess_choice,608,j,0,0,606,24778,776524
7,18,female,Belg,1,45,guess,neutral,5,right,3,guess_outcome,0,undefined,0,0,606,23210,778092
7,18,female,Belg,1,45,ITC,neutral,5,right,3,ITC_start,591,space,0,0,606,22617,778685
7,18,female,Belg,1,45,ITC,neutral,5,right,3,ITC_choice,2602,f,0,0,606,20013,781289
7,18,female,Belg,1,45,ITC,neutral,5,right,3,ITC_wait,0,undefined,0,0,606,20009,781293
7,18,female,Belg,1,45,ITC,neutral,5,right,3,ITC_collect,142,k,0,0,606,19864,781438
7,18,female,Belg,1,45,ITC,neutral,5,right,3,ITC_outcome,0,undefined,0,0,609,18850,782452
7,18,female,Belg,1,46,guess,loss,5,left,11,guess_start,440,space,0,0,609,18407,782895
7,18,female,Belg,1,46,guess,loss,5,left,11,guess_choice,579,j,0,0,609,17824,783478
7,18,female,Belg,1,46,guess,loss,5,left,11,guess_outcome,0,undefined,0,0,594,16255,785047
7,18,female,Belg,1,46,ITC,loss,5,left,11,ITC_start,630,space,0,0,594,15623,785679
7,18,female,Belg,1,46,ITC,loss,5,left,11,ITC_choice,2274,j,0,0,594,13347,787955
7,18,female,Belg,1,46,ITC,loss,5,left,11,ITC_wait,0,undefined,0,0,594,13342,787960
7,18,female,Belg,1,46,ITC,loss,5,left,11,ITC_collect,487,k,0,0,594,12853,788449
7,18,female,Belg,1,46,ITC,loss,5,left,11,ITC_outcome,0,undefined,0,0,605,11848,789454
7,18,female,Belg,1,47,guess,neutral,10,left,3,guess_start,426,space,0,0,605,11420,789882
7,18,female,Belg,1,47,guess,neutral,10,left,3,guess_choice,562,f,0,0,605,10852,790450
7,18,female,Belg,1,47,guess,neutral,10,left,3,guess_outcome,0,undefined,0,0,605,9293,792009
7,18,female,Belg,1,47,ITC,neutral,10,left,3,ITC_start,589,space,0,0,605,8702,792600
7,18,female,Belg,1,47,ITC,neutral,10,left,3,ITC_choice,1565,j,0,0,605,7135,794167
7,18,female,Belg,1,47,ITC,neutral,10,left,3,ITC_wait,0,undefined,0,0,605,7131,794171
7,18,female,Belg,1,47,ITC,neutral,10,left,3,ITC_collect,308,k,0,0,605,6820,794482
7,18,female,Belg,1,47,ITC,neutral,10,left,3,ITC_outcome,0,undefined,0,0,608,5810,795492
7,18,female,Belg,1,48,guess,loss,10,right,4,guess_start,436,space,0,0,608,5372,795930
7,18,female,Belg,1,48,guess,loss,10,right,4,guess_choice,637,j,0,0,608,4730,796572
7,18,female,Belg,1,48,guess,loss,10,right,4,guess_outcome,0,undefined,0,0,593,3173,798129
7,18,female,Belg,1,48,ITC,loss,10,right,4,ITC_start,592,space,0,0,593,2579,798723
7,18,female,Belg,1,48,ITC,loss,10,right,4,ITC_choice,1451,f,0,0,593,1126,800176
7,18,female,Belg,1,48,ITC,loss,10,right,4,ITC_wait,0,undefined,0,0,593,1122,800180
7,18,female,Belg,1,48,ITC,loss,10,right,4,ITC_collect,372,k,0,0,593,748,800554
7,18,female,Belg,1,48,ITC,loss,10,right,4,ITC_outcome,0,undefined,0,0,597,-4,801306
7,18,female,Belg,2,49,guess,loss,5,left,12,guess_start,3886,space,0,0,0,476113,1181049
7,18,female,Belg,2,49,guess,loss,5,left,12,guess_choice,2132,f,0,0,0,473976,1183186
7,18,female,Belg,2,49,guess,loss,5,left,12,guess_outcome,0,undefined,0,0,-15,472417,1184745
7,18,female,Belg,2,49,ITC,loss,5,left,12,ITC_start,1900,space,0,0,-15,470515,1186647
7,18,female,Belg,2,49,ITC,loss,5,left,12,ITC_choice,1251,f,0,0,-15,469261,1187901
7,18,female,Belg,2,49,ITC,loss,5,left,12,ITC_wait,0,undefined,0,0,-15,464246,1192916
7,18,female,Belg,2,49,ITC,loss,5,left,12,ITC_collect,3470,k,0,0,-15,460774,1196388
7,18,female,Belg,2,49,ITC,loss,5,left,12,ITC_outcome,0,undefined,0,0,5,459770,1197392
7,18,female,Belg,2,50,guess,win,10,right,1,guess_start,429,space,0,0,5,459338,1197824
7,18,female,Belg,2,50,guess,win,10,right,1,guess_choice,621,j,0,0,5,458712,1198450
7,18,female,Belg,2,50,guess,win,10,right,1,guess_outcome,0,undefined,0,0,25,457144,1200018
7,18,female,Belg,2,50,ITC,win,10,right,1,ITC_start,500,space,0,0,25,456643,1200519
7,18,female,Belg,2,50,ITC,win,10,right,1,ITC_choice,1511,f,0,0,25,455129,1202033
7,18,female,Belg,2,50,ITC,win,10,right,1,ITC_wait,0,undefined,0,0,25,455125,1202037
7,18,female,Belg,2,50,ITC,win,10,right,1,ITC_collect,441,k,0,0,25,454682,1202480
7,18,female,Belg,2,50,ITC,win,10,right,1,ITC_outcome,0,undefined,0,0,26,453676,1203486
7,18,female,Belg,2,51,guess,neutral,10,left,7,guess_start,404,space,0,0,26,453270,1203892
7,18,female,Belg,2,51,guess,neutral,10,left,7,guess_choice,560,j,0,0,26,452706,1204456
7,18,female,Belg,2,51,guess,neutral,10,left,7,guess_outcome,0,undefined,0,0,26,451149,1206013
7,18,female,Belg,2,51,ITC,neutral,10,left,7,ITC_start,3711,space,0,0,26,447436,1209726
7,18,female,Belg,2,51,ITC,neutral,10,left,7,ITC_choice,1264,j,0,0,26,446169,1210993
7,18,female,Belg,2,51,ITC,neutral,10,left,7,ITC_wait,0,undefined,0,0,26,446166,1210996
7,18,female,Belg,2,51,ITC,neutral,10,left,7,ITC_collect,269,k,0,0,26,445895,1211267
7,18,female,Belg,2,51,ITC,neutral,10,left,7,ITC_outcome,0,undefined,0,0,33,444882,1212280
7,18,female,Belg,2,52,guess,win,5,left,12,guess_start,361,space,0,0,33,444518,1212644
7,18,female,Belg,2,52,guess,win,5,left,12,guess_choice,689,j,0,0,33,443825,1213337
7,18,female,Belg,2,52,guess,win,5,left,12,guess_outcome,0,undefined,0,0,53,442256,1214906
7,18,female,Belg,2,52,ITC,win,5,left,12,ITC_start,101,space,0,0,53,442153,1215009
7,18,female,Belg,2,52,ITC,win,5,left,12,ITC_choice,906,j,0,0,53,441244,1215918
7,18,female,Belg,2,52,ITC,win,5,left,12,ITC_wait,0,undefined,0,0,53,441240,1215922
7,18,female,Belg,2,52,ITC,win,5,left,12,ITC_collect,368,k,0,0,53,440870,1216292
7,18,female,Belg,2,52,ITC,win,5,left,12,ITC_outcome,0,undefined,0,0,65,439862,1217300
7,18,female,Belg,2,53,guess,win,5,left,15,guess_start,406,space,0,0,65,439453,1217709
7,18,female,Belg,2,53,guess,win,5,left,15,guess_choice,391,f,0,0,65,439058,1218104
7,18,female,Belg,2,53,guess,win,5,left,15,guess_outcome,0,undefined,0,0,85,437496,1219666
7,18,female,Belg,2,53,ITC,win,5,left,15,ITC_start,408,space,0,0,85,437086,1220076
7,18,female,Belg,2,53,ITC,win,5,left,15,ITC_choice,1323,j,0,0,85,435760,1221402
7,18,female,Belg,2,53,ITC,win,5,left,15,ITC_wait,0,undefined,0,0,85,435755,1221407
7,18,female,Belg,2,53,ITC,win,5,left,15,ITC_collect,202,k,0,0,85,435550,1221612
7,18,female,Belg,2,53,ITC,win,5,left,15,ITC_outcome,0,undefined,0,0,100,434540,1222622
7,18,female,Belg,2,54,guess,neutral,5,left,11,guess_start,390,space,0,0,100,434148,1223014
7,18,female,Belg,2,54,guess,neutral,5,left,11,guess_choice,540,j,0,0,100,433604,1223558
7,18,female,Belg,2,54,guess,neutral,5,left,11,guess_outcome,0,undefined,0,0,100,432035,1225127
7,18,female,Belg,2,54,ITC,neutral,5,left,11,ITC_start,460,space,0,0,100,431573,1225589
7,18,female,Belg,2,54,ITC,neutral,5,left,11,ITC_choice,1424,j,0,0,100,430147,1227015
7,18,female,Belg,2,54,ITC,neutral,5,left,11,ITC_wait,0,undefined,0,0,100,430143,1227019
7,18,female,Belg,2,54,ITC,neutral,5,left,11,ITC_collect,798,k,0,0,100,429343,1227819
7,18,female,Belg,2,54,ITC,neutral,5,left,11,ITC_outcome,0,undefined,0,0,111,428329,1228833
7,18,female,Belg,2,55,guess,win,5,left,13,guess_start,589,space,0,0,111,427736,1229426
7,18,female,Belg,2,55,guess,win,5,left,13,guess_choice,544,j,0,0,111,427187,1229975
7,18,female,Belg,2,55,guess,win,5,left,13,guess_outcome,0,undefined,0,0,131,425631,1231531
7,18,female,Belg,2,55,ITC,win,5,left,13,ITC_start,113,space,0,0,131,425515,1231647
7,18,female,Belg,2,55,ITC,win,5,left,13,ITC_wait,0,undefined,0,0,131,424289,1232873
7,18,female,Belg,2,55,ITC,win,5,left,13,ITC_choice,1220,j,0,0,131,424293,1232869
7,18,female,Belg,2,55,ITC,win,5,left,13,ITC_collect,250,k,0,0,131,424038,1233124
7,18,female,Belg,2,55,ITC,win,5,left,13,ITC_outcome,0,undefined,0,0,144,423024,1234138
7,18,female,Belg,2,56,guess,win,5,right,11,guess_start,465,space,0,0,144,422556,1234606
7,18,female,Belg,2,56,guess,win,5,right,11,guess_choice,665,j,0,0,144,421887,1235275
7,18,female,Belg,2,56,guess,win,5,right,11,guess_outcome,0,undefined,0,0,164,420323,1236839
7,18,female,Belg,2,56,ITC,win,5,right,11,ITC_start,388,space,0,0,164,419932,1237230
7,18,female,Belg,2,56,ITC,win,5,right,11,ITC_choice,1077,f,0,0,164,418853,1238309
7,18,female,Belg,2,56,ITC,win,5,right,11,ITC_wait,0,undefined,0,0,164,418848,1238314
7,18,female,Belg,2,56,ITC,win,5,right,11,ITC_collect,492,k,0,0,164,418354,1238808
7,18,female,Belg,2,56,ITC,win,5,right,11,ITC_outcome,0,undefined,0,0,175,417348,1239814
7,18,female,Belg,2,57,guess,win,5,right,4,guess_start,458,space,0,0,175,416888,1240274
7,18,female,Belg,2,57,guess,win,5,right,4,guess_choice,701,j,0,0,175,416182,1240980
7,18,female,Belg,2,57,guess,win,5,right,4,guess_outcome,0,undefined,0,0,195,414619,1242543
7,18,female,Belg,2,57,ITC,win,5,right,4,ITC_start,619,space,0,0,195,413998,1243164
7,18,female,Belg,2,57,ITC,win,5,right,4,ITC_choice,1564,j,0,0,195,412432,1244730
7,18,female,Belg,2,57,ITC,win,5,right,4,ITC_wait,0,undefined,0,0,195,407428,1249734
7,18,female,Belg,2,57,ITC,win,5,right,4,ITC_collect,3349,k,0,0,195,404076,1253086
7,18,female,Belg,2,57,ITC,win,5,right,4,ITC_outcome,0,undefined,0,0,215,403067,1254095
7,18,female,Belg,2,58,guess,loss,5,left,10,guess_start,852,space,0,0,215,402212,1254950
7,18,female,Belg,2,58,guess,loss,5,left,10,guess_choice,915,f,0,0,215,401293,1255869
7,18,female,Belg,2,58,guess,loss,5,left,10,guess_outcome,0,undefined,0,0,200,399725,1257437
7,18,female,Belg,2,58,ITC,loss,5,left,10,ITC_start,505,space,0,0,200,399218,1257944
7,18,female,Belg,2,58,ITC,loss,5,left,10,ITC_choice,1565,j,0,0,200,397651,1259511
7,18,female,Belg,2,58,ITC,loss,5,left,10,ITC_wait,0,undefined,0,0,200,397647,1259515
7,18,female,Belg,2,58,ITC,loss,5,left,10,ITC_collect,218,k,0,0,200,397427,1259735
7,18,female,Belg,2,58,ITC,loss,5,left,10,ITC_outcome,0,undefined,0,0,210,396413,1260749
7,18,female,Belg,2,59,guess,win,5,right,3,guess_start,641,space,0,0,210,395770,1261392
7,18,female,Belg,2,59,guess,win,5,right,3,guess_choice,565,j,0,0,210,395200,1261962
7,18,female,Belg,2,59,guess,win,5,right,3,guess_outcome,0,undefined,0,0,230,393634,1263528
7,18,female,Belg,2,59,ITC,win,5,right,3,ITC_start,518,space,0,0,230,393113,1264049
7,18,female,Belg,2,59,ITC,win,5,right,3,ITC_choice,1272,f,0,0,230,391839,1265323
7,18,female,Belg,2,59,ITC,win,5,right,3,ITC_wait,0,undefined,0,0,230,391835,1265327
7,18,female,Belg,2,59,ITC,win,5,right,3,ITC_collect,1346,k,0,0,230,390487,1266675
7,18,female,Belg,2,59,ITC,win,5,right,3,ITC_outcome,0,undefined,0,0,233,389482,1267680
7,18,female,Belg,2,60,guess,loss,5,left,7,guess_start,405,space,0,0,233,389074,1268088
7,18,female,Belg,2,60,guess,loss,5,left,7,guess_choice,495,j,0,0,233,388575,1268587
7,18,female,Belg,2,60,guess,loss,5,left,7,guess_outcome,0,undefined,0,0,218,387005,1270157
7,18,female,Belg,2,60,ITC,loss,5,left,7,ITC_start,458,space,0,0,218,386544,1270618
7,18,female,Belg,2,60,ITC,loss,5,left,7,ITC_choice,1333,f,0,0,218,385209,1271953
7,18,female,Belg,2,60,ITC,loss,5,left,7,ITC_wait,0,undefined,0,0,218,380200,1276962
7,18,female,Belg,2,60,ITC,loss,5,left,7,ITC_collect,1689,k,0,0,218,378508,1278654
7,18,female,Belg,2,60,ITC,loss,5,left,7,ITC_outcome,0,undefined,0,0,238,377502,1279660
7,18,female,Belg,2,61,guess,win,5,left,8,guess_start,482,space,0,0,238,377018,1280144
7,18,female,Belg,2,61,guess,win,5,left,8,guess_choice,569,j,0,0,238,376444,1280718
7,18,female,Belg,2,61,guess,win,5,left,8,guess_outcome,0,undefined,0,0,258,374874,1282288
7,18,female,Belg,2,61,ITC,win,5,left,8,ITC_start,534,space,0,0,258,374338,1282824
7,18,female,Belg,2,61,ITC,win,5,left,8,ITC_choice,1040,j,0,0,258,373295,1283867
7,18,female,Belg,2,61,ITC,win,5,left,8,ITC_wait,0,undefined,0,0,258,373291,1283871
7,18,female,Belg,2,61,ITC,win,5,left,8,ITC_collect,233,k,0,0,258,373056,1284106
7,18,female,Belg,2,61,ITC,win,5,left,8,ITC_outcome,0,undefined,0,0,266,372040,1285122
7,18,female,Belg,2,62,guess,win,5,right,6,guess_start,390,space,0,0,266,371648,1285514
7,18,female,Belg,2,62,guess,win,5,right,6,guess_choice,758,j,0,0,266,370885,1286277
7,18,female,Belg,2,62,guess,win,5,right,6,guess_outcome,0,undefined,0,0,286,369329,1287833
7,18,female,Belg,2,62,ITC,win,5,right,6,ITC_start,648,space,0,0,286,368679,1288483
7,18,female,Belg,2,62,ITC,win,5,right,6,ITC_choice,1276,f,0,0,286,367400,1289762
7,18,female,Belg,2,62,ITC,win,5,right,6,ITC_wait,0,undefined,0,0,286,367396,1289766
7,18,female,Belg,2,62,ITC,win,5,right,6,ITC_collect,382,k,0,0,286,367012,1290150
7,18,female,Belg,2,62,ITC,win,5,right,6,ITC_outcome,0,undefined,0,0,292,365997,1291165
7,18,female,Belg,2,63,guess,loss,10,right,8,guess_start,494,space,0,0,292,365500,1291662
7,18,female,Belg,2,63,guess,loss,10,right,8,guess_choice,674,j,0,0,292,364821,1292341
7,18,female,Belg,2,63,guess,loss,10,right,8,guess_outcome,0,undefined,0,0,277,363263,1293899
7,18,female,Belg,2,63,ITC,loss,10,right,8,ITC_start,580,space,0,0,277,362681,1294481
7,18,female,Belg,2,63,ITC,loss,10,right,8,ITC_choice,1451,f,0,0,277,361228,1295934
7,18,female,Belg,2,63,ITC,loss,10,right,8,ITC_wait,0,undefined,0,0,277,361224,1295938
7,18,female,Belg,2,63,ITC,loss,10,right,8,ITC_collect,287,k,0,0,277,360935,1296227
7,18,female,Belg,2,63,ITC,loss,10,right,8,ITC_outcome,0,undefined,0,0,285,359918,1297244
7,18,female,Belg,2,64,guess,win,10,right,5,guess_start,527,space,0,0,285,359388,1297774
7,18,female,Belg,2,64,guess,win,10,right,5,guess_choice,564,f,0,0,285,358819,1298343
7,18,female,Belg,2,64,guess,win,10,right,5,guess_outcome,0,undefined,0,0,305,357260,1299902
7,18,female,Belg,2,64,ITC,win,10,right,5,ITC_start,805,space,0,0,305,356453,1300709
7,18,female,Belg,2,64,ITC,win,10,right,5,ITC_choice,1369,f,0,0,305,355082,1302080
7,18,female,Belg,2,64,ITC,win,10,right,5,ITC_wait,0,undefined,0,0,305,355078,1302084
7,18,female,Belg,2,64,ITC,win,10,right,5,ITC_collect,268,k,0,0,305,354807,1302355
7,18,female,Belg,2,64,ITC,win,10,right,5,ITC_outcome,0,undefined,0,0,310,353796,1303366
7,18,female,Belg,2,65,guess,neutral,10,left,6,guess_start,453,space,0,0,310,353341,1303821
7,18,female,Belg,2,65,guess,neutral,10,left,6,guess_choice,664,f,0,0,310,352672,1304490
7,18,female,Belg,2,65,guess,neutral,10,left,6,guess_outcome,0,undefined,0,0,310,351103,1306059
7,18,female,Belg,2,65,ITC,neutral,10,left,6,ITC_start,618,space,0,0,310,350481,1306681
7,18,female,Belg,2,65,ITC,neutral,10,left,6,ITC_choice,1012,j,0,0,310,349467,1307695
7,18,female,Belg,2,65,ITC,neutral,10,left,6,ITC_wait,0,undefined,0,0,310,349463,1307699
7,18,female,Belg,2,65,ITC,neutral,10,left,6,ITC_collect,212,k,0,0,310,349248,1307914
7,18,female,Belg,2,65,ITC,neutral,10,left,6,ITC_outcome,0,undefined,0,0,316,348233,1308929
7,18,female,Belg,2,66,guess,neutral,5,left,9,guess_start,458,space,0,0,316,347772,1309390
7,18,female,Belg,2,66,guess,neutral,5,left,9,guess_choice,530,f,0,0,316,347237,1309925
7,18,female,Belg,2,66,guess,neutral,5,left,9,guess_outcome,0,undefined,0,0,316,345677,1311485
7,18,female,Belg,2,66,ITC,neutral,5,left,9,ITC_start,699,space,0,0,316,344976,1312186
7,18,female,Belg,2,66,ITC,neutral,5,left,9,ITC_choice,2252,j,0,0,316,342722,1314440
7,18,female,Belg,2,66,ITC,neutral,5,left,9,ITC_wait,0,undefined,0,0,316,342718,1314444
7,18,female,Belg,2,66,ITC,neutral,5,left,9,ITC_collect,136,k,0,0,316,342578,1314584
7,18,female,Belg,2,66,ITC,neutral,5,left,9,ITC_outcome,0,undefined,0,0,325,341563,1315599
7,18,female,Belg,2,67,guess,neutral,5,left,8,guess_start,385,space,0,0,325,341175,1315987
7,18,female,Belg,2,67,guess,neutral,5,left,8,guess_choice,619,f,0,0,325,340552,1316610
7,18,female,Belg,2,67,guess,neutral,5,left,8,guess_outcome,0,undefined,0,0,325,338994,1318168
7,18,female,Belg,2,67,ITC,neutral,5,left,8,ITC_start,506,space,0,0,325,338486,1318676
7,18,female,Belg,2,67,ITC,neutral,5,left,8,ITC_choice,937,j,0,0,325,337546,1319616
7,18,female,Belg,2,67,ITC,neutral,5,left,8,ITC_wait,0,undefined,0,0,325,337542,1319620
7,18,female,Belg,2,67,ITC,neutral,5,left,8,ITC_collect,202,k,0,0,325,337338,1319824
7,18,female,Belg,2,67,ITC,neutral,5,left,8,ITC_outcome,0,undefined,0,0,333,336334,1320828
7,18,female,Belg,2,68,guess,win,10,right,8,guess_start,550,space,0,0,333,335782,1321380
7,18,female,Belg,2,68,guess,win,10,right,8,guess_choice,561,j,0,0,333,335217,1321945
7,18,female,Belg,2,68,guess,win,10,right,8,guess_outcome,0,undefined,0,0,353,333654,1323508
7,18,female,Belg,2,68,ITC,win,10,right,8,ITC_start,492,space,0,0,353,333160,1324002
7,18,female,Belg,2,68,ITC,win,10,right,8,ITC_choice,799,f,0,0,353,332359,1324803
7,18,female,Belg,2,68,ITC,win,10,right,8,ITC_wait,0,undefined,0,0,353,332355,1324807
7,18,female,Belg,2,68,ITC,win,10,right,8,ITC_collect,191,k,0,0,353,332162,1325000
7,18,female,Belg,2,68,ITC,win,10,right,8,ITC_outcome,0,undefined,0,0,361,331158,1326004
7,18,female,Belg,2,69,guess,loss,5,left,9,guess_start,373,space,0,0,361,330782,1326380
7,18,female,Belg,2,69,guess,loss,5,left,9,guess_choice,585,j,0,0,361,330192,1326970
7,18,female,Belg,2,69,guess,loss,5,left,9,guess_outcome,0,undefined,0,0,346,328626,1328536
7,18,female,Belg,2,69,ITC,loss,5,left,9,ITC_start,503,space,0,0,346,328121,1329041
7,18,female,Belg,2,69,ITC,loss,5,left,9,ITC_choice,1480,f,0,0,346,326639,1330523
7,18,female,Belg,2,69,ITC,loss,5,left,9,ITC_wait,0,undefined,0,0,346,321632,1335530
7,18,female,Belg,2,69,ITC,loss,5,left,9,ITC_collect,1072,k,0,0,346,320556,1336606
7,18,female,Belg,2,69,ITC,loss,5,left,9,ITC_outcome,0,undefined,0,0,366,319540,1337622
7,18,female,Belg,2,70,guess,neutral,5,right,14,guess_start,796,space,0,0,366,318741,1338421
7,18,female,Belg,2,70,guess,neutral,5,right,14,guess_choice,565,j,0,0,366,318172,1338990
7,18,female,Belg,2,70,guess,neutral,5,right,14,guess_outcome,0,undefined,0,0,366,316615,1340547
7,18,female,Belg,2,70,ITC,neutral,5,right,14,ITC_start,2691,space,0,0,366,313922,1343240
7,18,female,Belg,2,70,ITC,neutral,5,right,14,ITC_choice,1924,f,0,0,366,311996,1345166
7,18,female,Belg,2,70,ITC,neutral,5,right,14,ITC_wait,0,undefined,0,0,366,311992,1345170
7,18,female,Belg,2,70,ITC,neutral,5,right,14,ITC_collect,268,k,0,0,366,311721,1345441
7,18,female,Belg,2,70,ITC,neutral,5,right,14,ITC_outcome,0,undefined,0,0,380,310702,1346460
7,18,female,Belg,2,71,guess,loss,5,right,3,guess_start,492,space,0,0,380,310208,1346954
7,18,female,Belg,2,71,guess,loss,5,right,3,guess_choice,818,j,0,0,380,309385,1347777
7,18,female,Belg,2,71,guess,loss,5,right,3,guess_outcome,0,undefined,0,0,365,307823,1349339
7,18,female,Belg,2,71,ITC,loss,5,right,3,ITC_start,426,space,0,0,365,307395,1349767
7,18,female,Belg,2,71,ITC,loss,5,right,3,ITC_choice,842,j,0,0,365,306551,1350611
7,18,female,Belg,2,71,ITC,loss,5,right,3,ITC_wait,0,undefined,0,0,365,301539,1355623
7,18,female,Belg,2,71,ITC,loss,5,right,3,ITC_collect,9287,k,0,0,365,292250,1364912
7,18,female,Belg,2,71,ITC,loss,5,right,3,ITC_outcome,0,undefined,0,0,385,291236,1365926
7,18,female,Belg,2,72,guess,neutral,10,left,8,guess_start,511,space,0,0,385,290723,1366439
7,18,female,Belg,2,72,guess,neutral,10,left,8,guess_choice,482,j,0,0,385,290234,1366928
7,18,female,Belg,2,72,guess,neutral,10,left,8,guess_outcome,0,undefined,0,0,385,288666,1368496
7,18,female,Belg,2,72,ITC,neutral,10,left,8,ITC_start,4344,space,0,0,385,284320,1372842
7,18,female,Belg,2,72,ITC,neutral,10,left,8,ITC_choice,1229,j,0,0,385,283088,1374074
7,18,female,Belg,2,72,ITC,neutral,10,left,8,ITC_wait,0,undefined,0,0,385,283084,1374078
7,18,female,Belg,2,72,ITC,neutral,10,left,8,ITC_collect,153,k,0,0,385,282929,1374233
7,18,female,Belg,2,72,ITC,neutral,10,left,8,ITC_outcome,0,undefined,0,0,393,281917,1375245
7,18,female,Belg,2,73,guess,loss,5,left,15,guess_start,534,space,0,0,393,281380,1375782
7,18,female,Belg,2,73,guess,loss,5,left,15,guess_choice,517,j,0,0,393,280858,1376304
7,18,female,Belg,2,73,guess,loss,5,left,15,guess_outcome,0,undefined,0,0,378,279300,1377862
7,18,female,Belg,2,73,ITC,loss,5,left,15,ITC_start,336,space,0,0,378,278962,1378200
7,18,female,Belg,2,73,ITC,loss,5,left,15,ITC_choice,543,j,0,0,378,278417,1378745
7,18,female,Belg,2,73,ITC,loss,5,left,15,ITC_wait,0,undefined,0,0,378,278413,1378749
7,18,female,Belg,2,73,ITC,loss,5,left,15,ITC_collect,188,k,0,0,378,278223,1378939
7,18,female,Belg,2,73,ITC,loss,5,left,15,ITC_outcome,0,undefined,0,0,393,277211,1379951
7,18,female,Belg,2,74,guess,loss,5,left,2,guess_start,503,space,0,0,393,276706,1380456
7,18,female,Belg,2,74,guess,loss,5,left,2,guess_choice,669,f,0,0,393,276033,1381129
7,18,female,Belg,2,74,guess,loss,5,left,2,guess_outcome,0,undefined,0,0,378,274472,1382690
7,18,female,Belg,2,74,ITC,loss,5,left,2,ITC_start,673,space,0,0,378,273797,1383365
7,18,female,Belg,2,74,ITC,loss,5,left,2,ITC_choice,1296,f,0,0,378,272499,1384663
7,18,female,Belg,2,74,ITC,loss,5,left,2,ITC_wait,0,undefined,0,0,378,267493,1389669
7,18,female,Belg,2,74,ITC,loss,5,left,2,ITC_collect,7393,k,0,0,378,260097,1397065
7,18,female,Belg,2,74,ITC,loss,5,left,2,ITC_outcome,0,undefined,0,0,398,259081,1398081
7,18,female,Belg,2,75,guess,neutral,10,right,6,guess_start,2897,space,0,0,398,256182,1400980
7,18,female,Belg,2,75,guess,neutral,10,right,6,guess_choice,655,j,0,0,398,255522,1401640
7,18,female,Belg,2,75,guess,neutral,10,right,6,guess_outcome,0,undefined,0,0,398,253966,1403196
7,18,female,Belg,2,75,ITC,neutral,10,right,6,ITC_start,1021,space,0,0,398,252943,1404219
7,18,female,Belg,2,75,ITC,neutral,10,right,6,ITC_choice,1780,f,0,0,398,251161,1406001
7,18,female,Belg,2,75,ITC,neutral,10,right,6,ITC_wait,0,undefined,0,0,398,251157,1406005
7,18,female,Belg,2,75,ITC,neutral,10,right,6,ITC_collect,349,k,0,0,398,250806,1406356
7,18,female,Belg,2,75,ITC,neutral,10,right,6,ITC_outcome,0,undefined,0,0,404,249797,1407365
7,18,female,Belg,2,76,guess,win,5,left,11,guess_start,811,space,0,0,404,248984,1408178
7,18,female,Belg,2,76,guess,win,5,left,11,guess_choice,528,j,0,0,404,248450,1408712
7,18,female,Belg,2,76,guess,win,5,left,11,guess_outcome,0,undefined,0,0,424,246894,1410268
7,18,female,Belg,2,76,ITC,win,5,left,11,ITC_start,2892,space,0,0,424,244000,1413162
7,18,female,Belg,2,76,ITC,win,5,left,11,ITC_choice,1479,f,0,0,424,242518,1414644
7,18,female,Belg,2,76,ITC,win,5,left,11,ITC_wait,0,undefined,0,0,424,237514,1419648
7,18,female,Belg,2,76,ITC,win,5,left,11,ITC_collect,21801,k,0,0,424,215710,1441452
7,18,female,Belg,2,76,ITC,win,5,left,11,ITC_outcome,0,undefined,0,0,444,214696,1442466
7,18,female,Belg,2,77,guess,loss,5,right,1,guess_start,13907,space,0,0,444,200785,1456377
7,18,female,Belg,2,77,guess,loss,5,right,1,guess_choice,1023,j,0,0,444,199757,1457405
7,18,female,Belg,2,77,guess,loss,5,right,1,guess_outcome,0,undefined,0,0,429,198193,1458969
7,18,female,Belg,2,77,ITC,loss,5,right,1,ITC_start,1695,space,0,0,429,196495,1460667
7,18,female,Belg,2,77,ITC,loss,5,right,1,ITC_choice,1750,j,0,0,429,194744,1462418
7,18,female,Belg,2,77,ITC,loss,5,right,1,ITC_wait,0,undefined,0,0,429,189738,1467424
7,18,female,Belg,2,77,ITC,loss,5,right,1,ITC_collect,811,k,0,0,429,188925,1468237
7,18,female,Belg,2,77,ITC,loss,5,right,1,ITC_outcome,0,undefined,0,0,449,187912,1469250
7,18,female,Belg,2,78,guess,loss,10,left,5,guess_start,542,space,0,0,449,187369,1469793
7,18,female,Belg,2,78,guess,loss,10,left,5,guess_choice,599,j,0,0,449,186764,1470398
7,18,female,Belg,2,78,guess,loss,10,left,5,guess_outcome,0,undefined,0,0,434,185196,1471966
7,18,female,Belg,2,78,ITC,loss,10,left,5,ITC_start,481,space,0,0,434,184714,1472448
7,18,female,Belg,2,78,ITC,loss,10,left,5,ITC_choice,1020,j,0,0,434,183691,1473471
7,18,female,Belg,2,78,ITC,loss,10,left,5,ITC_wait,0,undefined,0,0,434,183688,1473474
7,18,female,Belg,2,78,ITC,loss,10,left,5,ITC_collect,174,k,0,0,434,183512,1473650
7,18,female,Belg,2,78,ITC,loss,10,left,5,ITC_outcome,0,undefined,0,0,439,182503,1474659
7,18,female,Belg,2,79,guess,loss,5,right,16,guess_start,305,space,0,0,439,182195,1474967
7,18,female,Belg,2,79,guess,loss,5,right,16,guess_choice,500,j,0,0,439,181690,1475472
7,18,female,Belg,2,79,guess,loss,5,right,16,guess_outcome,0,undefined,0,0,424,180128,1477034
7,18,female,Belg,2,79,ITC,loss,5,right,16,ITC_start,639,space,0,0,424,179485,1477677
7,18,female,Belg,2,79,ITC,loss,5,right,16,ITC_choice,1811,f,0,0,424,177672,1479490
7,18,female,Belg,2,79,ITC,loss,5,right,16,ITC_wait,0,undefined,0,0,424,177669,1479493
7,18,female,Belg,2,79,ITC,loss,5,right,16,ITC_collect,202,k,0,0,424,177464,1479698
7,18,female,Belg,2,79,ITC,loss,5,right,16,ITC_outcome,0,undefined,0,0,440,176452,1480710
7,18,female,Belg,2,80,guess,neutral,5,left,1,guess_start,327,space,0,0,440,176121,1481041
7,18,female,Belg,2,80,guess,neutral,5,left,1,guess_choice,514,j,0,0,440,175602,1481560
7,18,female,Belg,2,80,guess,neutral,5,left,1,guess_outcome,0,undefined,0,0,440,174040,1483122
7,18,female,Belg,2,80,ITC,neutral,5,left,1,ITC_start,457,space,0,0,440,173581,1483581
7,18,female,Belg,2,80,ITC,neutral,5,left,1,ITC_choice,815,f,0,0,440,172763,1484399
7,18,female,Belg,2,80,ITC,neutral,5,left,1,ITC_wait,0,undefined,0,0,440,167754,1489408
7,18,female,Belg,2,80,ITC,neutral,5,left,1,ITC_collect,563,k,0,0,440,167188,1489974
7,18,female,Belg,2,80,ITC,neutral,5,left,1,ITC_outcome,0,undefined,0,0,460,166178,1490984
7,18,female,Belg,2,81,guess,win,10,right,7,guess_start,697,space,0,0,460,165478,1491684
7,18,female,Belg,2,81,guess,win,10,right,7,guess_choice,504,j,0,0,460,164969,1492193
7,18,female,Belg,2,81,guess,win,10,right,7,guess_outcome,0,undefined,0,0,480,163410,1493752
7,18,female,Belg,2,81,ITC,win,10,right,7,ITC_start,554,space,0,0,480,162853,1494309
7,18,female,Belg,2,81,ITC,win,10,right,7,ITC_choice,1169,f,0,0,480,161682,1495480
7,18,female,Belg,2,81,ITC,win,10,right,7,ITC_wait,0,undefined,0,0,480,161678,1495484
7,18,female,Belg,2,81,ITC,win,10,right,7,ITC_collect,154,k,0,0,480,161521,1495641
7,18,female,Belg,2,81,ITC,win,10,right,7,ITC_outcome,0,undefined,0,0,487,160501,1496661
7,18,female,Belg,2,82,guess,loss,5,left,8,guess_start,519,space,0,0,487,159980,1497182
7,18,female,Belg,2,82,guess,loss,5,left,8,guess_choice,609,j,0,0,487,159366,1497796
7,18,female,Belg,2,82,guess,loss,5,left,8,guess_outcome,0,undefined,0,0,472,157801,1499361
7,18,female,Belg,2,82,ITC,loss,5,left,8,ITC_start,588,space,0,0,472,157210,1499952
7,18,female,Belg,2,82,ITC,loss,5,left,8,ITC_choice,1317,j,0,0,472,155891,1501271
7,18,female,Belg,2,82,ITC,loss,5,left,8,ITC_wait,0,undefined,0,0,472,155887,1501275
7,18,female,Belg,2,82,ITC,loss,5,left,8,ITC_collect,137,k,0,0,472,155748,1501414
7,18,female,Belg,2,82,ITC,loss,5,left,8,ITC_outcome,0,undefined,0,0,480,154735,1502427
7,18,female,Belg,2,83,guess,neutral,10,right,7,guess_start,448,space,0,0,480,154285,1502877
7,18,female,Belg,2,83,guess,neutral,10,right,7,guess_choice,625,f,0,0,480,153655,1503507
7,18,female,Belg,2,83,guess,neutral,10,right,7,guess_outcome,0,undefined,0,0,480,152092,1505070
7,18,female,Belg,2,83,ITC,neutral,10,right,7,ITC_start,518,space,0,0,480,151571,1505591
7,18,female,Belg,2,83,ITC,neutral,10,right,7,ITC_choice,732,f,0,0,480,150837,1506325
7,18,female,Belg,2,83,ITC,neutral,10,right,7,ITC_wait,0,undefined,0,0,480,150833,1506329
7,18,female,Belg,2,83,ITC,neutral,10,right,7,ITC_collect,248,k,0,0,480,150582,1506580
7,18,female,Belg,2,83,ITC,neutral,10,right,7,ITC_outcome,0,undefined,0,0,487,149565,1507597
7,18,female,Belg,2,84,guess,neutral,10,left,5,guess_start,377,space,0,0,487,149185,1507977
7,18,female,Belg,2,84,guess,neutral,10,left,5,guess_choice,544,f,0,0,487,148635,1508527
7,18,female,Belg,2,84,guess,neutral,10,left,5,guess_outcome,0,undefined,0,0,487,147074,1510088
7,18,female,Belg,2,84,ITC,neutral,10,left,5,ITC_start,520,space,0,0,487,146551,1510611
7,18,female,Belg,2,84,ITC,neutral,10,left,5,ITC_choice,949,j,0,0,487,145600,1511562
7,18,female,Belg,2,84,ITC,neutral,10,left,5,ITC_wait,0,undefined,0,0,487,145595,1511567
7,18,female,Belg,2,84,ITC,neutral,10,left,5,ITC_collect,181,k,0,0,487,145411,1511751
7,18,female,Belg,2,84,ITC,neutral,10,left,5,ITC_outcome,0,undefined,0,0,492,144407,1512755
7,18,female,Belg,2,85,guess,neutral,5,left,13,guess_start,333,space,0,0,492,144071,1513091
7,18,female,Belg,2,85,guess,neutral,5,left,13,guess_choice,560,f,0,0,492,143506,1513656
7,18,female,Belg,2,85,guess,neutral,5,left,13,guess_outcome,0,undefined,0,0,492,141938,1515224
7,18,female,Belg,2,85,ITC,neutral,5,left,13,ITC_start,484,space,0,0,492,141452,1515710
7,18,female,Belg,2,85,ITC,neutral,5,left,13,ITC_choice,732,j,0,0,492,140718,1516444
7,18,female,Belg,2,85,ITC,neutral,5,left,13,ITC_wait,0,undefined,0,0,492,140714,1516448
7,18,female,Belg,2,85,ITC,neutral,5,left,13,ITC_collect,135,k,0,0,492,140577,1516585
7,18,female,Belg,2,85,ITC,neutral,5,left,13,ITC_outcome,0,undefined,0,0,505,139561,1517601
7,18,female,Belg,2,86,guess,win,10,right,3,guess_start,438,space,0,0,505,139121,1518041
7,18,female,Belg,2,86,guess,win,10,right,3,guess_choice,605,j,0,0,505,138511,1518651
7,18,female,Belg,2,86,guess,win,10,right,3,guess_outcome,0,undefined,0,0,525,136942,1520220
7,18,female,Belg,2,86,ITC,win,10,right,3,ITC_start,434,space,0,0,525,136506,1520656
7,18,female,Belg,2,86,ITC,win,10,right,3,ITC_choice,1316,f,0,0,525,135188,1521974
7,18,female,Belg,2,86,ITC,win,10,right,3,ITC_wait,0,undefined,0,0,525,135184,1521978
7,18,female,Belg,2,86,ITC,win,10,right,3,ITC_collect,158,k,0,0,525,135024,1522138
7,18,female,Belg,2,86,ITC,win,10,right,3,ITC_outcome,0,undefined,0,0,528,134016,1523146
7,18,female,Belg,2,87,guess,win,5,right,10,guess_start,312,space,0,0,528,133700,1523462
7,18,female,Belg,2,87,guess,win,5,right,10,guess_choice,528,f,0,0,528,133168,1523994
7,18,female,Belg,2,87,guess,win,5,right,10,guess_outcome,0,undefined,0,0,548,131601,1525561
7,18,female,Belg,2,87,ITC,win,5,right,10,ITC_start,433,space,0,0,548,131167,1525995
7,18,female,Belg,2,87,ITC,win,5,right,10,ITC_choice,612,f,0,0,548,130552,1526610
7,18,female,Belg,2,87,ITC,win,5,right,10,ITC_wait,0,undefined,0,0,548,130549,1526613
7,18,female,Belg,2,87,ITC,win,5,right,10,ITC_collect,918,k,0,0,548,129629,1527533
7,18,female,Belg,2,87,ITC,win,5,right,10,ITC_outcome,0,undefined,0,0,558,128619,1528543
7,18,female,Belg,2,88,guess,win,5,left,16,guess_start,384,space,0,0,558,128232,1528930
7,18,female,Belg,2,88,guess,win,5,left,16,guess_choice,560,f,0,0,558,127668,1529494
7,18,female,Belg,2,88,guess,win,5,left,16,guess_outcome,0,undefined,0,0,578,126109,1531053
7,18,female,Belg,2,88,ITC,win,5,left,16,ITC_start,494,space,0,0,578,125613,1531549
7,18,female,Belg,2,88,ITC,win,5,left,16,ITC_choice,992,j,0,0,578,124618,1532544
7,18,female,Belg,2,88,ITC,win,5,left,16,ITC_wait,0,undefined,0,0,578,124614,1532548
7,18,female,Belg,2,88,ITC,win,5,left,16,ITC_collect,128,k,0,0,578,124484,1532678
7,18,female,Belg,2,88,ITC,win,5,left,16,ITC_outcome,0,undefined,0,0,594,123478,1533684
7,18,female,Belg,2,89,guess,neutral,10,right,1,guess_start,433,space,0,0,594,123042,1534120
7,18,female,Belg,2,89,guess,neutral,10,right,1,guess_choice,489,f,0,0,594,122548,1534614
7,18,female,Belg,2,89,guess,neutral,10,right,1,guess_outcome,0,undefined,0,0,594,120981,1536181
7,18,female,Belg,2,89,ITC,neutral,10,right,1,ITC_start,1001,space,0,0,594,119978,1537184
7,18,female,Belg,2,89,ITC,neutral,10,right,1,ITC_wait,0,undefined,0,0,594,118248,1538914
7,18,female,Belg,2,89,ITC,neutral,10,right,1,ITC_choice,1725,f,0,0,594,118251,1538911
7,18,female,Belg,2,89,ITC,neutral,10,right,1,ITC_collect,214,k,0,0,594,118031,1539131
7,18,female,Belg,2,89,ITC,neutral,10,right,1,ITC_outcome,0,undefined,0,0,595,117016,1540146
7,18,female,Belg,2,90,guess,win,10,right,8,guess_start,433,space,0,0,595,116580,1540582
7,18,female,Belg,2,90,guess,win,10,right,8,guess_choice,496,j,0,0,595,116081,1541081
7,18,female,Belg,2,90,guess,win,10,right,8,guess_outcome,0,undefined,0,0,615,114526,1542636
7,18,female,Belg,2,90,ITC,win,10,right,8,ITC_start,569,space,0,0,615,113954,1543208
7,18,female,Belg,2,90,ITC,win,10,right,8,ITC_choice,775,f,0,0,615,113177,1543985
7,18,female,Belg,2,90,ITC,win,10,right,8,ITC_wait,0,undefined,0,0,615,113173,1543989
7,18,female,Belg,2,90,ITC,win,10,right,8,ITC_collect,193,k,0,0,615,112978,1544184
7,18,female,Belg,2,90,ITC,win,10,right,8,ITC_outcome,0,undefined,0,0,623,111965,1545197
7,18,female,Belg,2,91,guess,loss,10,right,7,guess_start,646,space,0,0,623,111316,1545846
7,18,female,Belg,2,91,guess,loss,10,right,7,guess_choice,500,f,0,0,623,110812,1546350
7,18,female,Belg,2,91,guess,loss,10,right,7,guess_outcome,0,undefined,0,0,608,109246,1547916
7,18,female,Belg,2,91,ITC,loss,10,right,7,ITC_start,490,space,0,0,608,108755,1548407
7,18,female,Belg,2,91,ITC,loss,10,right,7,ITC_choice,665,f,0,0,608,108088,1549074
7,18,female,Belg,2,91,ITC,loss,10,right,7,ITC_wait,0,undefined,0,0,608,108084,1549078
7,18,female,Belg,2,91,ITC,loss,10,right,7,ITC_collect,184,k,0,0,608,107898,1549264
7,18,female,Belg,2,91,ITC,loss,10,right,7,ITC_outcome,0,undefined,0,0,615,106892,1550270
7,18,female,Belg,2,92,guess,win,10,left,4,guess_start,379,space,0,0,615,106510,1550652
7,18,female,Belg,2,92,guess,win,10,left,4,guess_choice,469,j,0,0,615,106036,1551126
7,18,female,Belg,2,92,guess,win,10,left,4,guess_outcome,0,undefined,0,0,635,104476,1552686
7,18,female,Belg,2,92,ITC,win,10,left,4,ITC_start,691,space,0,0,635,103784,1553378
7,18,female,Belg,2,92,ITC,win,10,left,4,ITC_choice,570,j,0,0,635,103212,1553950
7,18,female,Belg,2,92,ITC,win,10,left,4,ITC_wait,0,undefined,0,0,635,103208,1553954
7,18,female,Belg,2,92,ITC,win,10,left,4,ITC_collect,133,k,0,0,635,103072,1554090
7,18,female,Belg,2,92,ITC,win,10,left,4,ITC_outcome,0,undefined,0,0,639,102060,1555102
7,18,female,Belg,2,93,guess,win,10,left,5,guess_start,378,space,0,0,639,101680,1555482
7,18,female,Belg,2,93,guess,win,10,left,5,guess_choice,1233,j,0,0,639,100443,1556719
7,18,female,Belg,2,93,guess,win,10,left,5,guess_outcome,0,undefined,0,0,659,98883,1558279
7,18,female,Belg,2,93,ITC,win,10,left,5,ITC_start,429,space,0,0,659,98451,1558711
7,18,female,Belg,2,93,ITC,win,10,left,5,ITC_choice,632,j,0,0,659,97817,1559345
7,18,female,Belg,2,93,ITC,win,10,left,5,ITC_wait,0,undefined,0,0,659,97813,1559349
7,18,female,Belg,2,93,ITC,win,10,left,5,ITC_collect,173,k,0,0,659,97638,1559524
7,18,female,Belg,2,93,ITC,win,10,left,5,ITC_outcome,0,undefined,0,0,664,96624,1560538
7,18,female,Belg,2,94,guess,win,5,right,13,guess_start,560,space,0,0,664,96060,1561102
7,18,female,Belg,2,94,guess,win,5,right,13,guess_choice,474,j,0,0,664,95581,1561581
7,18,female,Belg,2,94,guess,win,5,right,13,guess_outcome,0,undefined,0,0,684,94021,1563141
7,18,female,Belg,2,94,ITC,win,5,right,13,ITC_start,460,space,0,0,684,93559,1563603
7,18,female,Belg,2,94,ITC,win,5,right,13,ITC_choice,1678,f,0,0,684,91879,1565283
7,18,female,Belg,2,94,ITC,win,5,right,13,ITC_wait,0,undefined,0,0,684,91874,1565288
7,18,female,Belg,2,94,ITC,win,5,right,13,ITC_collect,217,k,0,0,684,91655,1565507
7,18,female,Belg,2,94,ITC,win,5,right,13,ITC_outcome,0,undefined,0,0,697,90638,1566524
7,18,female,Belg,2,95,guess,neutral,5,left,10,guess_start,398,space,0,0,697,90237,1566925
7,18,female,Belg,2,95,guess,neutral,5,left,10,guess_choice,664,f,0,0,697,89568,1567594
7,18,female,Belg,2,95,guess,neutral,5,left,10,guess_outcome,0,undefined,0,0,697,88003,1569159
7,18,female,Belg,2,95,ITC,neutral,5,left,10,ITC_start,858,space,0,0,697,87143,1570019
7,18,female,Belg,2,95,ITC,neutral,5,left,10,ITC_choice,756,j,0,0,697,86385,1570777
7,18,female,Belg,2,95,ITC,neutral,5,left,10,ITC_wait,0,undefined,0,0,697,86380,1570782
7,18,female,Belg,2,95,ITC,neutral,5,left,10,ITC_collect,177,k,0,0,697,86200,1570962
7,18,female,Belg,2,95,ITC,neutral,5,left,10,ITC_outcome,0,undefined,0,0,707,85183,1571979
7,18,female,Belg,2,96,guess,loss,10,left,1,guess_start,561,space,0,0,707,84618,1572544
7,18,female,Belg,2,96,guess,loss,10,left,1,guess_choice,460,f,0,0,707,84153,1573009
7,18,female,Belg,2,96,guess,loss,10,left,1,guess_outcome,0,undefined,0,0,692,82585,1574577
7,18,female,Belg,2,96,ITC,loss,10,left,1,ITC_start,101,space,0,0,692,82482,1574680
7,18,female,Belg,2,96,ITC,loss,10,left,1,ITC_choice,1488,j,0,0,692,80991,1576171
7,18,female,Belg,2,96,ITC,loss,10,left,1,ITC_wait,0,undefined,0,0,692,80986,1576176
7,18,female,Belg,2,96,ITC,loss,10,left,1,ITC_collect,165,k,0,0,692,80820,1576342
7,18,female,Belg,2,96,ITC,loss,10,left,1,ITC_outcome,0,undefined,0,0,693,79814,1577348
7,18,female,Belg,2,97,guess,neutral,5,right,3,guess_start,567,space,0,0,693,79244,1577918
7,18,female,Belg,2,97,guess,neutral,5,right,3,guess_choice,684,f,0,0,693,78555,1578607
7,18,female,Belg,2,97,guess,neutral,5,right,3,guess_outcome,0,undefined,0,0,693,76991,1580171
7,18,female,Belg,2,97,ITC,neutral,5,right,3,ITC_start,575,space,0,0,693,76414,1580748
7,18,female,Belg,2,97,ITC,neutral,5,right,3,ITC_choice,981,f,0,0,693,75431,1581731
7,18,female,Belg,2,97,ITC,neutral,5,right,3,ITC_wait,0,undefined,0,0,693,75427,1581735
7,18,female,Belg,2,97,ITC,neutral,5,right,3,ITC_collect,198,k,0,0,693,75227,1581935
7,18,female,Belg,2,97,ITC,neutral,5,right,3,ITC_outcome,0,undefined,0,0,696,74217,1582945
7,18,female,Belg,2,98,guess,loss,5,left,5,guess_start,371,space,0,0,696,73844,1583318
7,18,female,Belg,2,98,guess,loss,5,left,5,guess_choice,609,j,0,0,696,73230,1583932
7,18,female,Belg,2,98,guess,loss,5,left,5,guess_outcome,0,undefined,0,0,681,71658,1585504
7,18,female,Belg,2,98,ITC,loss,5,left,5,ITC_start,561,space,0,0,681,71094,1586068
7,18,female,Belg,2,98,ITC,loss,5,left,5,ITC_choice,1361,f,0,0,681,69731,1587431
7,18,female,Belg,2,98,ITC,loss,5,left,5,ITC_wait,0,undefined,0,0,681,64719,1592443
7,18,female,Belg,2,98,ITC,loss,5,left,5,ITC_collect,1078,k,0,0,681,63638,1593524
7,18,female,Belg,2,98,ITC,loss,5,left,5,ITC_outcome,0,undefined,0,0,701,62633,1594529
7,18,female,Belg,2,99,guess,neutral,5,right,7,guess_start,559,space,0,0,701,62071,1595091
7,18,female,Belg,2,99,guess,neutral,5,right,7,guess_choice,585,j,0,0,701,61481,1595681
7,18,female,Belg,2,99,guess,neutral,5,right,7,guess_outcome,0,undefined,0,0,701,59914,1597248
7,18,female,Belg,2,99,ITC,neutral,5,right,7,ITC_start,391,space,0,0,701,59521,1597641
7,18,female,Belg,2,99,ITC,neutral,5,right,7,ITC_choice,821,f,0,0,701,58697,1598465
7,18,female,Belg,2,99,ITC,neutral,5,right,7,ITC_wait,0,undefined,0,0,701,58694,1598468
7,18,female,Belg,2,99,ITC,neutral,5,right,7,ITC_collect,229,k,0,0,701,58463,1598699
7,18,female,Belg,2,99,ITC,neutral,5,right,7,ITC_outcome,0,undefined,0,0,708,57452,1599710
7,18,female,Belg,2,100,guess,loss,5,right,4,guess_start,558,space,0,0,708,56891,1600271
7,18,female,Belg,2,100,guess,loss,5,right,4,guess_choice,430,f,0,0,708,56457,1600705
7,18,female,Belg,2,100,guess,loss,5,right,4,guess_outcome,0,undefined,0,0,693,54895,1602267
7,18,female,Belg,2,100,ITC,loss,5,right,4,ITC_start,58,space,0,0,693,54835,1602327
7,18,female,Belg,2,100,ITC,loss,5,right,4,ITC_wait,0,undefined,0,0,693,53953,1603209
7,18,female,Belg,2,100,ITC,loss,5,right,4,ITC_choice,875,f,0,0,693,53957,1603205
7,18,female,Belg,2,100,ITC,loss,5,right,4,ITC_collect,247,k,0,0,693,53703,1603459
7,18,female,Belg,2,100,ITC,loss,5,right,4,ITC_outcome,0,undefined,0,0,697,52684,1604478
7,18,female,Belg,2,101,guess,win,5,left,12,guess_start,431,space,0,0,697,52250,1604912
7,18,female,Belg,2,101,guess,win,5,left,12,guess_choice,714,j,0,0,697,51532,1605630
7,18,female,Belg,2,101,guess,win,5,left,12,guess_outcome,0,undefined,0,0,717,49971,1607191
7,18,female,Belg,2,101,ITC,win,5,left,12,ITC_start,435,space,0,0,717,49534,1607628
7,18,female,Belg,2,101,ITC,win,5,left,12,ITC_choice,1369,j,0,0,717,48163,1608999
7,18,female,Belg,2,101,ITC,win,5,left,12,ITC_wait,0,undefined,0,0,717,48159,1609003
7,18,female,Belg,2,101,ITC,win,5,left,12,ITC_collect,184,k,0,0,717,47973,1609189
7,18,female,Belg,2,101,ITC,win,5,left,12,ITC_outcome,0,undefined,0,0,729,46958,1610204
7,18,female,Belg,2,102,guess,neutral,5,right,9,guess_start,414,space,0,0,729,46541,1610621
7,18,female,Belg,2,102,guess,neutral,5,right,9,guess_choice,882,j,0,0,729,45653,1611509
7,18,female,Belg,2,102,guess,neutral,5,right,9,guess_outcome,0,undefined,0,0,729,44087,1613075
7,18,female,Belg,2,102,ITC,neutral,5,right,9,ITC_start,432,space,0,0,729,43652,1613510
7,18,female,Belg,2,102,ITC,neutral,5,right,9,ITC_wait,0,undefined,0,0,729,42744,1614418
7,18,female,Belg,2,102,ITC,neutral,5,right,9,ITC_choice,901,f,0,0,729,42748,1614414
7,18,female,Belg,2,102,ITC,neutral,5,right,9,ITC_collect,233,k,0,0,729,42509,1614653
7,18,female,Belg,2,102,ITC,neutral,5,right,9,ITC_outcome,0,undefined,0,0,738,41496,1615666
7,18,female,Belg,2,103,guess,loss,5,right,9,guess_start,516,space,0,0,738,40977,1616185
7,18,female,Belg,2,103,guess,loss,5,right,9,guess_choice,639,j,0,0,738,40333,1616829
7,18,female,Belg,2,103,guess,loss,5,right,9,guess_outcome,0,undefined,0,0,723,38764,1618398
7,18,female,Belg,2,103,ITC,loss,5,right,9,ITC_start,599,space,0,0,723,38163,1618999
7,18,female,Belg,2,103,ITC,loss,5,right,9,ITC_choice,756,j,0,0,723,37404,1619758
7,18,female,Belg,2,103,ITC,loss,5,right,9,ITC_wait,0,undefined,0,0,723,32394,1624768
7,18,female,Belg,2,103,ITC,loss,5,right,9,ITC_collect,8842,k,0,0,723,23549,1633613
7,18,female,Belg,2,103,ITC,loss,5,right,9,ITC_outcome,0,undefined,0,0,743,22541,1634621
7,18,female,Belg,2,104,guess,neutral,5,left,5,guess_start,2979,space,0,0,743,19559,1637603
7,18,female,Belg,2,104,guess,neutral,5,left,5,guess_choice,559,j,0,0,743,18995,1638167
7,18,female,Belg,2,104,guess,neutral,5,left,5,guess_outcome,0,undefined,0,0,743,17435,1639727
7,18,female,Belg,2,104,ITC,neutral,5,left,5,ITC_start,388,space,0,0,743,17044,1640118
7,18,female,Belg,2,104,ITC,neutral,5,left,5,ITC_choice,1460,j,0,0,743,15582,1641580
7,18,female,Belg,2,104,ITC,neutral,5,left,5,ITC_wait,0,undefined,0,0,743,15576,1641586
7,18,female,Belg,2,104,ITC,neutral,5,left,5,ITC_collect,127,k,0,0,743,15447,1641715
7,18,female,Belg,2,104,ITC,neutral,5,left,5,ITC_outcome,0,undefined,0,0,748,14443,1642719
7,18,female,Belg,2,105,guess,neutral,5,right,6,guess_start,646,space,0,0,748,13795,1643367
7,18,female,Belg,2,105,guess,neutral,5,right,6,guess_choice,521,j,0,0,748,13269,1643893
7,18,female,Belg,2,105,guess,neutral,5,right,6,guess_outcome,0,undefined,0,0,748,11712,1645450
7,18,female,Belg,2,105,ITC,neutral,5,right,6,ITC_start,1279,space,0,0,748,10431,1646731
7,18,female,Belg,2,105,ITC,neutral,5,right,6,ITC_choice,787,f,0,0,748,9642,1647520
7,18,female,Belg,2,105,ITC,neutral,5,right,6,ITC_wait,0,undefined,0,0,748,9638,1647524
7,18,female,Belg,2,105,ITC,neutral,5,right,6,ITC_collect,896,k,0,0,748,8740,1648422
7,18,female,Belg,2,105,ITC,neutral,5,right,6,ITC_outcome,0,undefined,0,0,754,7723,1649439
7,18,female,Belg,2,106,guess,win,5,right,3,guess_start,413,space,0,0,754,7307,1649855
7,18,female,Belg,2,106,guess,win,5,right,3,guess_choice,534,f,0,0,754,6769,1650393
7,18,female,Belg,2,106,guess,win,5,right,3,guess_outcome,0,undefined,0,0,774,5203,1651959
7,18,female,Belg,2,106,ITC,win,5,right,3,ITC_start,818,space,0,0,774,4383,1652779
7,18,female,Belg,2,106,ITC,win,5,right,3,ITC_choice,773,f,0,0,774,3607,1653555
7,18,female,Belg,2,106,ITC,win,5,right,3,ITC_wait,0,undefined,0,0,774,3603,1653559
7,18,female,Belg,2,106,ITC,win,5,right,3,ITC_collect,211,k,0,0,774,3390,1653772
7,18,female,Belg,2,106,ITC,win,5,right,3,ITC_outcome,0,undefined,0,0,777,2378,1654784
7,18,female,Belg,2,107,guess,loss,5,left,14,guess_start,662,space,0,0,777,1712,1655450
7,18,female,Belg,2,107,guess,loss,5,left,14,guess_choice,573,f,0,0,777,1134,1656028
7,18,female,Belg,2,107,guess,loss,5,left,14,guess_outcome,0,undefined,0,0,762,-9,1657171
7,18,female,Belg,3,108,guess,win,5,right,7,guess_start,7245,space,0,0,0,472753,1693265
7,18,female,Belg,3,108,guess,win,5,right,7,guess_choice,1146,j,0,0,0,471602,1694416
7,18,female,Belg,3,108,guess,win,5,right,7,guess_outcome,0,undefined,0,0,20,470044,1695974
7,18,female,Belg,3,108,ITC,win,5,right,7,ITC_start,542,space,0,0,20,469500,1696518
7,18,female,Belg,3,108,ITC,win,5,right,7,ITC_choice,745,f,0,0,20,468752,1697266
7,18,female,Belg,3,108,ITC,win,5,right,7,ITC_wait,0,undefined,0,0,20,468748,1697270
7,18,female,Belg,3,108,ITC,win,5,right,7,ITC_collect,163,k,0,0,20,468583,1697435
7,18,female,Belg,3,108,ITC,win,5,right,7,ITC_outcome,0,undefined,0,0,27,467577,1698441
7,18,female,Belg,3,109,guess,win,10,right,6,guess_start,543,space,0,0,27,467031,1698987
7,18,female,Belg,3,109,guess,win,10,right,6,guess_choice,655,f,0,0,27,466372,1699646
7,18,female,Belg,3,109,guess,win,10,right,6,guess_outcome,0,undefined,0,0,47,464803,1701215
7,18,female,Belg,3,109,ITC,win,10,right,6,ITC_start,450,space,0,0,47,464351,1701667
7,18,female,Belg,3,109,ITC,win,10,right,6,ITC_wait,0,undefined,0,0,47,463574,1702444
7,18,female,Belg,3,109,ITC,win,10,right,6,ITC_choice,771,f,0,0,47,463578,1702440
7,18,female,Belg,3,109,ITC,win,10,right,6,ITC_collect,172,k,0,0,47,463399,1702619
7,18,female,Belg,3,109,ITC,win,10,right,6,ITC_outcome,0,undefined,0,0,53,462395,1703623
7,18,female,Belg,3,110,guess,win,5,left,4,guess_start,487,space,0,0,53,461905,1704113
7,18,female,Belg,3,110,guess,win,5,left,4,guess_choice,643,f,0,0,53,461257,1704761
7,18,female,Belg,3,110,guess,win,5,left,4,guess_outcome,0,undefined,0,0,73,459698,1706320
7,18,female,Belg,3,110,ITC,win,5,left,4,ITC_start,650,space,0,0,73,459046,1706972
7,18,female,Belg,3,110,ITC,win,5,left,4,ITC_choice,865,j,0,0,73,458179,1707839
7,18,female,Belg,3,110,ITC,win,5,left,4,ITC_wait,0,undefined,0,0,73,458175,1707843
7,18,female,Belg,3,110,ITC,win,5,left,4,ITC_collect,148,k,0,0,73,458024,1707994
7,18,female,Belg,3,110,ITC,win,5,left,4,ITC_outcome,0,undefined,0,0,77,457008,1709010
7,18,female,Belg,3,111,guess,loss,10,left,3,guess_start,439,space,0,0,77,456567,1709451
7,18,female,Belg,3,111,guess,loss,10,left,3,guess_choice,517,f,0,0,77,456043,1709975
7,18,female,Belg,3,111,guess,loss,10,left,3,guess_outcome,0,undefined,0,0,62,454484,1711534
7,18,female,Belg,3,111,ITC,loss,10,left,3,ITC_start,424,space,0,0,62,454058,1711960
7,18,female,Belg,3,111,ITC,loss,10,left,3,ITC_choice,976,j,0,0,62,453079,1712939
7,18,female,Belg,3,111,ITC,loss,10,left,3,ITC_wait,0,undefined,0,0,62,453076,1712942
7,18,female,Belg,3,111,ITC,loss,10,left,3,ITC_collect,160,k,0,0,62,452914,1713104
7,18,female,Belg,3,111,ITC,loss,10,left,3,ITC_outcome,0,undefined,0,0,65,451909,1714109
7,18,female,Belg,3,112,guess,win,10,left,1,guess_start,465,space,0,0,65,451442,1714576
7,18,female,Belg,3,112,guess,win,10,left,1,guess_choice,1153,j,0,0,65,450285,1715733
7,18,female,Belg,3,112,guess,win,10,left,1,guess_outcome,0,undefined,0,0,85,448721,1717297
7,18,female,Belg,3,112,ITC,win,10,left,1,ITC_start,222,space,0,0,85,448497,1717521
7,18,female,Belg,3,112,ITC,win,10,left,1,ITC_wait,0,undefined,0,0,85,447387,1718631
7,18,female,Belg,3,112,ITC,win,10,left,1,ITC_choice,1104,j,0,0,85,447390,1718628
7,18,female,Belg,3,112,ITC,win,10,left,1,ITC_collect,214,k,0,0,85,447171,1718847
7,18,female,Belg,3,112,ITC,win,10,left,1,ITC_outcome,0,undefined,0,0,86,446166,1719852
7,18,female,Belg,3,113,guess,loss,5,left,11,guess_start,395,space,0,0,86,445769,1720249
7,18,female,Belg,3,113,guess,loss,5,left,11,guess_choice,2341,f,0,0,86,443424,1722594
7,18,female,Belg,3,113,guess,loss,5,left,11,guess_outcome,0,undefined,0,0,71,441861,1724157
7,18,female,Belg,3,113,ITC,loss,5,left,11,ITC_start,480,space,0,0,71,441378,1724640
7,18,female,Belg,3,113,ITC,loss,5,left,11,ITC_choice,527,j,0,0,71,440848,1725170
7,18,female,Belg,3,113,ITC,loss,5,left,11,ITC_wait,0,undefined,0,0,71,440844,1725174
7,18,female,Belg,3,113,ITC,loss,5,left,11,ITC_collect,138,k,0,0,71,440705,1725313
7,18,female,Belg,3,113,ITC,loss,5,left,11,ITC_outcome,0,undefined,0,0,82,439693,1726325
7,18,female,Belg,3,114,guess,neutral,5,right,14,guess_start,483,space,0,0,82,439207,1726811
7,18,female,Belg,3,114,guess,neutral,5,right,14,guess_choice,350,j,0,0,82,438852,1727166
7,18,female,Belg,3,114,guess,neutral,5,right,14,guess_outcome,0,undefined,0,0,82,437292,1728726
7,18,female,Belg,3,114,ITC,neutral,5,right,14,ITC_start,490,space,0,0,82,436800,1729218
7,18,female,Belg,3,114,ITC,neutral,5,right,14,ITC_choice,1114,f,0,0,82,435684,1730334
7,18,female,Belg,3,114,ITC,neutral,5,right,14,ITC_wait,0,undefined,0,0,82,435680,1730338
7,18,female,Belg,3,114,ITC,neutral,5,right,14,ITC_collect,298,k,0,0,82,435380,1730638
7,18,female,Belg,3,114,ITC,neutral,5,right,14,ITC_outcome,0,undefined,0,0,96,434370,1731648
7,18,female,Belg,3,115,guess,win,5,right,15,guess_start,464,space,0,0,96,433902,1732116
7,18,female,Belg,3,115,guess,win,5,right,15,guess_choice,365,f,0,0,96,433532,1732486
7,18,female,Belg,3,115,guess,win,5,right,15,guess_outcome,0,undefined,0,0,116,431976,1734042
7,18,female,Belg,3,115,ITC,win,5,right,15,ITC_start,147,space,0,0,116,431826,1734192
7,18,female,Belg,3,115,ITC,win,5,right,15,ITC_choice,786,f,0,0,116,431039,1734979
7,18,female,Belg,3,115,ITC,win,5,right,15,ITC_collect,194,k,0,0,116,430839,1735179
7,18,female,Belg,3,115,ITC,win,5,right,15,ITC_wait,0,undefined,0,0,116,431035,1734983
7,18,female,Belg,3,115,ITC,win,5,right,15,ITC_outcome,0,undefined,0,0,131,429823,1736195
7,18,female,Belg,3,116,guess,win,10,left,2,guess_start,793,space,0,0,131,429027,1736991
7,18,female,Belg,3,116,guess,win,10,left,2,guess_choice,690,j,0,0,131,428333,1737685
7,18,female,Belg,3,116,guess,win,10,left,2,guess_outcome,0,undefined,0,0,151,426768,1739250
7,18,female,Belg,3,116,ITC,win,10,left,2,ITC_start,395,space,0,0,151,426371,1739647
7,18,female,Belg,3,116,ITC,win,10,left,2,ITC_choice,1029,j,0,0,151,425340,1740678
7,18,female,Belg,3,116,ITC,win,10,left,2,ITC_wait,0,undefined,0,0,151,425335,1740683
7,18,female,Belg,3,116,ITC,win,10,left,2,ITC_collect,139,k,0,0,151,425195,1740823
7,18,female,Belg,3,116,ITC,win,10,left,2,ITC_outcome,0,undefined,0,0,153,424181,1741837
7,18,female,Belg,3,117,guess,win,5,left,9,guess_start,595,space,0,0,153,423583,1742435
7,18,female,Belg,3,117,guess,win,5,left,9,guess_choice,379,f,0,0,153,423199,1742819
7,18,female,Belg,3,117,guess,win,5,left,9,guess_outcome,0,undefined,0,0,173,421632,1744386
7,18,female,Belg,3,117,ITC,win,5,left,9,ITC_start,288,space,0,0,173,421342,1744676
7,18,female,Belg,3,117,ITC,win,5,left,9,ITC_choice,796,j,0,0,173,420543,1745475
7,18,female,Belg,3,117,ITC,win,5,left,9,ITC_wait,0,undefined,0,0,173,420539,1745479
7,18,female,Belg,3,117,ITC,win,5,left,9,ITC_collect,132,k,0,0,173,420404,1745614
7,18,female,Belg,3,117,ITC,win,5,left,9,ITC_outcome,0,undefined,0,0,182,419386,1746632
7,18,female,Belg,3,118,guess,neutral,5,left,12,guess_start,251,space,0,0,182,419132,1746886
7,18,female,Belg,3,118,guess,neutral,5,left,12,guess_choice,535,f,0,0,182,418592,1747426
7,18,female,Belg,3,118,guess,neutral,5,left,12,guess_outcome,0,undefined,0,0,182,417031,1748987
7,18,female,Belg,3,118,ITC,neutral,5,left,12,ITC_start,393,space,0,0,182,416636,1749382
7,18,female,Belg,3,118,ITC,neutral,5,left,12,ITC_choice,1071,j,0,0,182,415562,1750456
7,18,female,Belg,3,118,ITC,neutral,5,left,12,ITC_wait,0,undefined,0,0,182,415559,1750459
7,18,female,Belg,3,118,ITC,neutral,5,left,12,ITC_collect,153,k,0,0,182,415404,1750614
7,18,female,Belg,3,118,ITC,neutral,5,left,12,ITC_outcome,0,undefined,0,0,194,414386,1751632
7,18,female,Belg,3,119,guess,loss,5,right,7,guess_start,422,space,0,0,194,413961,1752057
7,18,female,Belg,3,119,guess,loss,5,right,7,guess_choice,694,f,0,0,194,413261,1752757
7,18,female,Belg,3,119,guess,loss,5,right,7,guess_outcome,0,undefined,0,0,179,411698,1754320
7,18,female,Belg,3,119,ITC,loss,5,right,7,ITC_start,554,space,0,0,179,411142,1754876
7,18,female,Belg,3,119,ITC,loss,5,right,7,ITC_choice,1421,f,0,0,179,409718,1756300
7,18,female,Belg,3,119,ITC,loss,5,right,7,ITC_wait,0,undefined,0,0,179,409714,1756304
7,18,female,Belg,3,119,ITC,loss,5,right,7,ITC_collect,218,k,0,0,179,409494,1756524
7,18,female,Belg,3,119,ITC,loss,5,right,7,ITC_outcome,0,undefined,0,0,186,408486,1757532
7,18,female,Belg,3,120,guess,win,5,left,14,guess_start,266,space,0,0,186,408218,1757800
7,18,female,Belg,3,120,guess,win,5,left,14,guess_choice,680,f,0,0,186,407533,1758485
7,18,female,Belg,3,120,guess,win,5,left,14,guess_outcome,0,undefined,0,0,206,405964,1760054
7,18,female,Belg,3,120,ITC,win,5,left,14,ITC_start,491,space,0,0,206,405472,1760546
7,18,female,Belg,3,120,ITC,win,5,left,14,ITC_choice,689,j,0,0,206,404780,1761238
7,18,female,Belg,3,120,ITC,win,5,left,14,ITC_wait,0,undefined,0,0,206,404776,1761242
7,18,female,Belg,3,120,ITC,win,5,left,14,ITC_collect,109,k,0,0,206,404664,1761354
7,18,female,Belg,3,120,ITC,win,5,left,14,ITC_outcome,0,undefined,0,0,220,403653,1762365
7,18,female,Belg,3,121,guess,neutral,5,left,8,guess_start,414,space,0,0,220,403236,1762782
7,18,female,Belg,3,121,guess,neutral,5,left,8,guess_choice,568,j,0,0,220,402664,1763354
7,18,female,Belg,3,121,guess,neutral,5,left,8,guess_outcome,0,undefined,0,0,220,401103,1764915
7,18,female,Belg,3,121,ITC,neutral,5,left,8,ITC_start,618,space,0,0,220,400483,1765535
7,18,female,Belg,3,121,ITC,neutral,5,left,8,ITC_choice,591,j,0,0,220,399889,1766129
7,18,female,Belg,3,121,ITC,neutral,5,left,8,ITC_wait,0,undefined,0,0,220,399884,1766134
7,18,female,Belg,3,121,ITC,neutral,5,left,8,ITC_collect,113,k,0,0,220,399769,1766249
7,18,female,Belg,3,121,ITC,neutral,5,left,8,ITC_outcome,0,undefined,0,0,228,398761,1767257
7,18,female,Belg,3,122,guess,win,5,right,8,guess_start,481,space,0,0,228,398277,1767741
7,18,female,Belg,3,122,guess,win,5,right,8,guess_choice,619,j,0,0,228,397653,1768365
7,18,female,Belg,3,122,guess,win,5,right,8,guess_outcome,0,undefined,0,0,248,396095,1769923
7,18,female,Belg,3,122,ITC,win,5,right,8,ITC_start,371,space,0,0,248,395722,1770296
7,18,female,Belg,3,122,ITC,win,5,right,8,ITC_choice,922,f,0,0,248,394798,1771220
7,18,female,Belg,3,122,ITC,win,5,right,8,ITC_wait,0,undefined,0,0,248,394794,1771224
7,18,female,Belg,3,122,ITC,win,5,right,8,ITC_collect,182,k,0,0,248,394609,1771409
7,18,female,Belg,3,122,ITC,win,5,right,8,ITC_outcome,0,undefined,0,0,256,393601,1772417
7,18,female,Belg,3,123,guess,neutral,10,right,3,guess_start,372,space,0,0,256,393227,1772791
7,18,female,Belg,3,123,guess,neutral,10,right,3,guess_choice,500,f,0,0,256,392722,1773296
7,18,female,Belg,3,123,guess,neutral,10,right,3,guess_outcome,0,undefined,0,0,256,391158,1774860
7,18,female,Belg,3,123,ITC,neutral,10,right,3,ITC_start,623,space,0,0,256,390532,1775486
7,18,female,Belg,3,123,ITC,neutral,10,right,3,ITC_choice,632,f,0,0,256,389898,1776120
7,18,female,Belg,3,123,ITC,neutral,10,right,3,ITC_wait,0,undefined,0,0,256,389893,1776125
7,18,female,Belg,3,123,ITC,neutral,10,right,3,ITC_collect,217,k,0,0,256,389674,1776344
7,18,female,Belg,3,123,ITC,neutral,10,right,3,ITC_outcome,0,undefined,0,0,259,388657,1777361
7,18,female,Belg,3,124,guess,neutral,5,left,16,guess_start,368,space,0,0,259,388286,1777732
7,18,female,Belg,3,124,guess,neutral,5,left,16,guess_choice,520,f,0,0,259,387761,1778257
7,18,female,Belg,3,124,guess,neutral,5,left,16,guess_outcome,0,undefined,0,0,259,386194,1779824
7,18,female,Belg,3,124,ITC,neutral,5,left,16,ITC_start,426,space,0,0,259,385766,1780252
7,18,female,Belg,3,124,ITC,neutral,5,left,16,ITC_choice,772,j,0,0,259,384991,1781027
7,18,female,Belg,3,124,ITC,neutral,5,left,16,ITC_wait,0,undefined,0,0,259,384988,1781030
7,18,female,Belg,3,124,ITC,neutral,5,left,16,ITC_collect,93,k,0,0,259,384892,1781126
7,18,female,Belg,3,124,ITC,neutral,5,left,16,ITC_outcome,0,undefined,0,0,275,383887,1782131
7,18,female,Belg,3,125,guess,win,5,right,5,guess_start,11,space,0,0,275,383873,1782145
7,18,female,Belg,3,125,guess,win,5,right,5,guess_choice,579,f,0,0,275,383289,1782729
7,18,female,Belg,3,125,guess,win,5,right,5,guess_outcome,0,undefined,0,0,295,381723,1784295
7,18,female,Belg,3,125,ITC,win,5,right,5,ITC_start,260,space,0,0,295,381460,1784558
7,18,female,Belg,3,125,ITC,win,5,right,5,ITC_choice,772,j,0,0,295,380686,1785332
7,18,female,Belg,3,125,ITC,win,5,right,5,ITC_wait,0,undefined,0,0,295,375682,1790336
7,18,female,Belg,3,125,ITC,win,5,right,5,ITC_collect,1755,k,0,0,295,373924,1792094
7,18,female,Belg,3,125,ITC,win,5,right,5,ITC_outcome,0,undefined,0,0,315,372920,1793098
7,18,female,Belg,3,126,guess,neutral,5,left,4,guess_start,705,space,0,0,315,372212,1793806
7,18,female,Belg,3,126,guess,neutral,5,left,4,guess_choice,464,j,0,0,315,371743,1794275
7,18,female,Belg,3,126,guess,neutral,5,left,4,guess_outcome,0,undefined,0,0,315,370179,1795839
7,18,female,Belg,3,126,ITC,neutral,5,left,4,ITC_start,430,space,0,0,315,369747,1796271
7,18,female,Belg,3,126,ITC,neutral,5,left,4,ITC_choice,631,j,0,0,315,369113,1796905
7,18,female,Belg,3,126,ITC,neutral,5,left,4,ITC_wait,0,undefined,0,0,315,369109,1796909
7,18,female,Belg,3,126,ITC,neutral,5,left,4,ITC_collect,152,k,0,0,315,368955,1797063
7,18,female,Belg,3,126,ITC,neutral,5,left,4,ITC_outcome,0,undefined,0,0,319,367942,1798076
7,18,female,Belg,3,127,guess,loss,5,right,6,guess_start,572,space,0,0,319,367367,1798651
7,18,female,Belg,3,127,guess,loss,5,right,6,guess_choice,539,f,0,0,319,366823,1799195
7,18,female,Belg,3,127,guess,loss,5,right,6,guess_outcome,0,undefined,0,0,304,365260,1800758
7,18,female,Belg,3,127,ITC,loss,5,right,6,ITC_start,576,space,0,0,304,364683,1801335
7,18,female,Belg,3,127,ITC,loss,5,right,6,ITC_choice,1115,f,0,0,304,363565,1802453
7,18,female,Belg,3,127,ITC,loss,5,right,6,ITC_wait,0,undefined,0,0,304,363561,1802457
7,18,female,Belg,3,127,ITC,loss,5,right,6,ITC_collect,139,k,0,0,304,363419,1802599
7,18,female,Belg,3,127,ITC,loss,5,right,6,ITC_outcome,0,undefined,0,0,310,362404,1803614
7,18,female,Belg,3,128,guess,neutral,10,right,2,guess_start,369,space,0,0,310,362031,1803987
7,18,female,Belg,3,128,guess,neutral,10,right,2,guess_choice,448,j,0,0,310,361579,1804439
7,18,female,Belg,3,128,guess,neutral,10,right,2,guess_outcome,0,undefined,0,0,310,360016,1806002
7,18,female,Belg,3,128,ITC,neutral,10,right,2,ITC_start,575,space,0,0,310,359438,1806580
7,18,female,Belg,3,128,ITC,neutral,10,right,2,ITC_choice,801,f,0,0,310,358635,1807383
7,18,female,Belg,3,128,ITC,neutral,10,right,2,ITC_wait,0,undefined,0,0,310,358630,1807388
7,18,female,Belg,3,128,ITC,neutral,10,right,2,ITC_collect,217,k,0,0,310,358410,1807608
7,18,female,Belg,3,128,ITC,neutral,10,right,2,ITC_outcome,0,undefined,0,0,312,357400,1808618
7,18,female,Belg,3,129,guess,loss,10,right,8,guess_start,139,space,0,0,312,357258,1808760
7,18,female,Belg,3,129,guess,loss,10,right,8,guess_choice,604,j,0,0,312,356649,1809369
7,18,female,Belg,3,129,guess,loss,10,right,8,guess_outcome,0,undefined,0,0,297,355093,1810925
7,18,female,Belg,3,129,ITC,loss,10,right,8,ITC_start,871,space,0,0,297,354219,1811799
7,18,female,Belg,3,129,ITC,loss,10,right,8,ITC_choice,937,f,0,0,297,353279,1812739
7,18,female,Belg,3,129,ITC,loss,10,right,8,ITC_wait,0,undefined,0,0,297,353276,1812742
7,18,female,Belg,3,129,ITC,loss,10,right,8,ITC_collect,681,k,0,0,297,352592,1813426
7,18,female,Belg,3,129,ITC,loss,10,right,8,ITC_outcome,0,undefined,0,0,305,351575,1814443
7,18,female,Belg,3,130,guess,win,5,left,2,guess_start,971,space,0,0,305,350601,1815417
7,18,female,Belg,3,130,guess,win,5,left,2,guess_choice,476,f,0,0,305,350120,1815898
7,18,female,Belg,3,130,guess,win,5,left,2,guess_outcome,0,undefined,0,0,325,348555,1817463
7,18,female,Belg,3,130,ITC,win,5,left,2,ITC_start,532,space,0,0,325,348021,1817997
7,18,female,Belg,3,130,ITC,win,5,left,2,ITC_choice,692,j,0,0,325,347326,1818692
7,18,female,Belg,3,130,ITC,win,5,left,2,ITC_wait,0,undefined,0,0,325,347322,1818696
7,18,female,Belg,3,130,ITC,win,5,left,2,ITC_collect,123,k,0,0,325,347197,1818821
7,18,female,Belg,3,130,ITC,win,5,left,2,ITC_outcome,0,undefined,0,0,327,346184,1819834
7,18,female,Belg,3,131,guess,neutral,10,left,4,guess_start,410,space,0,0,327,345770,1820248
7,18,female,Belg,3,131,guess,neutral,10,left,4,guess_choice,501,j,0,0,327,345265,1820753
7,18,female,Belg,3,131,guess,neutral,10,left,4,guess_outcome,0,undefined,0,0,327,343702,1822316
7,18,female,Belg,3,131,ITC,neutral,10,left,4,ITC_start,560,space,0,0,327,343139,1822879
7,18,female,Belg,3,131,ITC,neutral,10,left,4,ITC_choice,1154,j,0,0,327,341983,1824035
7,18,female,Belg,3,131,ITC,neutral,10,left,4,ITC_wait,0,undefined,0,0,327,341979,1824039
7,18,female,Belg,3,131,ITC,neutral,10,left,4,ITC_collect,229,k,0,0,327,341748,1824270
7,18,female,Belg,3,131,ITC,neutral,10,left,4,ITC_outcome,0,undefined,0,0,331,340744,1825274
7,18,female,Belg,3,132,guess,loss,10,left,6,guess_start,425,space,0,0,331,340316,1825702
7,18,female,Belg,3,132,guess,loss,10,left,6,guess_choice,803,j,0,0,331,339508,1826510
7,18,female,Belg,3,132,guess,loss,10,left,6,guess_outcome,0,undefined,0,0,316,337941,1828077
7,18,female,Belg,3,132,ITC,loss,10,left,6,ITC_start,607,space,0,0,316,337332,1828686
7,18,female,Belg,3,132,ITC,loss,10,left,6,ITC_choice,631,j,0,0,316,336698,1829320
7,18,female,Belg,3,132,ITC,loss,10,left,6,ITC_wait,0,undefined,0,0,316,336694,1829324
7,18,female,Belg,3,132,ITC,loss,10,left,6,ITC_collect,118,k,0,0,316,336574,1829444
7,18,female,Belg,3,132,ITC,loss,10,left,6,ITC_outcome,0,undefined,0,0,322,335564,1830454
7,18,female,Belg,3,133,guess,neutral,5,left,15,guess_start,375,space,0,0,322,335186,1830832
7,18,female,Belg,3,133,guess,neutral,5,left,15,guess_choice,484,j,0,0,322,334697,1831321
7,18,female,Belg,3,133,guess,neutral,5,left,15,guess_outcome,0,undefined,0,0,322,333136,1832882
7,18,female,Belg,3,133,ITC,neutral,5,left,15,ITC_start,538,space,0,0,322,332596,1833422
7,18,female,Belg,3,133,ITC,neutral,5,left,15,ITC_wait,0,undefined,0,0,322,331859,1834159
7,18,female,Belg,3,133,ITC,neutral,5,left,15,ITC_choice,730,j,0,0,322,331863,1834155
7,18,female,Belg,3,133,ITC,neutral,5,left,15,ITC_collect,108,k,0,0,322,331749,1834269
7,18,female,Belg,3,133,ITC,neutral,5,left,15,ITC_outcome,0,undefined,0,0,337,330734,1835284
7,18,female,Belg,3,134,guess,loss,5,right,12,guess_start,555,space,0,0,337,330177,1835841
7,18,female,Belg,3,134,guess,loss,5,right,12,guess_choice,651,j,0,0,337,329521,1836497
7,18,female,Belg,3,134,guess,loss,5,right,12,guess_outcome,0,undefined,0,0,322,327959,1838059
7,18,female,Belg,3,134,ITC,loss,5,right,12,ITC_start,500,space,0,0,322,327457,1838561
7,18,female,Belg,3,134,ITC,loss,5,right,12,ITC_choice,986,f,0,0,322,326469,1839549
7,18,female,Belg,3,134,ITC,loss,5,right,12,ITC_wait,0,undefined,0,0,322,326464,1839554
7,18,female,Belg,3,134,ITC,loss,5,right,12,ITC_collect,153,k,0,0,322,326309,1839709
7,18,female,Belg,3,134,ITC,loss,5,right,12,ITC_outcome,0,undefined,0,0,334,325291,1840727
7,18,female,Belg,3,135,guess,loss,10,left,4,guess_start,452,space,0,0,334,324837,1841181
7,18,female,Belg,3,135,guess,loss,10,left,4,guess_choice,454,f,0,0,334,324378,1841640
7,18,female,Belg,3,135,guess,loss,10,left,4,guess_outcome,0,undefined,0,0,319,322821,1843197
7,18,female,Belg,3,135,ITC,loss,10,left,4,ITC_start,484,space,0,0,319,322335,1843683
7,18,female,Belg,3,135,ITC,loss,10,left,4,ITC_wait,0,undefined,0,0,319,322122,1843896
7,18,female,Belg,3,135,ITC,loss,10,left,4,ITC_choice,207,j,0,0,319,322126,1843892
7,18,female,Belg,3,135,ITC,loss,10,left,4,ITC_collect,437,k,0,0,319,321683,1844335
7,18,female,Belg,3,135,ITC,loss,10,left,4,ITC_outcome,0,undefined,0,0,323,320678,1845340
7,18,female,Belg,3,136,guess,loss,5,right,13,guess_start,101,space,0,0,323,320574,1845444
7,18,female,Belg,3,136,guess,loss,5,right,13,guess_choice,519,j,0,0,323,320050,1845968
7,18,female,Belg,3,136,guess,loss,5,right,13,guess_outcome,0,undefined,0,0,308,318492,1847526
7,18,female,Belg,3,136,ITC,loss,5,right,13,ITC_start,785,space,0,0,308,317705,1848313
7,18,female,Belg,3,136,ITC,loss,5,right,13,ITC_choice,1451,f,0,0,308,316251,1849767
7,18,female,Belg,3,136,ITC,loss,5,right,13,ITC_wait,0,undefined,0,0,308,316247,1849771
7,18,female,Belg,3,136,ITC,loss,5,right,13,ITC_collect,152,k,0,0,308,316093,1849925
7,18,female,Belg,3,136,ITC,loss,5,right,13,ITC_outcome,0,undefined,0,0,321,315074,1850944
7,18,female,Belg,3,137,guess,loss,10,right,2,guess_start,455,space,0,0,321,314616,1851402
7,18,female,Belg,3,137,guess,loss,10,right,2,guess_choice,306,f,0,0,321,314306,1851712
7,18,female,Belg,3,137,guess,loss,10,right,2,guess_outcome,0,undefined,0,0,306,312745,1853273
7,18,female,Belg,3,137,ITC,loss,10,right,2,ITC_start,448,space,0,0,306,312294,1853724
7,18,female,Belg,3,137,ITC,loss,10,right,2,ITC_choice,925,j,0,0,306,311367,1854651
7,18,female,Belg,3,137,ITC,loss,10,right,2,ITC_wait,0,undefined,0,0,306,301358,1864660
7,18,female,Belg,3,137,ITC,loss,10,right,2,ITC_collect,1032,k,0,0,306,300323,1865695
7,18,female,Belg,3,137,ITC,loss,10,right,2,ITC_outcome,0,undefined,0,0,326,299307,1866711
7,18,female,Belg,3,138,guess,win,5,left,1,guess_start,732,space,0,0,326,298572,1867446
7,18,female,Belg,3,138,guess,win,5,left,1,guess_choice,322,f,0,0,326,298246,1867772
7,18,female,Belg,3,138,guess,win,5,left,1,guess_outcome,0,undefined,0,0,346,296684,1869334
7,18,female,Belg,3,138,ITC,win,5,left,1,ITC_start,779,space,0,0,346,295902,1870116
7,18,female,Belg,3,138,ITC,win,5,left,1,ITC_choice,570,j,0,0,346,295328,1870690
7,18,female,Belg,3,138,ITC,win,5,left,1,ITC_wait,0,undefined,0,0,346,295323,1870695
7,18,female,Belg,3,138,ITC,win,5,left,1,ITC_collect,99,k,0,0,346,295222,1870796
7,18,female,Belg,3,138,ITC,win,5,left,1,ITC_outcome,0,undefined,0,0,347,294211,1871807
7,18,female,Belg,3,139,guess,neutral,5,right,2,guess_start,617,space,0,0,347,293591,1872427
7,18,female,Belg,3,139,guess,neutral,5,right,2,guess_choice,406,f,0,0,347,293180,1872838
7,18,female,Belg,3,139,guess,neutral,5,right,2,guess_outcome,0,undefined,0,0,347,291622,1874396
7,18,female,Belg,3,139,ITC,neutral,5,right,2,ITC_start,340,space,0,0,347,291281,1874737
7,18,female,Belg,3,139,ITC,neutral,5,right,2,ITC_choice,1008,f,0,0,347,290270,1875748
7,18,female,Belg,3,139,ITC,neutral,5,right,2,ITC_wait,0,undefined,0,0,347,290266,1875752
7,18,female,Belg,3,139,ITC,neutral,5,right,2,ITC_collect,136,k,0,0,347,290128,1875890
7,18,female,Belg,3,139,ITC,neutral,5,right,2,ITC_outcome,0,undefined,0,0,349,289119,1876899
7,18,female,Belg,3,140,guess,neutral,10,left,8,guess_start,332,space,0,0,349,288784,1877234
7,18,female,Belg,3,140,guess,neutral,10,left,8,guess_choice,415,f,0,0,349,288365,1877653
7,18,female,Belg,3,140,guess,neutral,10,left,8,guess_outcome,0,undefined,0,0,349,286809,1879209
7,18,female,Belg,3,140,ITC,neutral,10,left,8,ITC_start,526,space,0,0,349,286280,1879738
7,18,female,Belg,3,140,ITC,neutral,10,left,8,ITC_choice,825,j,0,0,349,285452,1880566
7,18,female,Belg,3,140,ITC,neutral,10,left,8,ITC_wait,0,undefined,0,0,349,285448,1880570
7,18,female,Belg,3,140,ITC,neutral,10,left,8,ITC_collect,127,k,0,0,349,285317,1880701
7,18,female,Belg,3,140,ITC,neutral,10,left,8,ITC_outcome,0,undefined,0,0,357,284298,1881720
7,18,female,Belg,3,141,guess,win,5,left,6,guess_start,515,space,0,0,357,283780,1882238
7,18,female,Belg,3,141,guess,win,5,left,6,guess_choice,546,f,0,0,357,283230,1882788
7,18,female,Belg,3,141,guess,win,5,left,6,guess_outcome,0,undefined,0,0,377,281671,1884347
7,18,female,Belg,3,141,ITC,win,5,left,6,ITC_start,355,space,0,0,377,281314,1884704
7,18,female,Belg,3,141,ITC,win,5,left,6,ITC_choice,561,j,0,0,377,280751,1885267
7,18,female,Belg,3,141,ITC,win,5,left,6,ITC_wait,0,undefined,0,0,377,280747,1885271
7,18,female,Belg,3,141,ITC,win,5,left,6,ITC_collect,239,k,0,0,377,280505,1885513
7,18,female,Belg,3,141,ITC,win,5,left,6,ITC_outcome,0,undefined,0,0,383,279489,1886529
7,18,female,Belg,3,142,guess,loss,5,left,3,guess_start,479,space,0,0,383,279007,1887011
7,18,female,Belg,3,142,guess,loss,5,left,3,guess_choice,442,j,0,0,383,278559,1887459
7,18,female,Belg,3,142,guess,loss,5,left,3,guess_outcome,0,undefined,0,0,368,277002,1889016
7,18,female,Belg,3,142,ITC,loss,5,left,3,ITC_start,1790,space,0,0,368,275210,1890808
7,18,female,Belg,3,142,ITC,loss,5,left,3,ITC_choice,741,j,0,0,368,274466,1891552
7,18,female,Belg,3,142,ITC,loss,5,left,3,ITC_wait,0,undefined,0,0,368,274462,1891556
7,18,female,Belg,3,142,ITC,loss,5,left,3,ITC_collect,159,k,0,0,368,274301,1891717
7,18,female,Belg,3,142,ITC,loss,5,left,3,ITC_outcome,0,undefined,0,0,371,273287,1892731
7,18,female,Belg,3,143,guess,neutral,5,right,11,guess_start,624,space,0,0,371,272660,1893358
7,18,female,Belg,3,143,guess,neutral,5,right,11,guess_choice,325,f,0,0,371,272330,1893688
7,18,female,Belg,3,143,guess,neutral,5,right,11,guess_outcome,0,undefined,0,0,371,270765,1895253
7,18,female,Belg,3,143,ITC,neutral,5,right,11,ITC_start,505,space,0,0,371,270258,1895760
7,18,female,Belg,3,143,ITC,neutral,5,right,11,ITC_choice,956,f,0,0,371,269300,1896718
7,18,female,Belg,3,143,ITC,neutral,5,right,11,ITC_wait,0,undefined,0,0,371,269296,1896722
7,18,female,Belg,3,143,ITC,neutral,5,right,11,ITC_collect,227,k,0,0,371,269067,1896951
7,18,female,Belg,3,143,ITC,neutral,5,right,11,ITC_outcome,0,undefined,0,0,382,268052,1897966
7,18,female,Belg,3,144,guess,loss,5,left,10,guess_start,463,space,0,0,382,267584,1898434
7,18,female,Belg,3,144,guess,loss,5,left,10,guess_choice,295,f,0,0,382,267284,1898734
7,18,female,Belg,3,144,guess,loss,5,left,10,guess_outcome,0,undefined,0,0,367,265727,1900291
7,18,female,Belg,3,144,ITC,loss,5,left,10,ITC_start,441,space,0,0,367,265284,1900734
7,18,female,Belg,3,144,ITC,loss,5,left,10,ITC_choice,626,j,0,0,367,264656,1901362
7,18,female,Belg,3,144,ITC,loss,5,left,10,ITC_wait,0,undefined,0,0,367,264652,1901366
7,18,female,Belg,3,144,ITC,loss,5,left,10,ITC_collect,29,k,0,0,367,264620,1901398
7,18,female,Belg,3,144,ITC,loss,5,left,10,ITC_outcome,0,undefined,0,0,377,263609,1902409
7,18,female,Belg,3,145,guess,neutral,5,right,16,guess_start,552,space,0,0,377,263054,1902964
7,18,female,Belg,3,145,guess,neutral,5,right,16,guess_choice,560,j,0,0,377,262490,1903528
7,18,female,Belg,3,145,guess,neutral,5,right,16,guess_outcome,0,undefined,0,0,377,260932,1905086
7,18,female,Belg,3,145,ITC,neutral,5,right,16,ITC_start,315,space,0,0,377,260614,1905404
7,18,female,Belg,3,145,ITC,neutral,5,right,16,ITC_choice,876,f,0,0,377,259735,1906283
7,18,female,Belg,3,145,ITC,neutral,5,right,16,ITC_wait,0,undefined,0,0,377,259731,1906287
7,18,female,Belg,3,145,ITC,neutral,5,right,16,ITC_collect,223,k,0,0,377,259506,1906512
7,18,female,Belg,3,145,ITC,neutral,5,right,16,ITC_outcome,0,undefined,0,0,393,258493,1907525
7,18,female,Belg,3,146,guess,loss,5,right,3,guess_start,401,space,0,0,393,258089,1907929
7,18,female,Belg,3,146,guess,loss,5,right,3,guess_choice,786,j,0,0,393,257298,1908720
