subjectID,age,gender,nationality,block_number,trial_number,trial_type,guess_outcome,delay_time,delay_pos,immediate_amount,stage,respRT,respKey,blur_count,focus_count,total_points,remaining_duration,time_elapsed
49,18,male,Belgium,1,1,guess,win,10,left,4,guess_start,1508,space,0,0,0,478490,314748
49,18,male,Belgium,1,1,guess,win,10,left,4,guess_choice,1414,f,0,0,0,477070,316168
49,18,male,Belgium,1,1,guess,win,10,left,4,guess_outcome,0,undefined,0,0,20,475509,317729
49,18,male,Belgium,1,1,ITC,win,10,left,4,ITC_start,1920,space,0,0,20,473585,319653
49,18,male,Belgium,1,1,ITC,win,10,left,4,ITC_choice,1843,f,0,0,20,471739,321499
49,18,male,Belgium,1,1,ITC,win,10,left,4,ITC_wait,0,undefined,0,0,20,461727,331511
49,18,male,Belgium,1,1,ITC,win,10,left,4,ITC_collect,1014,k,0,0,20,460712,332526
49,18,male,Belgium,1,1,ITC,win,10,left,4,ITC_outcome,0,undefined,0,0,40,459692,333546
49,18,male,Belgium,1,2,guess,neutral,10,left,8,guess_start,859,space,0,0,40,458828,334410
49,18,male,Belgium,1,2,guess,neutral,10,left,8,guess_choice,1038,j,0,0,40,457789,335449
49,18,male,Belgium,1,2,guess,neutral,10,left,8,guess_outcome,0,undefined,0,0,40,456228,337010
49,18,male,Belgium,1,2,ITC,neutral,10,left,8,ITC_start,1007,space,0,0,40,455219,338019
49,18,male,Belgium,1,2,ITC,neutral,10,left,8,ITC_choice,1637,f,0,0,40,453579,339659
49,18,male,Belgium,1,2,ITC,neutral,10,left,8,ITC_wait,0,undefined,0,0,40,443568,349670
49,18,male,Belgium,1,2,ITC,neutral,10,left,8,ITC_collect,1151,k,0,0,40,442416,350822
49,18,male,Belgium,1,2,ITC,neutral,10,left,8,ITC_outcome,0,undefined,0,0,60,441411,351827
49,18,male,Belgium,1,3,guess,neutral,5,left,8,guess_start,893,space,0,0,60,440516,352722
49,18,male,Belgium,1,3,guess,neutral,5,left,8,guess_choice,970,f,0,0,60,439544,353694
49,18,male,Belgium,1,3,guess,neutral,5,left,8,guess_outcome,0,undefined,0,0,60,437991,355247
49,18,male,Belgium,1,3,ITC,neutral,5,left,8,ITC_start,863,space,0,0,60,437126,356112
49,18,male,Belgium,1,3,ITC,neutral,5,left,8,ITC_choice,1269,f,0,0,60,435854,357384
49,18,male,Belgium,1,3,ITC,neutral,5,left,8,ITC_wait,0,undefined,0,0,60,430849,362389
49,18,male,Belgium,1,3,ITC,neutral,5,left,8,ITC_collect,1387,k,0,0,60,429459,363779
49,18,male,Belgium,1,3,ITC,neutral,5,left,8,ITC_outcome,0,undefined,0,0,80,428446,364792
49,18,male,Belgium,1,4,guess,neutral,10,right,4,guess_start,802,space,0,0,80,427641,365597
49,18,male,Belgium,1,4,guess,neutral,10,right,4,guess_choice,1226,j,0,0,80,426411,366827
49,18,male,Belgium,1,4,guess,neutral,10,right,4,guess_outcome,0,undefined,0,0,80,424855,368383
49,18,male,Belgium,1,4,ITC,neutral,10,right,4,ITC_start,708,space,0,0,80,424144,369094
49,18,male,Belgium,1,4,ITC,neutral,10,right,4,ITC_choice,1183,j,0,0,80,422956,370282
49,18,male,Belgium,1,4,ITC,neutral,10,right,4,ITC_wait,0,undefined,0,0,80,412944,380294
49,18,male,Belgium,1,4,ITC,neutral,10,right,4,ITC_collect,961,k,0,0,80,411981,381257
49,18,male,Belgium,1,4,ITC,neutral,10,right,4,ITC_outcome,0,undefined,0,0,100,410969,382269
49,18,male,Belgium,1,5,guess,neutral,5,right,1,guess_start,830,space,0,0,100,410137,383101
49,18,male,Belgium,1,5,guess,neutral,5,right,1,guess_choice,801,j,0,0,100,409330,383908
49,18,male,Belgium,1,5,guess,neutral,5,right,1,guess_outcome,0,undefined,0,0,100,407762,385476
49,18,male,Belgium,1,5,ITC,neutral,5,right,1,ITC_start,834,space,0,0,100,406926,386312
49,18,male,Belgium,1,5,ITC,neutral,5,right,1,ITC_choice,1230,j,0,0,100,405695,387543
49,18,male,Belgium,1,5,ITC,neutral,5,right,1,ITC_wait,0,undefined,0,0,100,400684,392554
49,18,male,Belgium,1,5,ITC,neutral,5,right,1,ITC_collect,660,k,0,0,100,400023,393215
49,18,male,Belgium,1,5,ITC,neutral,5,right,1,ITC_outcome,0,undefined,0,0,120,399014,394224
49,18,male,Belgium,1,6,guess,loss,10,left,6,guess_start,423,space,0,0,120,398589,394649
49,18,male,Belgium,1,6,guess,loss,10,left,6,guess_choice,1198,j,0,0,120,397386,395852
49,18,male,Belgium,1,6,guess,loss,10,left,6,guess_outcome,0,undefined,0,0,105,395821,397417
49,18,male,Belgium,1,6,ITC,loss,10,left,6,ITC_start,714,space,0,0,105,395106,398132
49,18,male,Belgium,1,6,ITC,loss,10,left,6,ITC_choice,1655,f,0,0,105,393450,399788
49,18,male,Belgium,1,6,ITC,loss,10,left,6,ITC_wait,0,undefined,0,0,105,383435,409803
49,18,male,Belgium,1,6,ITC,loss,10,left,6,ITC_collect,954,k,0,0,105,382477,410761
49,18,male,Belgium,1,6,ITC,loss,10,left,6,ITC_outcome,0,undefined,0,0,125,381464,411774
49,18,male,Belgium,1,7,guess,neutral,5,left,13,guess_start,665,space,0,0,125,380797,412441
49,18,male,Belgium,1,7,guess,neutral,5,left,13,guess_choice,856,f,0,0,125,379937,413301
49,18,male,Belgium,1,7,guess,neutral,5,left,13,guess_outcome,0,undefined,0,0,125,378376,414862
49,18,male,Belgium,1,7,ITC,neutral,5,left,13,ITC_start,829,space,0,0,125,377545,415693
49,18,male,Belgium,1,7,ITC,neutral,5,left,13,ITC_choice,1637,j,0,0,125,375905,417333
49,18,male,Belgium,1,7,ITC,neutral,5,left,13,ITC_wait,0,undefined,0,0,125,375902,417336
49,18,male,Belgium,1,7,ITC,neutral,5,left,13,ITC_collect,1378,k,0,0,125,374523,418715
49,18,male,Belgium,1,7,ITC,neutral,5,left,13,ITC_outcome,0,undefined,0,0,138,373507,419731
49,18,male,Belgium,1,8,guess,loss,5,right,16,guess_start,865,space,0,0,138,372639,420599
49,18,male,Belgium,1,8,guess,loss,5,right,16,guess_choice,995,f,0,0,138,371640,421598
49,18,male,Belgium,1,8,guess,loss,5,right,16,guess_outcome,0,undefined,0,0,123,370084,423154
49,18,male,Belgium,1,8,ITC,loss,5,right,16,ITC_start,1146,space,0,0,123,368936,424302
49,18,male,Belgium,1,8,ITC,loss,5,right,16,ITC_choice,2500,f,0,0,123,366435,426803
49,18,male,Belgium,1,8,ITC,loss,5,right,16,ITC_wait,0,undefined,0,0,123,366430,426808
49,18,male,Belgium,1,8,ITC,loss,5,right,16,ITC_collect,897,k,0,0,123,365532,427706
49,18,male,Belgium,1,8,ITC,loss,5,right,16,ITC_outcome,0,undefined,0,0,139,364518,428720
49,18,male,Belgium,1,9,guess,neutral,10,left,7,guess_start,377,space,0,0,139,364138,429100
49,18,male,Belgium,1,9,guess,neutral,10,left,7,guess_choice,924,f,0,0,139,363209,430029
49,18,male,Belgium,1,9,guess,neutral,10,left,7,guess_outcome,0,undefined,0,0,139,361644,431594
49,18,male,Belgium,1,9,ITC,neutral,10,left,7,ITC_start,483,space,0,0,139,361160,432078
49,18,male,Belgium,1,9,ITC,neutral,10,left,7,ITC_choice,1391,f,0,0,139,359766,433472
49,18,male,Belgium,1,9,ITC,neutral,10,left,7,ITC_wait,0,undefined,0,0,139,349756,443482
49,18,male,Belgium,1,9,ITC,neutral,10,left,7,ITC_collect,1015,k,0,0,139,348739,444499
49,18,male,Belgium,1,9,ITC,neutral,10,left,7,ITC_outcome,0,undefined,0,0,159,347726,445512
49,18,male,Belgium,1,10,guess,win,5,left,14,guess_start,365,space,0,0,159,347358,445880
49,18,male,Belgium,1,10,guess,win,5,left,14,guess_choice,1526,f,0,0,159,345828,447410
49,18,male,Belgium,1,10,guess,win,5,left,14,guess_outcome,0,undefined,0,0,179,344261,448977
49,18,male,Belgium,1,10,ITC,win,5,left,14,ITC_start,1125,space,0,0,179,343135,450103
49,18,male,Belgium,1,10,ITC,win,5,left,14,ITC_choice,1419,f,0,0,179,341714,451524
49,18,male,Belgium,1,10,ITC,win,5,left,14,ITC_wait,0,undefined,0,0,179,336709,456529
49,18,male,Belgium,1,10,ITC,win,5,left,14,ITC_collect,745,k,0,0,179,335960,457278
49,18,male,Belgium,1,10,ITC,win,5,left,14,ITC_outcome,0,undefined,0,0,199,334952,458286
49,18,male,Belgium,1,11,guess,loss,5,right,14,guess_start,382,space,0,0,199,334567,458671
49,18,male,Belgium,1,11,guess,loss,5,right,14,guess_choice,855,j,0,0,199,333706,459532
49,18,male,Belgium,1,11,guess,loss,5,right,14,guess_outcome,0,undefined,0,0,184,332143,461095
49,18,male,Belgium,1,11,ITC,loss,5,right,14,ITC_start,404,space,0,0,184,331737,461501
49,18,male,Belgium,1,11,ITC,loss,5,right,14,ITC_choice,1241,j,0,0,184,330494,462744
49,18,male,Belgium,1,11,ITC,loss,5,right,14,ITC_wait,0,undefined,0,0,184,325476,467762
49,18,male,Belgium,1,11,ITC,loss,5,right,14,ITC_collect,815,k,0,0,184,324658,468580
49,18,male,Belgium,1,11,ITC,loss,5,right,14,ITC_outcome,0,undefined,0,0,204,323645,469593
49,18,male,Belgium,1,12,guess,win,5,left,12,guess_start,391,space,0,0,204,323251,469987
49,18,male,Belgium,1,12,guess,win,5,left,12,guess_choice,885,j,0,0,204,322362,470876
49,18,male,Belgium,1,12,guess,win,5,left,12,guess_outcome,0,undefined,0,0,224,320807,472431
49,18,male,Belgium,1,12,ITC,win,5,left,12,ITC_start,1052,space,0,0,224,319754,473484
49,18,male,Belgium,1,12,ITC,win,5,left,12,ITC_choice,1395,f,0,0,224,318358,474880
49,18,male,Belgium,1,12,ITC,win,5,left,12,ITC_wait,0,undefined,0,0,224,313344,479894
49,18,male,Belgium,1,12,ITC,win,5,left,12,ITC_collect,764,k,0,0,224,312578,480660
49,18,male,Belgium,1,12,ITC,win,5,left,12,ITC_outcome,0,undefined,0,0,244,311571,481667
49,18,male,Belgium,1,13,guess,win,5,left,9,guess_start,738,space,0,0,244,310831,482407
49,18,male,Belgium,1,13,guess,win,5,left,9,guess_choice,872,j,0,0,244,309956,483282
49,18,male,Belgium,1,13,guess,win,5,left,9,guess_outcome,0,undefined,0,0,264,308403,484835
49,18,male,Belgium,1,13,ITC,win,5,left,9,ITC_start,646,space,0,0,264,307755,485483
49,18,male,Belgium,1,13,ITC,win,5,left,9,ITC_choice,995,f,0,0,264,306757,486481
49,18,male,Belgium,1,13,ITC,win,5,left,9,ITC_wait,0,undefined,0,0,264,301751,491487
49,18,male,Belgium,1,13,ITC,win,5,left,9,ITC_collect,608,k,0,0,264,301141,492097
49,18,male,Belgium,1,13,ITC,win,5,left,9,ITC_outcome,0,undefined,0,0,284,300133,493105
49,18,male,Belgium,1,14,guess,loss,5,left,1,guess_start,370,space,0,0,284,299761,493477
49,18,male,Belgium,1,14,guess,loss,5,left,1,guess_choice,884,f,0,0,284,298872,494366
49,18,male,Belgium,1,14,guess,loss,5,left,1,guess_outcome,0,undefined,0,0,269,297309,495929
49,18,male,Belgium,1,14,ITC,loss,5,left,1,ITC_start,375,space,0,0,269,296932,496306
49,18,male,Belgium,1,14,ITC,loss,5,left,1,ITC_choice,899,f,0,0,269,296030,497208
49,18,male,Belgium,1,14,ITC,loss,5,left,1,ITC_wait,0,undefined,0,0,269,291016,502222
49,18,male,Belgium,1,14,ITC,loss,5,left,1,ITC_collect,917,k,0,0,269,290099,503139
49,18,male,Belgium,1,14,ITC,loss,5,left,1,ITC_outcome,0,undefined,0,0,289,289092,504146
49,18,male,Belgium,1,15,guess,loss,5,left,3,guess_start,508,space,0,0,289,288582,504656
49,18,male,Belgium,1,15,guess,loss,5,left,3,guess_choice,734,f,0,0,289,287843,505395
49,18,male,Belgium,1,15,guess,loss,5,left,3,guess_outcome,0,undefined,0,0,274,286274,506964
49,18,male,Belgium,1,15,ITC,loss,5,left,3,ITC_start,600,space,0,0,274,285672,507566
49,18,male,Belgium,1,15,ITC,loss,5,left,3,ITC_choice,886,f,0,0,274,284783,508455
49,18,male,Belgium,1,15,ITC,loss,5,left,3,ITC_wait,0,undefined,0,0,274,279769,513469
49,18,male,Belgium,1,15,ITC,loss,5,left,3,ITC_collect,844,k,0,0,274,278922,514316
49,18,male,Belgium,1,15,ITC,loss,5,left,3,ITC_outcome,0,undefined,0,0,294,277912,515326
49,18,male,Belgium,1,16,guess,neutral,5,left,4,guess_start,356,space,0,0,294,277554,515684
49,18,male,Belgium,1,16,guess,neutral,5,left,4,guess_choice,910,j,0,0,294,276639,516599
49,18,male,Belgium,1,16,guess,neutral,5,left,4,guess_outcome,0,undefined,0,0,294,275076,518162
49,18,male,Belgium,1,16,ITC,neutral,5,left,4,ITC_start,365,space,0,0,294,274711,518527
49,18,male,Belgium,1,16,ITC,neutral,5,left,4,ITC_choice,844,f,0,0,294,273866,519372
49,18,male,Belgium,1,16,ITC,neutral,5,left,4,ITC_wait,0,undefined,0,0,294,268851,524387
49,18,male,Belgium,1,16,ITC,neutral,5,left,4,ITC_collect,696,k,0,0,294,268152,525086
49,18,male,Belgium,1,16,ITC,neutral,5,left,4,ITC_outcome,0,undefined,0,0,314,267135,526103
49,18,male,Belgium,1,17,guess,neutral,5,left,5,guess_start,358,space,0,0,314,266772,526466
49,18,male,Belgium,1,17,guess,neutral,5,left,5,guess_choice,677,j,0,0,314,266090,527148
49,18,male,Belgium,1,17,guess,neutral,5,left,5,guess_outcome,0,undefined,0,0,314,264523,528715
49,18,male,Belgium,1,17,ITC,neutral,5,left,5,ITC_start,412,space,0,0,314,264108,529130
49,18,male,Belgium,1,17,ITC,neutral,5,left,5,ITC_choice,750,f,0,0,314,263356,529882
49,18,male,Belgium,1,17,ITC,neutral,5,left,5,ITC_wait,0,undefined,0,0,314,258353,534885
49,18,male,Belgium,1,17,ITC,neutral,5,left,5,ITC_collect,815,k,0,0,314,257535,535703
49,18,male,Belgium,1,17,ITC,neutral,5,left,5,ITC_outcome,0,undefined,0,0,334,256521,536717
49,18,male,Belgium,1,18,guess,neutral,10,left,3,guess_start,350,space,0,0,334,256168,537070
49,18,male,Belgium,1,18,guess,neutral,10,left,3,guess_choice,707,f,0,0,334,255457,537781
49,18,male,Belgium,1,18,guess,neutral,10,left,3,guess_outcome,0,undefined,0,0,334,253896,539342
49,18,male,Belgium,1,18,ITC,neutral,10,left,3,ITC_start,446,space,0,0,334,253449,539789
49,18,male,Belgium,1,18,ITC,neutral,10,left,3,ITC_choice,1133,f,0,0,334,252313,540925
49,18,male,Belgium,1,18,ITC,neutral,10,left,3,ITC_wait,0,undefined,0,0,334,242306,550932
49,18,male,Belgium,1,18,ITC,neutral,10,left,3,ITC_collect,553,k,0,0,334,241750,551488
49,18,male,Belgium,1,18,ITC,neutral,10,left,3,ITC_outcome,0,undefined,0,0,354,240747,552491
49,18,male,Belgium,1,19,guess,loss,10,left,3,guess_start,662,space,0,0,354,240084,553154
49,18,male,Belgium,1,19,guess,loss,10,left,3,guess_choice,789,j,0,0,354,239290,553948
49,18,male,Belgium,1,19,guess,loss,10,left,3,guess_outcome,0,undefined,0,0,339,237726,555512
49,18,male,Belgium,1,19,ITC,loss,10,left,3,ITC_start,646,space,0,0,339,237078,556160
49,18,male,Belgium,1,19,ITC,loss,10,left,3,ITC_choice,1380,f,0,0,339,235697,557541
49,18,male,Belgium,1,19,ITC,loss,10,left,3,ITC_wait,0,undefined,0,0,339,225691,567547
49,18,male,Belgium,1,19,ITC,loss,10,left,3,ITC_collect,568,k,0,0,339,225120,568118
49,18,male,Belgium,1,19,ITC,loss,10,left,3,ITC_outcome,0,undefined,0,0,359,224105,569133
49,18,male,Belgium,1,20,guess,loss,10,left,8,guess_start,525,space,0,0,359,223577,569661
49,18,male,Belgium,1,20,guess,loss,10,left,8,guess_choice,1039,j,0,0,359,222536,570702
49,18,male,Belgium,1,20,guess,loss,10,left,8,guess_outcome,0,undefined,0,0,344,220971,572267
49,18,male,Belgium,1,20,ITC,loss,10,left,8,ITC_start,454,space,0,0,344,220515,572723
49,18,male,Belgium,1,20,ITC,loss,10,left,8,ITC_choice,872,f,0,0,344,219640,573598
49,18,male,Belgium,1,20,ITC,loss,10,left,8,ITC_wait,0,undefined,0,0,344,209625,583613
49,18,male,Belgium,1,20,ITC,loss,10,left,8,ITC_collect,778,k,0,0,344,208845,584393
49,18,male,Belgium,1,20,ITC,loss,10,left,8,ITC_outcome,0,undefined,0,0,364,207834,585404
49,18,male,Belgium,1,21,guess,neutral,10,right,5,guess_start,394,space,0,0,364,207437,585801
49,18,male,Belgium,1,21,guess,neutral,10,right,5,guess_choice,842,f,0,0,364,206590,586648
49,18,male,Belgium,1,21,guess,neutral,10,right,5,guess_outcome,0,undefined,0,0,364,205027,588211
49,18,male,Belgium,1,21,ITC,neutral,10,right,5,ITC_start,471,space,0,0,364,204554,588684
49,18,male,Belgium,1,21,ITC,neutral,10,right,5,ITC_choice,997,j,0,0,364,203555,589683
49,18,male,Belgium,1,21,ITC,neutral,10,right,5,ITC_wait,0,undefined,0,0,364,193543,599695
49,18,male,Belgium,1,21,ITC,neutral,10,right,5,ITC_collect,862,k,0,0,364,192678,600560
49,18,male,Belgium,1,21,ITC,neutral,10,right,5,ITC_outcome,0,undefined,0,0,384,191666,601572
49,18,male,Belgium,1,22,guess,neutral,10,left,6,guess_start,351,space,0,0,384,191312,601926
49,18,male,Belgium,1,22,guess,neutral,10,left,6,guess_choice,651,j,0,0,384,190657,602581
49,18,male,Belgium,1,22,guess,neutral,10,left,6,guess_outcome,0,undefined,0,0,384,189090,604148
49,18,male,Belgium,1,22,ITC,neutral,10,left,6,ITC_start,468,space,0,0,384,188621,604617
49,18,male,Belgium,1,22,ITC,neutral,10,left,6,ITC_choice,848,f,0,0,384,187772,605466
49,18,male,Belgium,1,22,ITC,neutral,10,left,6,ITC_wait,0,undefined,0,0,384,177765,615473
49,18,male,Belgium,1,22,ITC,neutral,10,left,6,ITC_collect,907,k,0,0,384,176855,616383
49,18,male,Belgium,1,22,ITC,neutral,10,left,6,ITC_outcome,0,undefined,0,0,404,175853,617385
49,18,male,Belgium,1,23,guess,win,10,left,3,guess_start,349,space,0,0,404,175501,617737
49,18,male,Belgium,1,23,guess,win,10,left,3,guess_choice,870,j,0,0,404,174626,618612
49,18,male,Belgium,1,23,guess,win,10,left,3,guess_outcome,0,undefined,0,0,424,173058,620180
49,18,male,Belgium,1,23,ITC,win,10,left,3,ITC_start,1192,space,0,0,424,171866,621372
49,18,male,Belgium,1,23,ITC,win,10,left,3,ITC_choice,1187,f,0,0,424,170677,622561
49,18,male,Belgium,1,23,ITC,win,10,left,3,ITC_wait,0,undefined,0,0,424,160667,632571
49,18,male,Belgium,1,23,ITC,win,10,left,3,ITC_collect,688,k,0,0,424,159977,633261
49,18,male,Belgium,1,23,ITC,win,10,left,3,ITC_outcome,0,undefined,0,0,444,158961,634277
49,18,male,Belgium,1,24,guess,neutral,5,right,6,guess_start,376,space,0,0,444,158583,634655
49,18,male,Belgium,1,24,guess,neutral,5,right,6,guess_choice,624,j,0,0,444,157954,635284
49,18,male,Belgium,1,24,guess,neutral,5,right,6,guess_outcome,0,undefined,0,0,444,156388,636850
49,18,male,Belgium,1,24,ITC,neutral,5,right,6,ITC_start,741,space,0,0,444,155644,637594
49,18,male,Belgium,1,24,ITC,neutral,5,right,6,ITC_choice,1036,j,0,0,444,154607,638631
49,18,male,Belgium,1,24,ITC,neutral,5,right,6,ITC_wait,0,undefined,0,0,444,149598,643640
49,18,male,Belgium,1,24,ITC,neutral,5,right,6,ITC_collect,784,k,0,0,444,148813,644425
49,18,male,Belgium,1,24,ITC,neutral,5,right,6,ITC_outcome,0,undefined,0,0,464,147805,645433
49,18,male,Belgium,1,25,guess,win,5,left,2,guess_start,454,space,0,0,464,147349,645889
49,18,male,Belgium,1,25,guess,win,5,left,2,guess_choice,788,f,0,0,464,146559,646679
49,18,male,Belgium,1,25,guess,win,5,left,2,guess_outcome,0,undefined,0,0,484,145007,648231
49,18,male,Belgium,1,25,ITC,win,5,left,2,ITC_start,499,space,0,0,484,144507,648731
49,18,male,Belgium,1,25,ITC,win,5,left,2,ITC_choice,819,f,0,0,484,143687,649551
49,18,male,Belgium,1,25,ITC,win,5,left,2,ITC_wait,0,undefined,0,0,484,138676,654562
49,18,male,Belgium,1,25,ITC,win,5,left,2,ITC_collect,876,k,0,0,484,137797,655441
49,18,male,Belgium,1,25,ITC,win,5,left,2,ITC_outcome,0,undefined,0,0,504,136781,656457
49,18,male,Belgium,1,26,guess,neutral,5,right,15,guess_start,608,space,0,0,504,136172,657066
49,18,male,Belgium,1,26,guess,neutral,5,right,15,guess_choice,720,f,0,0,504,135448,657790
49,18,male,Belgium,1,26,guess,neutral,5,right,15,guess_outcome,0,undefined,0,0,504,133882,659356
49,18,male,Belgium,1,26,ITC,neutral,5,right,15,ITC_start,496,space,0,0,504,133384,659854
49,18,male,Belgium,1,26,ITC,neutral,5,right,15,ITC_choice,1173,j,0,0,504,132209,661029
49,18,male,Belgium,1,26,ITC,neutral,5,right,15,ITC_wait,0,undefined,0,0,504,127207,666031
49,18,male,Belgium,1,26,ITC,neutral,5,right,15,ITC_collect,776,k,0,0,504,126428,666810
49,18,male,Belgium,1,26,ITC,neutral,5,right,15,ITC_outcome,0,undefined,0,0,524,125417,667821
49,18,male,Belgium,1,27,guess,loss,5,right,15,guess_start,393,space,0,0,524,125021,668217
49,18,male,Belgium,1,27,guess,loss,5,right,15,guess_choice,734,f,0,0,524,124283,668955
49,18,male,Belgium,1,27,guess,loss,5,right,15,guess_outcome,0,undefined,0,0,509,122713,670525
49,18,male,Belgium,1,27,ITC,loss,5,right,15,ITC_start,806,space,0,0,509,121905,671333
49,18,male,Belgium,1,27,ITC,loss,5,right,15,ITC_choice,1503,f,0,0,509,120401,672837
49,18,male,Belgium,1,27,ITC,loss,5,right,15,ITC_wait,0,undefined,0,0,509,120400,672838
49,18,male,Belgium,1,27,ITC,loss,5,right,15,ITC_collect,1937,k,0,0,509,118462,674776
49,18,male,Belgium,1,27,ITC,loss,5,right,15,ITC_outcome,0,undefined,0,0,524,117448,675790
49,18,male,Belgium,1,28,guess,win,10,right,1,guess_start,350,space,0,0,524,117096,676142
49,18,male,Belgium,1,28,guess,win,10,right,1,guess_choice,712,j,0,0,524,116383,676855
49,18,male,Belgium,1,28,guess,win,10,right,1,guess_outcome,0,undefined,0,0,544,114826,678412
49,18,male,Belgium,1,28,ITC,win,10,right,1,ITC_start,447,space,0,0,544,114377,678861
49,18,male,Belgium,1,28,ITC,win,10,right,1,ITC_choice,943,j,0,0,544,113433,679805
49,18,male,Belgium,1,28,ITC,win,10,right,1,ITC_wait,0,undefined,0,0,544,103419,689819
49,18,male,Belgium,1,28,ITC,win,10,right,1,ITC_collect,711,k,0,0,544,102705,690533
49,18,male,Belgium,1,28,ITC,win,10,right,1,ITC_outcome,0,undefined,0,0,564,101686,691552
49,18,male,Belgium,1,29,guess,loss,5,right,9,guess_start,603,space,0,0,564,101081,692157
49,18,male,Belgium,1,29,guess,loss,5,right,9,guess_choice,670,f,0,0,564,100409,692829
49,18,male,Belgium,1,29,guess,loss,5,right,9,guess_outcome,0,undefined,0,0,549,98853,694385
49,18,male,Belgium,1,29,ITC,loss,5,right,9,ITC_start,559,space,0,0,549,98291,694947
49,18,male,Belgium,1,29,ITC,loss,5,right,9,ITC_choice,804,j,0,0,549,97485,695753
49,18,male,Belgium,1,29,ITC,loss,5,right,9,ITC_wait,0,undefined,0,0,549,92469,700769
49,18,male,Belgium,1,29,ITC,loss,5,right,9,ITC_collect,708,k,0,0,549,91758,701480
49,18,male,Belgium,1,29,ITC,loss,5,right,9,ITC_outcome,0,undefined,0,0,569,90741,702497
49,18,male,Belgium,1,30,guess,win,5,left,11,guess_start,484,space,0,0,569,90256,702982
49,18,male,Belgium,1,30,guess,win,5,left,11,guess_choice,652,f,0,0,569,89600,703638
49,18,male,Belgium,1,30,guess,win,5,left,11,guess_outcome,0,undefined,0,0,589,88043,705195
49,18,male,Belgium,1,30,ITC,win,5,left,11,ITC_start,394,space,0,0,589,87647,705591
49,18,male,Belgium,1,30,ITC,win,5,left,11,ITC_choice,982,f,0,0,589,86663,706575
49,18,male,Belgium,1,30,ITC,win,5,left,11,ITC_wait,0,undefined,0,0,589,81654,711584
49,18,male,Belgium,1,30,ITC,win,5,left,11,ITC_collect,837,k,0,0,589,80815,712423
49,18,male,Belgium,1,30,ITC,win,5,left,11,ITC_outcome,0,undefined,0,0,609,79800,713438
49,18,male,Belgium,1,31,guess,loss,10,right,4,guess_start,418,space,0,0,609,79378,713860
49,18,male,Belgium,1,31,guess,loss,10,right,4,guess_choice,695,j,0,0,609,78682,714556
49,18,male,Belgium,1,31,guess,loss,10,right,4,guess_outcome,0,undefined,0,0,594,77117,716121
49,18,male,Belgium,1,31,ITC,loss,10,right,4,ITC_start,456,space,0,0,594,76660,716578
49,18,male,Belgium,1,31,ITC,loss,10,right,4,ITC_choice,680,j,0,0,594,75977,717261
49,18,male,Belgium,1,31,ITC,loss,10,right,4,ITC_wait,0,undefined,0,0,594,65966,727272
49,18,male,Belgium,1,31,ITC,loss,10,right,4,ITC_collect,756,k,0,0,594,65207,728031
49,18,male,Belgium,1,31,ITC,loss,10,right,4,ITC_outcome,0,undefined,0,0,614,64202,729036
49,18,male,Belgium,1,32,guess,loss,10,left,2,guess_start,468,space,0,0,614,63732,729506
49,18,male,Belgium,1,32,guess,loss,10,left,2,guess_choice,609,f,0,0,614,63118,730120
49,18,male,Belgium,1,32,guess,loss,10,left,2,guess_outcome,0,undefined,0,0,599,61554,731684
49,18,male,Belgium,1,32,ITC,loss,10,left,2,ITC_start,581,space,0,0,599,60972,732266
49,18,male,Belgium,1,32,ITC,loss,10,left,2,ITC_choice,1092,f,0,0,599,59879,733359
49,18,male,Belgium,1,32,ITC,loss,10,left,2,ITC_wait,0,undefined,0,0,599,49875,743363
49,18,male,Belgium,1,32,ITC,loss,10,left,2,ITC_collect,872,k,0,0,599,49000,744238
49,18,male,Belgium,1,32,ITC,loss,10,left,2,ITC_outcome,0,undefined,0,0,619,47997,745241
49,18,male,Belgium,1,33,guess,neutral,10,right,1,guess_start,552,space,0,0,619,47443,745795
49,18,male,Belgium,1,33,guess,neutral,10,right,1,guess_choice,651,j,0,0,619,46787,746451
49,18,male,Belgium,1,33,guess,neutral,10,right,1,guess_outcome,0,undefined,0,0,619,45230,748008
49,18,male,Belgium,1,33,ITC,neutral,10,right,1,ITC_start,381,space,0,0,619,44847,748391
49,18,male,Belgium,1,33,ITC,neutral,10,right,1,ITC_choice,707,j,0,0,619,44138,749100
49,18,male,Belgium,1,33,ITC,neutral,10,right,1,ITC_wait,0,undefined,0,0,619,34129,759109
49,18,male,Belgium,1,33,ITC,neutral,10,right,1,ITC_collect,705,k,0,0,619,33423,759815
49,18,male,Belgium,1,33,ITC,neutral,10,right,1,ITC_outcome,0,undefined,0,0,639,32416,760822
49,18,male,Belgium,1,34,guess,neutral,5,right,11,guess_start,521,space,0,0,639,31892,761346
49,18,male,Belgium,1,34,guess,neutral,5,right,11,guess_choice,649,j,0,0,639,31236,762002
49,18,male,Belgium,1,34,guess,neutral,5,right,11,guess_outcome,0,undefined,0,0,639,29676,763562
49,18,male,Belgium,1,34,ITC,neutral,5,right,11,ITC_start,595,space,0,0,639,29078,764160
49,18,male,Belgium,1,34,ITC,neutral,5,right,11,ITC_choice,724,j,0,0,639,28353,764885
49,18,male,Belgium,1,34,ITC,neutral,5,right,11,ITC_wait,0,undefined,0,0,639,23337,769901
49,18,male,Belgium,1,34,ITC,neutral,5,right,11,ITC_collect,749,k,0,0,639,22585,770653
49,18,male,Belgium,1,34,ITC,neutral,5,right,11,ITC_outcome,0,undefined,0,0,659,21580,771658
49,18,male,Belgium,1,35,guess,win,5,left,15,guess_start,371,space,0,0,659,21206,772032
49,18,male,Belgium,1,35,guess,win,5,left,15,guess_choice,707,f,0,0,659,20493,772745
49,18,male,Belgium,1,35,guess,win,5,left,15,guess_outcome,0,undefined,0,0,679,18930,774308
49,18,male,Belgium,1,35,ITC,win,5,left,15,ITC_start,361,space,0,0,679,18567,774671
49,18,male,Belgium,1,35,ITC,win,5,left,15,ITC_choice,721,f,0,0,679,17844,775394
49,18,male,Belgium,1,35,ITC,win,5,left,15,ITC_wait,0,undefined,0,0,679,12832,780406
49,18,male,Belgium,1,35,ITC,win,5,left,15,ITC_collect,986,k,0,0,679,11845,781393
49,18,male,Belgium,1,35,ITC,win,5,left,15,ITC_outcome,0,undefined,0,0,699,10831,782407
49,18,male,Belgium,1,36,guess,loss,5,left,11,guess_start,420,space,0,0,699,10410,782828
49,18,male,Belgium,1,36,guess,loss,5,left,11,guess_choice,625,j,0,0,699,9780,783458
49,18,male,Belgium,1,36,guess,loss,5,left,11,guess_outcome,0,undefined,0,0,684,8220,785018
49,18,male,Belgium,1,36,ITC,loss,5,left,11,ITC_start,540,space,0,0,684,7678,785560
49,18,male,Belgium,1,36,ITC,loss,5,left,11,ITC_choice,807,f,0,0,684,6871,786367
49,18,male,Belgium,1,36,ITC,loss,5,left,11,ITC_wait,0,undefined,0,0,684,1862,791376
49,18,male,Belgium,1,36,ITC,loss,5,left,11,ITC_collect,633,k,0,0,684,1227,792011
49,18,male,Belgium,1,36,ITC,loss,5,left,11,ITC_outcome,0,undefined,0,0,704,215,793023
49,18,male,Belgium,1,37,guess,win,10,left,8,guess_start,0,undefined,0,0,704,-16,793254
49,18,male,Belgium,2,38,guess,win,5,right,8,guess_start,1271,space,0,0,0,478728,1614646
49,18,male,Belgium,2,38,guess,win,5,right,8,guess_choice,896,f,0,0,0,477827,1615547
49,18,male,Belgium,2,38,guess,win,5,right,8,guess_outcome,0,undefined,0,0,20,476266,1617108
49,18,male,Belgium,2,38,ITC,win,5,right,8,ITC_start,787,space,0,0,20,475476,1617898
49,18,male,Belgium,2,38,ITC,win,5,right,8,ITC_choice,803,j,0,0,20,474671,1618703
49,18,male,Belgium,2,38,ITC,win,5,right,8,ITC_wait,0,undefined,0,0,20,469656,1623718
49,18,male,Belgium,2,38,ITC,win,5,right,8,ITC_collect,819,k,0,0,20,468834,1624540
49,18,male,Belgium,2,38,ITC,win,5,right,8,ITC_outcome,0,undefined,0,0,40,467822,1625552
49,18,male,Belgium,2,39,guess,loss,5,right,7,guess_start,556,space,0,0,40,467264,1626110
49,18,male,Belgium,2,39,guess,loss,5,right,7,guess_choice,638,f,0,0,40,466621,1626753
49,18,male,Belgium,2,39,guess,loss,5,right,7,guess_outcome,0,undefined,0,0,25,465057,1628317
49,18,male,Belgium,2,39,ITC,loss,5,right,7,ITC_start,687,space,0,0,25,464367,1629007
49,18,male,Belgium,2,39,ITC,loss,5,right,7,ITC_choice,735,j,0,0,25,463629,1629745
49,18,male,Belgium,2,39,ITC,loss,5,right,7,ITC_wait,0,undefined,0,0,25,458612,1634762
49,18,male,Belgium,2,39,ITC,loss,5,right,7,ITC_collect,653,k,0,0,25,457958,1635416
49,18,male,Belgium,2,39,ITC,loss,5,right,7,ITC_outcome,0,undefined,0,0,45,456950,1636424
49,18,male,Belgium,2,40,guess,loss,5,right,5,guess_start,438,space,0,0,45,456509,1636865
49,18,male,Belgium,2,40,guess,loss,5,right,5,guess_choice,608,f,0,0,45,455896,1637478
49,18,male,Belgium,2,40,guess,loss,5,right,5,guess_outcome,0,undefined,0,0,30,454340,1639034
49,18,male,Belgium,2,40,ITC,loss,5,right,5,ITC_start,1095,space,0,0,30,453242,1640132
49,18,male,Belgium,2,40,ITC,loss,5,right,5,ITC_choice,668,j,0,0,30,452572,1640802
49,18,male,Belgium,2,40,ITC,loss,5,right,5,ITC_wait,0,undefined,0,0,30,447567,1645807
49,18,male,Belgium,2,40,ITC,loss,5,right,5,ITC_collect,784,k,0,0,30,446780,1646594
49,18,male,Belgium,2,40,ITC,loss,5,right,5,ITC_outcome,0,undefined,0,0,50,445777,1647597
49,18,male,Belgium,2,41,guess,win,5,right,16,guess_start,430,space,0,0,50,445344,1648030
49,18,male,Belgium,2,41,guess,win,5,right,16,guess_choice,378,f,0,0,50,444961,1648413
49,18,male,Belgium,2,41,guess,win,5,right,16,guess_outcome,0,undefined,0,0,70,443397,1649977
49,18,male,Belgium,2,41,ITC,win,5,right,16,ITC_start,1003,space,0,0,70,442393,1650981
49,18,male,Belgium,2,41,ITC,win,5,right,16,ITC_choice,1787,f,0,0,70,440601,1652773
49,18,male,Belgium,2,41,ITC,win,5,right,16,ITC_wait,0,undefined,0,0,70,440598,1652776
49,18,male,Belgium,2,41,ITC,win,5,right,16,ITC_collect,1319,k,0,0,70,439278,1654096
49,18,male,Belgium,2,41,ITC,win,5,right,16,ITC_outcome,0,undefined,0,0,86,438270,1655104
49,18,male,Belgium,2,42,guess,loss,5,left,10,guess_start,400,space,0,0,86,437869,1655505
49,18,male,Belgium,2,42,guess,loss,5,left,10,guess_choice,541,j,0,0,86,437323,1656051
49,18,male,Belgium,2,42,guess,loss,5,left,10,guess_outcome,0,undefined,0,0,71,435756,1657618
49,18,male,Belgium,2,42,ITC,loss,5,left,10,ITC_start,740,space,0,0,71,435013,1658361
49,18,male,Belgium,2,42,ITC,loss,5,left,10,ITC_choice,832,f,0,0,71,434179,1659195
49,18,male,Belgium,2,42,ITC,loss,5,left,10,ITC_wait,0,undefined,0,0,71,429172,1664202
49,18,male,Belgium,2,42,ITC,loss,5,left,10,ITC_collect,360,k,0,0,71,428809,1664565
49,18,male,Belgium,2,42,ITC,loss,5,left,10,ITC_outcome,0,undefined,0,0,91,427802,1665572
49,18,male,Belgium,2,43,guess,win,10,left,5,guess_start,370,space,0,0,91,427430,1665944
49,18,male,Belgium,2,43,guess,win,10,left,5,guess_choice,751,j,0,0,91,426677,1666697
49,18,male,Belgium,2,43,guess,win,10,left,5,guess_outcome,0,undefined,0,0,111,425117,1668257
49,18,male,Belgium,2,43,ITC,win,10,left,5,ITC_start,802,space,0,0,111,424313,1669061
49,18,male,Belgium,2,43,ITC,win,10,left,5,ITC_choice,695,f,0,0,111,423615,1669759
49,18,male,Belgium,2,43,ITC,win,10,left,5,ITC_wait,0,undefined,0,0,111,413612,1679762
49,18,male,Belgium,2,43,ITC,win,10,left,5,ITC_collect,667,k,0,0,111,412942,1680432
49,18,male,Belgium,2,43,ITC,win,10,left,5,ITC_outcome,0,undefined,0,0,131,411937,1681437
49,18,male,Belgium,2,44,guess,win,5,left,6,guess_start,427,space,0,0,131,411508,1681866
49,18,male,Belgium,2,44,guess,win,5,left,6,guess_choice,540,f,0,0,131,410963,1682411
49,18,male,Belgium,2,44,guess,win,5,left,6,guess_outcome,0,undefined,0,0,151,409396,1683978
49,18,male,Belgium,2,44,ITC,win,5,left,6,ITC_start,646,space,0,0,151,408748,1684626
49,18,male,Belgium,2,44,ITC,win,5,left,6,ITC_choice,776,f,0,0,151,407969,1685405
49,18,male,Belgium,2,44,ITC,win,5,left,6,ITC_wait,0,undefined,0,0,151,402953,1690421
49,18,male,Belgium,2,44,ITC,win,5,left,6,ITC_collect,653,k,0,0,151,402297,1691077
49,18,male,Belgium,2,44,ITC,win,5,left,6,ITC_outcome,0,undefined,0,0,171,401285,1692089
49,18,male,Belgium,2,45,guess,neutral,5,right,9,guess_start,392,space,0,0,171,400891,1692483
49,18,male,Belgium,2,45,guess,neutral,5,right,9,guess_choice,1120,j,0,0,171,399769,1693605
49,18,male,Belgium,2,45,guess,neutral,5,right,9,guess_outcome,0,undefined,0,0,171,398211,1695163
49,18,male,Belgium,2,45,ITC,neutral,5,right,9,ITC_start,735,space,0,0,171,397473,1695901
49,18,male,Belgium,2,45,ITC,neutral,5,right,9,ITC_choice,885,j,0,0,171,396586,1696788
49,18,male,Belgium,2,45,ITC,neutral,5,right,9,ITC_wait,0,undefined,0,0,171,391580,1701794
49,18,male,Belgium,2,45,ITC,neutral,5,right,9,ITC_collect,994,k,0,0,171,390585,1702789
49,18,male,Belgium,2,45,ITC,neutral,5,right,9,ITC_outcome,0,undefined,0,0,191,389575,1703799
49,18,male,Belgium,2,46,guess,neutral,10,right,2,guess_start,503,space,0,0,191,389069,1704305
49,18,male,Belgium,2,46,guess,neutral,10,right,2,guess_choice,774,j,0,0,191,388291,1705083
49,18,male,Belgium,2,46,guess,neutral,10,right,2,guess_outcome,0,undefined,0,0,191,386729,1706645
49,18,male,Belgium,2,46,ITC,neutral,10,right,2,ITC_start,774,space,0,0,191,385953,1707421
49,18,male,Belgium,2,46,ITC,neutral,10,right,2,ITC_choice,749,j,0,0,191,385202,1708172
49,18,male,Belgium,2,46,ITC,neutral,10,right,2,ITC_wait,0,undefined,0,0,191,375194,1718180
49,18,male,Belgium,2,46,ITC,neutral,10,right,2,ITC_collect,772,k,0,0,191,374420,1718954
49,18,male,Belgium,2,46,ITC,neutral,10,right,2,ITC_outcome,0,undefined,0,0,211,373410,1719964
49,18,male,Belgium,2,47,guess,loss,10,right,7,guess_start,505,space,0,0,211,372903,1720471
49,18,male,Belgium,2,47,guess,loss,10,right,7,guess_choice,583,f,0,0,211,372316,1721058
49,18,male,Belgium,2,47,guess,loss,10,right,7,guess_outcome,0,undefined,0,0,196,370752,1722622
49,18,male,Belgium,2,47,ITC,loss,10,right,7,ITC_start,703,space,0,0,196,370047,1723327
49,18,male,Belgium,2,47,ITC,loss,10,right,7,ITC_choice,722,j,0,0,196,369322,1724052
49,18,male,Belgium,2,47,ITC,loss,10,right,7,ITC_wait,0,undefined,0,0,196,359311,1734063
49,18,male,Belgium,2,47,ITC,loss,10,right,7,ITC_collect,849,k,0,0,196,358459,1734915
49,18,male,Belgium,2,47,ITC,loss,10,right,7,ITC_outcome,0,undefined,0,0,216,357454,1735920
49,18,male,Belgium,2,48,guess,loss,5,right,4,guess_start,633,space,0,0,216,356819,1736555
49,18,male,Belgium,2,48,guess,loss,5,right,4,guess_choice,351,j,0,0,216,356463,1736911
49,18,male,Belgium,2,48,guess,loss,5,right,4,guess_outcome,0,undefined,0,0,201,354908,1738466
49,18,male,Belgium,2,48,ITC,loss,5,right,4,ITC_start,630,space,0,0,201,354277,1739097
49,18,male,Belgium,2,48,ITC,loss,5,right,4,ITC_choice,1049,j,0,0,201,353225,1740149
49,18,male,Belgium,2,48,ITC,loss,5,right,4,ITC_wait,0,undefined,0,0,201,348220,1745154
49,18,male,Belgium,2,48,ITC,loss,5,right,4,ITC_collect,733,k,0,0,201,347485,1745889
49,18,male,Belgium,2,48,ITC,loss,5,right,4,ITC_outcome,0,undefined,0,0,221,346472,1746902
49,18,male,Belgium,2,49,guess,win,5,left,13,guess_start,487,space,0,0,221,345982,1747392
49,18,male,Belgium,2,49,guess,win,5,left,13,guess_choice,418,f,0,0,221,345558,1747816
49,18,male,Belgium,2,49,guess,win,5,left,13,guess_outcome,0,undefined,0,0,241,343996,1749378
49,18,male,Belgium,2,49,ITC,win,5,left,13,ITC_start,594,space,0,0,241,343399,1749975
49,18,male,Belgium,2,49,ITC,win,5,left,13,ITC_choice,831,f,0,0,241,342566,1750808
49,18,male,Belgium,2,49,ITC,win,5,left,13,ITC_wait,0,undefined,0,0,241,337559,1755815
49,18,male,Belgium,2,49,ITC,win,5,left,13,ITC_collect,704,k,0,0,241,336852,1756522
49,18,male,Belgium,2,49,ITC,win,5,left,13,ITC_outcome,0,undefined,0,0,261,335845,1757529
49,18,male,Belgium,2,50,guess,loss,5,left,2,guess_start,464,space,0,0,261,335378,1757996
49,18,male,Belgium,2,50,guess,loss,5,left,2,guess_choice,501,j,0,0,261,334872,1758502
49,18,male,Belgium,2,50,guess,loss,5,left,2,guess_outcome,0,undefined,0,0,246,333316,1760058
49,18,male,Belgium,2,50,ITC,loss,5,left,2,ITC_start,561,space,0,0,246,332754,1760620
49,18,male,Belgium,2,50,ITC,loss,5,left,2,ITC_choice,762,f,0,0,246,331989,1761385
49,18,male,Belgium,2,50,ITC,loss,5,left,2,ITC_wait,0,undefined,0,0,246,326979,1766395
49,18,male,Belgium,2,50,ITC,loss,5,left,2,ITC_collect,508,k,0,0,246,326469,1766905
49,18,male,Belgium,2,50,ITC,loss,5,left,2,ITC_outcome,0,undefined,0,0,266,325465,1767909
49,18,male,Belgium,2,51,guess,loss,10,right,1,guess_start,432,space,0,0,266,325032,1768342
49,18,male,Belgium,2,51,guess,loss,10,right,1,guess_choice,530,j,0,0,266,324500,1768874
49,18,male,Belgium,2,51,guess,loss,10,right,1,guess_outcome,0,undefined,0,0,251,322940,1770434
49,18,male,Belgium,2,51,ITC,loss,10,right,1,ITC_start,447,space,0,0,251,322491,1770883
49,18,male,Belgium,2,51,ITC,loss,10,right,1,ITC_choice,818,j,0,0,251,321671,1771703
49,18,male,Belgium,2,51,ITC,loss,10,right,1,ITC_wait,0,undefined,0,0,251,311655,1781719
49,18,male,Belgium,2,51,ITC,loss,10,right,1,ITC_collect,845,k,0,0,251,310807,1782567
49,18,male,Belgium,2,51,ITC,loss,10,right,1,ITC_outcome,0,undefined,0,0,271,309798,1783576
49,18,male,Belgium,2,52,guess,win,5,left,5,guess_start,368,space,0,0,271,309427,1783947
49,18,male,Belgium,2,52,guess,win,5,left,5,guess_choice,679,f,0,0,271,308743,1784631
49,18,male,Belgium,2,52,guess,win,5,left,5,guess_outcome,0,undefined,0,0,291,307177,1786197
49,18,male,Belgium,2,52,ITC,win,5,left,5,ITC_start,511,space,0,0,291,306664,1786710
49,18,male,Belgium,2,52,ITC,win,5,left,5,ITC_choice,721,f,0,0,291,305942,1787432
49,18,male,Belgium,2,52,ITC,win,5,left,5,ITC_wait,0,undefined,0,0,291,300937,1792437
49,18,male,Belgium,2,52,ITC,win,5,left,5,ITC_collect,636,k,0,0,291,300298,1793076
49,18,male,Belgium,2,52,ITC,win,5,left,5,ITC_outcome,0,undefined,0,0,311,299284,1794090
49,18,male,Belgium,2,53,guess,neutral,5,right,10,guess_start,390,space,0,0,311,298892,1794482
49,18,male,Belgium,2,53,guess,neutral,5,right,10,guess_choice,327,j,0,0,311,298563,1794811
49,18,male,Belgium,2,53,guess,neutral,5,right,10,guess_outcome,0,undefined,0,0,311,297002,1796372
49,18,male,Belgium,2,53,ITC,neutral,5,right,10,ITC_start,582,space,0,0,311,296417,1796957
49,18,male,Belgium,2,53,ITC,neutral,5,right,10,ITC_choice,1228,f,0,0,311,295187,1798187
49,18,male,Belgium,2,53,ITC,neutral,5,right,10,ITC_wait,0,undefined,0,0,311,295183,1798191
49,18,male,Belgium,2,53,ITC,neutral,5,right,10,ITC_collect,760,k,0,0,311,294422,1798952
49,18,male,Belgium,2,53,ITC,neutral,5,right,10,ITC_outcome,0,undefined,0,0,321,293412,1799962
49,18,male,Belgium,2,54,guess,loss,10,left,5,guess_start,382,space,0,0,321,293028,1800346
49,18,male,Belgium,2,54,guess,loss,10,left,5,guess_choice,542,j,0,0,321,292481,1800893
49,18,male,Belgium,2,54,guess,loss,10,left,5,guess_outcome,0,undefined,0,0,306,290920,1802454
49,18,male,Belgium,2,54,ITC,loss,10,left,5,ITC_start,679,space,0,0,306,290239,1803135
49,18,male,Belgium,2,54,ITC,loss,10,left,5,ITC_choice,761,f,0,0,306,289475,1803899
49,18,male,Belgium,2,54,ITC,loss,10,left,5,ITC_wait,0,undefined,0,0,306,279472,1813902
49,18,male,Belgium,2,54,ITC,loss,10,left,5,ITC_collect,407,k,0,0,306,279062,1814312
49,18,male,Belgium,2,54,ITC,loss,10,left,5,ITC_outcome,0,undefined,0,0,326,278052,1815322
49,18,male,Belgium,2,55,guess,win,5,right,3,guess_start,355,space,0,0,326,277695,1815679
49,18,male,Belgium,2,55,guess,win,5,right,3,guess_choice,407,j,0,0,326,277285,1816089
49,18,male,Belgium,2,55,guess,win,5,right,3,guess_outcome,0,undefined,0,0,346,275715,1817659
49,18,male,Belgium,2,55,ITC,win,5,right,3,ITC_start,519,space,0,0,346,275195,1818179
49,18,male,Belgium,2,55,ITC,win,5,right,3,ITC_choice,669,j,0,0,346,274524,1818850
49,18,male,Belgium,2,55,ITC,win,5,right,3,ITC_wait,0,undefined,0,0,346,269514,1823860
49,18,male,Belgium,2,55,ITC,win,5,right,3,ITC_collect,617,k,0,0,346,268895,1824479
49,18,male,Belgium,2,55,ITC,win,5,right,3,ITC_outcome,0,undefined,0,0,366,267882,1825492
49,18,male,Belgium,2,56,guess,neutral,5,right,16,guess_start,487,space,0,0,366,267392,1825982
49,18,male,Belgium,2,56,guess,neutral,5,right,16,guess_choice,404,f,0,0,366,266982,1826392
49,18,male,Belgium,2,56,guess,neutral,5,right,16,guess_outcome,0,undefined,0,0,366,265413,1827961
49,18,male,Belgium,2,56,ITC,neutral,5,right,16,ITC_start,656,space,0,0,366,264754,1828620
49,18,male,Belgium,2,56,ITC,neutral,5,right,16,ITC_choice,777,j,0,0,366,263975,1829399
49,18,male,Belgium,2,56,ITC,neutral,5,right,16,ITC_wait,0,undefined,0,0,366,258971,1834403
49,18,male,Belgium,2,56,ITC,neutral,5,right,16,ITC_collect,789,k,0,0,366,258180,1835194
49,18,male,Belgium,2,56,ITC,neutral,5,right,16,ITC_outcome,0,undefined,0,0,386,257165,1836209
49,18,male,Belgium,2,57,guess,win,5,right,10,guess_start,346,space,0,0,386,256816,1836558
49,18,male,Belgium,2,57,guess,win,5,right,10,guess_choice,546,j,0,0,386,256268,1837106
49,18,male,Belgium,2,57,guess,win,5,right,10,guess_outcome,0,undefined,0,0,406,254707,1838667
49,18,male,Belgium,2,57,ITC,win,5,right,10,ITC_start,569,space,0,0,406,254136,1839238
49,18,male,Belgium,2,57,ITC,win,5,right,10,ITC_choice,654,j,0,0,406,253480,1839894
49,18,male,Belgium,2,57,ITC,win,5,right,10,ITC_wait,0,undefined,0,0,406,248470,1844904
49,18,male,Belgium,2,57,ITC,win,5,right,10,ITC_collect,590,k,0,0,406,247877,1845497
49,18,male,Belgium,2,57,ITC,win,5,right,10,ITC_outcome,0,undefined,0,0,426,246872,1846502
49,18,male,Belgium,2,58,guess,win,10,right,2,guess_start,481,space,0,0,426,246388,1846986
49,18,male,Belgium,2,58,guess,win,10,right,2,guess_choice,583,f,0,0,426,245800,1847574
49,18,male,Belgium,2,58,guess,win,10,right,2,guess_outcome,0,undefined,0,0,446,244232,1849142
49,18,male,Belgium,2,58,ITC,win,10,right,2,ITC_start,492,space,0,0,446,243737,1849637
49,18,male,Belgium,2,58,ITC,win,10,right,2,ITC_choice,571,j,0,0,446,243164,1850210
49,18,male,Belgium,2,58,ITC,win,10,right,2,ITC_wait,0,undefined,0,0,446,233148,1860226
49,18,male,Belgium,2,58,ITC,win,10,right,2,ITC_collect,395,k,0,0,446,232750,1860624
49,18,male,Belgium,2,58,ITC,win,10,right,2,ITC_outcome,0,undefined,0,0,466,231738,1861636
49,18,male,Belgium,2,59,guess,win,5,left,4,guess_start,364,space,0,0,466,231370,1862004
49,18,male,Belgium,2,59,guess,win,5,left,4,guess_choice,556,f,0,0,466,230810,1862564
49,18,male,Belgium,2,59,guess,win,5,left,4,guess_outcome,0,undefined,0,0,486,229240,1864134
49,18,male,Belgium,2,59,ITC,win,5,left,4,ITC_start,396,space,0,0,486,228842,1864532
49,18,male,Belgium,2,59,ITC,win,5,left,4,ITC_choice,1104,f,0,0,486,227735,1865639
49,18,male,Belgium,2,59,ITC,win,5,left,4,ITC_wait,0,undefined,0,0,486,222732,1870642
49,18,male,Belgium,2,59,ITC,win,5,left,4,ITC_collect,748,k,0,0,486,221981,1871393
49,18,male,Belgium,2,59,ITC,win,5,left,4,ITC_outcome,0,undefined,0,0,506,220975,1872399
49,18,male,Belgium,2,60,guess,win,5,right,7,guess_start,685,space,0,0,506,220288,1873086
49,18,male,Belgium,2,60,guess,win,5,right,7,guess_choice,638,j,0,0,506,219645,1873729
49,18,male,Belgium,2,60,guess,win,5,right,7,guess_outcome,0,undefined,0,0,526,218089,1875285
49,18,male,Belgium,2,60,ITC,win,5,right,7,ITC_start,423,space,0,0,526,217664,1875710
49,18,male,Belgium,2,60,ITC,win,5,right,7,ITC_choice,1064,j,0,0,526,216598,1876776
49,18,male,Belgium,2,60,ITC,win,5,right,7,ITC_wait,0,undefined,0,0,526,211587,1881787
49,18,male,Belgium,2,60,ITC,win,5,right,7,ITC_collect,521,k,0,0,526,211063,1882311
49,18,male,Belgium,2,60,ITC,win,5,right,7,ITC_outcome,0,undefined,0,0,546,210055,1883319
49,18,male,Belgium,2,61,guess,neutral,5,right,12,guess_start,370,space,0,0,546,209683,1883691
49,18,male,Belgium,2,61,guess,neutral,5,right,12,guess_choice,515,f,0,0,546,209164,1884210
49,18,male,Belgium,2,61,guess,neutral,5,right,12,guess_outcome,0,undefined,0,0,546,207596,1885778
49,18,male,Belgium,2,61,ITC,neutral,5,right,12,ITC_start,727,space,0,0,546,206867,1886507
49,18,male,Belgium,2,61,ITC,neutral,5,right,12,ITC_choice,954,j,0,0,546,205912,1887462
49,18,male,Belgium,2,61,ITC,neutral,5,right,12,ITC_wait,0,undefined,0,0,546,200908,1892466
49,18,male,Belgium,2,61,ITC,neutral,5,right,12,ITC_collect,760,k,0,0,546,200145,1893229
49,18,male,Belgium,2,61,ITC,neutral,5,right,12,ITC_outcome,0,undefined,0,0,566,199135,1894239
49,18,male,Belgium,2,62,guess,loss,5,left,13,guess_start,422,space,0,0,566,198710,1894664
49,18,male,Belgium,2,62,guess,loss,5,left,13,guess_choice,624,f,0,0,566,198081,1895293
49,18,male,Belgium,2,62,guess,loss,5,left,13,guess_outcome,0,undefined,0,0,551,196518,1896856
49,18,male,Belgium,2,62,ITC,loss,5,left,13,ITC_start,443,space,0,0,551,196073,1897301
49,18,male,Belgium,2,62,ITC,loss,5,left,13,ITC_choice,668,f,0,0,551,195402,1897972
49,18,male,Belgium,2,62,ITC,loss,5,left,13,ITC_wait,0,undefined,0,0,551,190395,1902979
49,18,male,Belgium,2,62,ITC,loss,5,left,13,ITC_collect,742,k,0,0,551,189649,1903725
49,18,male,Belgium,2,62,ITC,loss,5,left,13,ITC_outcome,0,undefined,0,0,571,188637,1904737
49,18,male,Belgium,2,63,guess,loss,5,right,8,guess_start,351,space,0,0,571,188284,1905090
49,18,male,Belgium,2,63,guess,loss,5,right,8,guess_choice,628,j,0,0,571,187655,1905719
49,18,male,Belgium,2,63,guess,loss,5,right,8,guess_outcome,0,undefined,0,0,556,186085,1907289
49,18,male,Belgium,2,63,ITC,loss,5,right,8,ITC_start,479,space,0,0,556,185604,1907770
49,18,male,Belgium,2,63,ITC,loss,5,right,8,ITC_choice,655,j,0,0,556,184948,1908426
49,18,male,Belgium,2,63,ITC,loss,5,right,8,ITC_wait,0,undefined,0,0,556,179945,1913429
49,18,male,Belgium,2,63,ITC,loss,5,right,8,ITC_collect,747,k,0,0,556,179195,1914179
49,18,male,Belgium,2,63,ITC,loss,5,right,8,ITC_outcome,0,undefined,0,0,576,178176,1915198
49,18,male,Belgium,2,64,guess,win,10,left,7,guess_start,1014,space,0,0,576,177160,1916214
49,18,male,Belgium,2,64,guess,win,10,left,7,guess_choice,556,f,0,0,576,176599,1916775
49,18,male,Belgium,2,64,guess,win,10,left,7,guess_outcome,0,undefined,0,0,596,175037,1918337
49,18,male,Belgium,2,64,ITC,win,10,left,7,ITC_start,745,space,0,0,596,174291,1919083
49,18,male,Belgium,2,64,ITC,win,10,left,7,ITC_choice,737,f,0,0,596,173552,1919822
49,18,male,Belgium,2,64,ITC,win,10,left,7,ITC_wait,0,undefined,0,0,596,163541,1929833
49,18,male,Belgium,2,64,ITC,win,10,left,7,ITC_collect,742,k,0,0,596,162796,1930578
49,18,male,Belgium,2,64,ITC,win,10,left,7,ITC_outcome,0,undefined,0,0,616,161785,1931589
49,18,male,Belgium,2,65,guess,loss,5,right,6,guess_start,462,space,0,0,616,161321,1932053
49,18,male,Belgium,2,65,guess,loss,5,right,6,guess_choice,488,j,0,0,616,160828,1932546
49,18,male,Belgium,2,65,guess,loss,5,right,6,guess_outcome,0,undefined,0,0,601,159258,1934116
49,18,male,Belgium,2,65,ITC,loss,5,right,6,ITC_start,559,space,0,0,601,158698,1934676
49,18,male,Belgium,2,65,ITC,loss,5,right,6,ITC_choice,709,j,0,0,601,157986,1935388
49,18,male,Belgium,2,65,ITC,loss,5,right,6,ITC_wait,0,undefined,0,0,601,152975,1940399
49,18,male,Belgium,2,65,ITC,loss,5,right,6,ITC_collect,602,k,0,0,601,152370,1941004
49,18,male,Belgium,2,65,ITC,loss,5,right,6,ITC_outcome,0,undefined,0,0,621,151351,1942023
49,18,male,Belgium,2,66,guess,loss,5,right,12,guess_start,385,space,0,0,621,150963,1942411
49,18,male,Belgium,2,66,guess,loss,5,right,12,guess_choice,473,f,0,0,621,150485,1942889
49,18,male,Belgium,2,66,guess,loss,5,right,12,guess_outcome,0,undefined,0,0,606,148925,1944449
49,18,male,Belgium,2,66,ITC,loss,5,right,12,ITC_start,488,space,0,0,606,148435,1944939
49,18,male,Belgium,2,66,ITC,loss,5,right,12,ITC_choice,845,j,0,0,606,147587,1945787
49,18,male,Belgium,2,66,ITC,loss,5,right,12,ITC_wait,0,undefined,0,0,606,142577,1950797
49,18,male,Belgium,2,66,ITC,loss,5,right,12,ITC_collect,824,k,0,0,606,141751,1951623
49,18,male,Belgium,2,66,ITC,loss,5,right,12,ITC_outcome,0,undefined,0,0,626,140742,1952632
49,18,male,Belgium,2,67,guess,neutral,5,right,2,guess_start,409,space,0,0,626,140331,1953043
49,18,male,Belgium,2,67,guess,neutral,5,right,2,guess_choice,488,f,0,0,626,139838,1953536
49,18,male,Belgium,2,67,guess,neutral,5,right,2,guess_outcome,0,undefined,0,0,626,138273,1955101
49,18,male,Belgium,2,67,ITC,neutral,5,right,2,ITC_start,386,space,0,0,626,137884,1955490
49,18,male,Belgium,2,67,ITC,neutral,5,right,2,ITC_choice,598,j,0,0,626,137284,1956090
49,18,male,Belgium,2,67,ITC,neutral,5,right,2,ITC_wait,0,undefined,0,0,626,132277,1961097
49,18,male,Belgium,2,67,ITC,neutral,5,right,2,ITC_collect,1031,k,0,0,626,131243,1962131
49,18,male,Belgium,2,67,ITC,neutral,5,right,2,ITC_outcome,0,undefined,0,0,646,130225,1963149
49,18,male,Belgium,2,68,guess,win,10,left,6,guess_start,483,space,0,0,646,129740,1963634
49,18,male,Belgium,2,68,guess,win,10,left,6,guess_choice,474,j,0,0,646,129262,1964112
49,18,male,Belgium,2,68,guess,win,10,left,6,guess_outcome,0,undefined,0,0,666,127704,1965670
49,18,male,Belgium,2,68,ITC,win,10,left,6,ITC_start,394,space,0,0,666,127308,1966066
49,18,male,Belgium,2,68,ITC,win,10,left,6,ITC_choice,628,f,0,0,666,126677,1966697
49,18,male,Belgium,2,68,ITC,win,10,left,6,ITC_wait,0,undefined,0,0,666,116672,1976702
49,18,male,Belgium,2,68,ITC,win,10,left,6,ITC_collect,513,k,0,0,666,116156,1977218
49,18,male,Belgium,2,68,ITC,win,10,left,6,ITC_outcome,0,undefined,0,0,686,115150,1978224
49,18,male,Belgium,2,69,guess,neutral,5,left,3,guess_start,382,space,0,0,686,114763,1978611
49,18,male,Belgium,2,69,guess,neutral,5,left,3,guess_choice,624,f,0,0,686,114134,1979240
49,18,male,Belgium,2,69,guess,neutral,5,left,3,guess_outcome,0,undefined,0,0,686,112567,1980807
49,18,male,Belgium,2,69,ITC,neutral,5,left,3,ITC_start,438,space,0,0,686,112127,1981247
49,18,male,Belgium,2,69,ITC,neutral,5,left,3,ITC_choice,793,f,0,0,686,111333,1982041
49,18,male,Belgium,2,69,ITC,neutral,5,left,3,ITC_wait,0,undefined,0,0,686,106330,1987044
49,18,male,Belgium,2,69,ITC,neutral,5,left,3,ITC_collect,791,k,0,0,686,105538,1987836
49,18,male,Belgium,2,69,ITC,neutral,5,left,3,ITC_outcome,0,undefined,0,0,706,104531,1988843
49,18,male,Belgium,2,70,guess,neutral,5,right,14,guess_start,522,space,0,0,706,104007,1989367
49,18,male,Belgium,2,70,guess,neutral,5,right,14,guess_choice,608,f,0,0,706,103394,1989980
49,18,male,Belgium,2,70,guess,neutral,5,right,14,guess_outcome,0,undefined,0,0,706,101828,1991546
49,18,male,Belgium,2,70,ITC,neutral,5,right,14,ITC_start,441,space,0,0,706,101385,1991989
49,18,male,Belgium,2,70,ITC,neutral,5,right,14,ITC_choice,627,j,0,0,706,100756,1992618
49,18,male,Belgium,2,70,ITC,neutral,5,right,14,ITC_wait,0,undefined,0,0,706,95751,1997623
49,18,male,Belgium,2,70,ITC,neutral,5,right,14,ITC_collect,855,k,0,0,706,94893,1998481
49,18,male,Belgium,2,70,ITC,neutral,5,right,14,ITC_outcome,0,undefined,0,0,726,93877,1999497
49,18,male,Belgium,2,71,guess,win,5,right,1,guess_start,362,space,0,0,726,93512,1999862
49,18,male,Belgium,2,71,guess,win,5,right,1,guess_choice,569,f,0,0,726,92938,2000436
49,18,male,Belgium,2,71,guess,win,5,right,1,guess_outcome,0,undefined,0,0,746,91369,2002005
49,18,male,Belgium,2,71,ITC,win,5,right,1,ITC_start,1009,space,0,0,746,90357,2003017
49,18,male,Belgium,2,71,ITC,win,5,right,1,ITC_choice,709,j,0,0,746,89645,2003729
49,18,male,Belgium,2,71,ITC,win,5,right,1,ITC_wait,0,undefined,0,0,746,84634,2008740
49,18,male,Belgium,2,71,ITC,win,5,right,1,ITC_collect,753,k,0,0,746,83879,2009495
49,18,male,Belgium,2,71,ITC,win,5,right,1,ITC_outcome,0,undefined,0,0,766,82872,2010502
49,18,male,Belgium,2,72,guess,neutral,5,left,7,guess_start,1176,space,0,0,766,81693,2011681
49,18,male,Belgium,2,72,guess,neutral,5,left,7,guess_choice,447,j,0,0,766,81241,2012133
49,18,male,Belgium,2,72,guess,neutral,5,left,7,guess_outcome,0,undefined,0,0,766,79680,2013694
49,18,male,Belgium,2,72,ITC,neutral,5,left,7,ITC_start,567,space,0,0,766,79112,2014262
49,18,male,Belgium,2,72,ITC,neutral,5,left,7,ITC_choice,671,f,0,0,766,78440,2014934
49,18,male,Belgium,2,72,ITC,neutral,5,left,7,ITC_wait,0,undefined,0,0,766,73428,2019946
49,18,male,Belgium,2,72,ITC,neutral,5,left,7,ITC_collect,847,k,0,0,766,72578,2020796
49,18,male,Belgium,2,72,ITC,neutral,5,left,7,ITC_outcome,0,undefined,0,0,786,71561,2021813
49,18,male,Belgium,2,73,guess,win,5,left,16,guess_start,689,space,0,0,786,70869,2022505
49,18,male,Belgium,2,73,guess,win,5,left,16,guess_choice,461,f,0,0,786,70404,2022970
49,18,male,Belgium,2,73,guess,win,5,left,16,guess_outcome,0,undefined,0,0,806,68848,2024526
49,18,male,Belgium,2,73,ITC,win,5,left,16,ITC_start,943,space,0,0,806,67903,2025471
49,18,male,Belgium,2,73,ITC,win,5,left,16,ITC_choice,789,f,0,0,806,67112,2026262
49,18,male,Belgium,2,73,ITC,win,5,left,16,ITC_wait,0,undefined,0,0,806,62099,2031275
49,18,male,Belgium,2,73,ITC,win,5,left,16,ITC_collect,944,k,0,0,806,61153,2032221
49,18,male,Belgium,2,73,ITC,win,5,left,16,ITC_outcome,0,undefined,0,0,826,60135,2033239
49,18,male,Belgium,2,74,guess,neutral,5,right,10,guess_start,468,space,0,0,826,59664,2033710
49,18,male,Belgium,2,74,guess,neutral,5,right,10,guess_choice,625,f,0,0,826,59035,2034339
49,18,male,Belgium,2,74,guess,neutral,5,right,10,guess_outcome,0,undefined,0,0,826,57472,2035902
49,18,male,Belgium,2,74,ITC,neutral,5,right,10,ITC_start,773,space,0,0,826,56698,2036676
49,18,male,Belgium,2,74,ITC,neutral,5,right,10,ITC_choice,790,j,0,0,826,55906,2037468
49,18,male,Belgium,2,74,ITC,neutral,5,right,10,ITC_wait,0,undefined,0,0,826,50888,2042486
49,18,male,Belgium,2,74,ITC,neutral,5,right,10,ITC_collect,816,k,0,0,826,50070,2043304
49,18,male,Belgium,2,74,ITC,neutral,5,right,10,ITC_outcome,0,undefined,0,0,846,49054,2044320
49,18,male,Belgium,2,75,guess,loss,5,left,10,guess_start,402,space,0,0,846,48650,2044724
49,18,male,Belgium,2,75,guess,loss,5,left,10,guess_choice,518,j,0,0,846,48130,2045244
49,18,male,Belgium,2,75,guess,loss,5,left,10,guess_outcome,0,undefined,0,0,831,46575,2046799
49,18,male,Belgium,2,75,ITC,loss,5,left,10,ITC_start,575,space,0,0,831,45998,2047376
49,18,male,Belgium,2,75,ITC,loss,5,left,10,ITC_choice,748,f,0,0,831,45248,2048126
49,18,male,Belgium,2,75,ITC,loss,5,left,10,ITC_wait,0,undefined,0,0,831,40243,2053131
49,18,male,Belgium,2,75,ITC,loss,5,left,10,ITC_collect,788,k,0,0,831,39453,2053921
49,18,male,Belgium,2,75,ITC,loss,5,left,10,ITC_outcome,0,undefined,0,0,851,38437,2054937
49,18,male,Belgium,2,76,guess,win,10,right,5,guess_start,498,space,0,0,851,37936,2055438
49,18,male,Belgium,2,76,guess,win,10,right,5,guess_choice,477,f,0,0,851,37457,2055917
49,18,male,Belgium,2,76,guess,win,10,right,5,guess_outcome,0,undefined,0,0,871,35894,2057480
49,18,male,Belgium,2,76,ITC,win,10,right,5,ITC_start,853,space,0,0,871,35039,2058335
49,18,male,Belgium,2,76,ITC,win,10,right,5,ITC_choice,668,j,0,0,871,34369,2059005
49,18,male,Belgium,2,76,ITC,win,10,right,5,ITC_wait,0,undefined,0,0,871,24353,2069021
49,18,male,Belgium,2,76,ITC,win,10,right,5,ITC_collect,682,k,0,0,871,23669,2069705
49,18,male,Belgium,2,76,ITC,win,10,right,5,ITC_outcome,0,undefined,0,0,891,22662,2070712
49,18,male,Belgium,2,77,guess,neutral,10,left,2,guess_start,493,space,0,0,891,22166,2071208
49,18,male,Belgium,2,77,guess,neutral,10,left,2,guess_choice,624,f,0,0,891,21537,2071837
49,18,male,Belgium,2,77,guess,neutral,10,left,2,guess_outcome,0,undefined,0,0,891,19977,2073397
49,18,male,Belgium,2,77,ITC,neutral,10,left,2,ITC_start,652,space,0,0,891,19323,2074051
49,18,male,Belgium,2,77,ITC,neutral,10,left,2,ITC_choice,681,f,0,0,891,18640,2074734
49,18,male,Belgium,2,77,ITC,neutral,10,left,2,ITC_wait,0,undefined,0,0,891,8623,2084751
49,18,male,Belgium,2,77,ITC,neutral,10,left,2,ITC_collect,434,k,0,0,891,8186,2085188
49,18,male,Belgium,2,77,ITC,neutral,10,left,2,ITC_outcome,0,undefined,0,0,911,7172,2086202
49,18,male,Belgium,2,78,guess,loss,5,left,13,guess_start,363,space,0,0,911,6806,2086568
49,18,male,Belgium,2,78,guess,loss,5,left,13,guess_choice,528,j,0,0,911,6273,2087101
49,18,male,Belgium,2,78,guess,loss,5,left,13,guess_outcome,0,undefined,0,0,896,4714,2088660
49,18,male,Belgium,2,78,ITC,loss,5,left,13,ITC_start,433,space,0,0,896,4279,2089095
49,18,male,Belgium,2,78,ITC,loss,5,left,13,ITC_choice,697,f,0,0,896,3581,2089793
49,18,male,Belgium,2,78,ITC,loss,5,left,13,ITC_wait,0,undefined,0,0,896,-15,2093389
49,18,male,Belgium,3,79,guess,loss,5,right,5,guess_start,809,space,0,0,0,479190,2781511
49,18,male,Belgium,3,79,guess,loss,5,right,5,guess_choice,650,f,0,0,0,478535,2782166
49,18,male,Belgium,3,79,guess,loss,5,right,5,guess_outcome,0,undefined,0,0,-15,476972,2783729
49,18,male,Belgium,3,79,ITC,loss,5,right,5,ITC_start,1183,space,0,0,-15,475788,2784913
49,18,male,Belgium,3,79,ITC,loss,5,right,5,ITC_choice,667,j,0,0,-15,475118,2785583
49,18,male,Belgium,3,79,ITC,loss,5,right,5,ITC_wait,0,undefined,0,0,-15,470104,2790597
49,18,male,Belgium,3,79,ITC,loss,5,right,5,ITC_collect,819,k,0,0,-15,469282,2791419
49,18,male,Belgium,3,79,ITC,loss,5,right,5,ITC_outcome,0,undefined,0,0,5,468275,2792426
49,18,male,Belgium,3,80,guess,win,5,left,6,guess_start,438,space,0,0,5,467835,2792866
49,18,male,Belgium,3,80,guess,win,5,left,6,guess_choice,406,f,0,0,5,467425,2793276
49,18,male,Belgium,3,80,guess,win,5,left,6,guess_outcome,0,undefined,0,0,25,465869,2794832
49,18,male,Belgium,3,80,ITC,win,5,left,6,ITC_start,697,space,0,0,25,465170,2795531
49,18,male,Belgium,3,80,ITC,win,5,left,6,ITC_choice,805,f,0,0,25,464362,2796339
49,18,male,Belgium,3,80,ITC,win,5,left,6,ITC_wait,0,undefined,0,0,25,459354,2801347
49,18,male,Belgium,3,80,ITC,win,5,left,6,ITC_collect,906,k,0,0,25,458446,2802255
49,18,male,Belgium,3,80,ITC,win,5,left,6,ITC_outcome,0,undefined,0,0,45,457439,2803262
49,18,male,Belgium,3,81,guess,neutral,5,left,3,guess_start,534,space,0,0,45,456902,2803799
49,18,male,Belgium,3,81,guess,neutral,5,left,3,guess_choice,500,j,0,0,45,456397,2804304
49,18,male,Belgium,3,81,guess,neutral,5,left,3,guess_outcome,0,undefined,0,0,45,454830,2805871
49,18,male,Belgium,3,81,ITC,neutral,5,left,3,ITC_start,550,space,0,0,45,454278,2806423
49,18,male,Belgium,3,81,ITC,neutral,5,left,3,ITC_choice,558,f,0,0,45,453717,2806984
49,18,male,Belgium,3,81,ITC,neutral,5,left,3,ITC_wait,0,undefined,0,0,45,448704,2811997
49,18,male,Belgium,3,81,ITC,neutral,5,left,3,ITC_collect,1461,k,0,0,45,447241,2813460
49,18,male,Belgium,3,81,ITC,neutral,5,left,3,ITC_outcome,0,undefined,0,0,65,446237,2814464
49,18,male,Belgium,3,82,guess,win,10,left,7,guess_start,208,space,0,0,65,446024,2814677
49,18,male,Belgium,3,82,guess,win,10,left,7,guess_choice,459,j,0,0,65,445560,2815141
49,18,male,Belgium,3,82,guess,win,10,left,7,guess_outcome,0,undefined,0,0,85,444000,2816701
49,18,male,Belgium,3,82,ITC,win,10,left,7,ITC_start,584,space,0,0,85,443414,2817287
49,18,male,Belgium,3,82,ITC,win,10,left,7,ITC_choice,380,f,0,0,85,443032,2817669
49,18,male,Belgium,3,82,ITC,win,10,left,7,ITC_wait,0,undefined,0,0,85,433027,2827674
49,18,male,Belgium,3,82,ITC,win,10,left,7,ITC_collect,528,k,0,0,85,432496,2828205
49,18,male,Belgium,3,82,ITC,win,10,left,7,ITC_outcome,0,undefined,0,0,105,431486,2829215
49,18,male,Belgium,3,83,guess,loss,10,right,5,guess_start,451,space,0,0,105,431034,2829667
49,18,male,Belgium,3,83,guess,loss,10,right,5,guess_choice,364,j,0,0,105,430665,2830036
49,18,male,Belgium,3,83,guess,loss,10,right,5,guess_outcome,0,undefined,0,0,90,429104,2831597
49,18,male,Belgium,3,83,ITC,loss,10,right,5,ITC_start,953,space,0,0,90,428149,2832552
49,18,male,Belgium,3,83,ITC,loss,10,right,5,ITC_choice,638,j,0,0,90,427509,2833192
49,18,male,Belgium,3,83,ITC,loss,10,right,5,ITC_wait,0,undefined,0,0,90,417496,2843205
49,18,male,Belgium,3,83,ITC,loss,10,right,5,ITC_collect,399,k,0,0,90,417095,2843606
49,18,male,Belgium,3,83,ITC,loss,10,right,5,ITC_outcome,0,undefined,0,0,110,416075,2844626
49,18,male,Belgium,3,84,guess,neutral,5,left,6,guess_start,426,space,0,0,110,415646,2845055
49,18,male,Belgium,3,84,guess,neutral,5,left,6,guess_choice,364,f,0,0,110,415277,2845424
49,18,male,Belgium,3,84,guess,neutral,5,left,6,guess_outcome,0,undefined,0,0,110,413714,2846987
49,18,male,Belgium,3,84,ITC,neutral,5,left,6,ITC_start,648,space,0,0,110,413063,2847638
49,18,male,Belgium,3,84,ITC,neutral,5,left,6,ITC_choice,625,f,0,0,110,412435,2848266
49,18,male,Belgium,3,84,ITC,neutral,5,left,6,ITC_wait,0,undefined,0,0,110,407420,2853281
49,18,male,Belgium,3,84,ITC,neutral,5,left,6,ITC_collect,1146,k,0,0,110,406271,2854430
49,18,male,Belgium,3,84,ITC,neutral,5,left,6,ITC_outcome,0,undefined,0,0,130,405259,2855442
49,18,male,Belgium,3,85,guess,neutral,5,left,11,guess_start,392,space,0,0,130,404864,2855837
49,18,male,Belgium,3,85,guess,neutral,5,left,11,guess_choice,789,f,0,0,130,404070,2856631
49,18,male,Belgium,3,85,guess,neutral,5,left,11,guess_outcome,0,undefined,0,0,130,402515,2858186
49,18,male,Belgium,3,85,ITC,neutral,5,left,11,ITC_start,545,space,0,0,130,401967,2858734
49,18,male,Belgium,3,85,ITC,neutral,5,left,11,ITC_choice,709,f,0,0,130,401256,2859445
49,18,male,Belgium,3,85,ITC,neutral,5,left,11,ITC_wait,0,undefined,0,0,130,396242,2864459
49,18,male,Belgium,3,85,ITC,neutral,5,left,11,ITC_collect,832,k,0,0,130,395408,2865293
49,18,male,Belgium,3,85,ITC,neutral,5,left,11,ITC_outcome,0,undefined,0,0,150,394394,2866307
49,18,male,Belgium,3,86,guess,loss,10,right,6,guess_start,459,space,0,0,150,393932,2866769
49,18,male,Belgium,3,86,guess,loss,10,right,6,guess_choice,529,j,0,0,150,393399,2867302
49,18,male,Belgium,3,86,guess,loss,10,right,6,guess_outcome,0,undefined,0,0,135,391838,2868863
49,18,male,Belgium,3,86,ITC,loss,10,right,6,ITC_start,446,space,0,0,135,391390,2869311
49,18,male,Belgium,3,86,ITC,loss,10,right,6,ITC_choice,598,j,0,0,135,390790,2869911
49,18,male,Belgium,3,86,ITC,loss,10,right,6,ITC_wait,0,undefined,0,0,135,380772,2879929
49,18,male,Belgium,3,86,ITC,loss,10,right,6,ITC_collect,547,k,0,0,135,380225,2880476
49,18,male,Belgium,3,86,ITC,loss,10,right,6,ITC_outcome,0,undefined,0,0,155,379217,2881484
49,18,male,Belgium,3,87,guess,neutral,5,right,15,guess_start,464,space,0,0,155,378750,2881951
49,18,male,Belgium,3,87,guess,neutral,5,right,15,guess_choice,396,j,0,0,155,378353,2882348
49,18,male,Belgium,3,87,guess,neutral,5,right,15,guess_outcome,0,undefined,0,0,155,376795,2883906
49,18,male,Belgium,3,87,ITC,neutral,5,right,15,ITC_start,503,space,0,0,155,376290,2884411
49,18,male,Belgium,3,87,ITC,neutral,5,right,15,ITC_choice,749,j,0,0,155,375538,2885163
49,18,male,Belgium,3,87,ITC,neutral,5,right,15,ITC_wait,0,undefined,0,0,155,370524,2890177
49,18,male,Belgium,3,87,ITC,neutral,5,right,15,ITC_collect,751,k,0,0,155,369770,2890931
49,18,male,Belgium,3,87,ITC,neutral,5,right,15,ITC_outcome,0,undefined,0,0,175,368766,2891935
49,18,male,Belgium,3,88,guess,loss,10,left,8,guess_start,466,space,0,0,175,368295,2892406
49,18,male,Belgium,3,88,guess,loss,10,left,8,guess_choice,459,j,0,0,175,367831,2892870
49,18,male,Belgium,3,88,guess,loss,10,left,8,guess_outcome,0,undefined,0,0,160,366273,2894428
49,18,male,Belgium,3,88,ITC,loss,10,left,8,ITC_start,490,space,0,0,160,365781,2894920
49,18,male,Belgium,3,88,ITC,loss,10,left,8,ITC_choice,598,f,0,0,160,365180,2895521
49,18,male,Belgium,3,88,ITC,loss,10,left,8,ITC_wait,0,undefined,0,0,160,355173,2905528
49,18,male,Belgium,3,88,ITC,loss,10,left,8,ITC_collect,445,k,0,0,160,354726,2905975
49,18,male,Belgium,3,88,ITC,loss,10,left,8,ITC_outcome,0,undefined,0,0,180,353713,2906988
49,18,male,Belgium,3,89,guess,neutral,5,left,14,guess_start,406,space,0,0,180,353304,2907397
49,18,male,Belgium,3,89,guess,neutral,5,left,14,guess_choice,555,f,0,0,180,352744,2907957
49,18,male,Belgium,3,89,guess,neutral,5,left,14,guess_outcome,0,undefined,0,0,180,351181,2909520
49,18,male,Belgium,3,89,ITC,neutral,5,left,14,ITC_start,825,space,0,0,180,350353,2910348
49,18,male,Belgium,3,89,ITC,neutral,5,left,14,ITC_choice,804,f,0,0,180,349546,2911155
49,18,male,Belgium,3,89,ITC,neutral,5,left,14,ITC_wait,0,undefined,0,0,180,344539,2916162
49,18,male,Belgium,3,89,ITC,neutral,5,left,14,ITC_collect,593,k,0,0,180,343943,2916758
49,18,male,Belgium,3,89,ITC,neutral,5,left,14,ITC_outcome,0,undefined,0,0,200,342925,2917776
49,18,male,Belgium,3,90,guess,win,5,left,3,guess_start,372,space,0,0,200,342550,2918151
49,18,male,Belgium,3,90,guess,win,5,left,3,guess_choice,475,f,0,0,200,342071,2918630
49,18,male,Belgium,3,90,guess,win,5,left,3,guess_outcome,0,undefined,0,0,220,340502,2920199
49,18,male,Belgium,3,90,ITC,win,5,left,3,ITC_start,507,space,0,0,220,339993,2920708
49,18,male,Belgium,3,90,ITC,win,5,left,3,ITC_choice,736,f,0,0,220,339255,2921446
49,18,male,Belgium,3,90,ITC,win,5,left,3,ITC_wait,0,undefined,0,0,220,334240,2926461
49,18,male,Belgium,3,90,ITC,win,5,left,3,ITC_collect,747,k,0,0,220,333491,2927210
49,18,male,Belgium,3,90,ITC,win,5,left,3,ITC_outcome,0,undefined,0,0,240,332478,2928223
49,18,male,Belgium,3,91,guess,win,5,left,12,guess_start,379,space,0,0,240,332096,2928605
49,18,male,Belgium,3,91,guess,win,5,left,12,guess_choice,405,j,0,0,240,331686,2929015
49,18,male,Belgium,3,91,guess,win,5,left,12,guess_outcome,0,undefined,0,0,260,330125,2930576
49,18,male,Belgium,3,91,ITC,win,5,left,12,ITC_start,569,space,0,0,260,329554,2931147
49,18,male,Belgium,3,91,ITC,win,5,left,12,ITC_choice,571,f,0,0,260,328980,2931721
49,18,male,Belgium,3,91,ITC,win,5,left,12,ITC_wait,0,undefined,0,0,260,323976,2936725
49,18,male,Belgium,3,91,ITC,win,5,left,12,ITC_collect,583,k,0,0,260,323390,2937311
49,18,male,Belgium,3,91,ITC,win,5,left,12,ITC_outcome,0,undefined,0,0,280,322379,2938322
49,18,male,Belgium,3,92,guess,win,10,right,3,guess_start,392,space,0,0,280,321983,2938718
49,18,male,Belgium,3,92,guess,win,10,right,3,guess_choice,392,j,0,0,280,321587,2939114
49,18,male,Belgium,3,92,guess,win,10,right,3,guess_outcome,0,undefined,0,0,300,320018,2940683
49,18,male,Belgium,3,92,ITC,win,10,right,3,ITC_start,546,space,0,0,300,319469,2941232
49,18,male,Belgium,3,92,ITC,win,10,right,3,ITC_choice,719,j,0,0,300,318747,2941954
49,18,male,Belgium,3,92,ITC,win,10,right,3,ITC_wait,0,undefined,0,0,300,308736,2951965
49,18,male,Belgium,3,92,ITC,win,10,right,3,ITC_collect,375,k,0,0,300,308358,2952343
49,18,male,Belgium,3,92,ITC,win,10,right,3,ITC_outcome,0,undefined,0,0,320,307349,2953352
49,18,male,Belgium,3,93,guess,loss,5,left,15,guess_start,354,space,0,0,320,306992,2953709
49,18,male,Belgium,3,93,guess,loss,5,left,15,guess_choice,337,j,0,0,320,306651,2954050
49,18,male,Belgium,3,93,guess,loss,5,left,15,guess_outcome,0,undefined,0,0,305,305084,2955617
49,18,male,Belgium,3,93,ITC,loss,5,left,15,ITC_start,630,space,0,0,305,304451,2956250
49,18,male,Belgium,3,93,ITC,loss,5,left,15,ITC_choice,654,f,0,0,305,303795,2956906
49,18,male,Belgium,3,93,ITC,loss,5,left,15,ITC_wait,0,undefined,0,0,305,298782,2961919
49,18,male,Belgium,3,93,ITC,loss,5,left,15,ITC_collect,1203,k,0,0,305,297576,2963125
49,18,male,Belgium,3,93,ITC,loss,5,left,15,ITC_outcome,0,undefined,0,0,325,296559,2964142
49,18,male,Belgium,3,94,guess,loss,5,left,6,guess_start,387,space,0,0,325,296169,2964532
49,18,male,Belgium,3,94,guess,loss,5,left,6,guess_choice,392,f,0,0,325,295772,2964929
49,18,male,Belgium,3,94,guess,loss,5,left,6,guess_outcome,0,undefined,0,0,310,294216,2966485
49,18,male,Belgium,3,94,ITC,loss,5,left,6,ITC_start,585,space,0,0,310,293629,2967072
49,18,male,Belgium,3,94,ITC,loss,5,left,6,ITC_choice,666,f,0,0,310,292958,2967743
49,18,male,Belgium,3,94,ITC,loss,5,left,6,ITC_wait,0,undefined,0,0,310,287944,2972757
49,18,male,Belgium,3,94,ITC,loss,5,left,6,ITC_collect,613,k,0,0,310,287328,2973373
49,18,male,Belgium,3,94,ITC,loss,5,left,6,ITC_outcome,0,undefined,0,0,330,286312,2974389
49,18,male,Belgium,3,95,guess,win,5,right,13,guess_start,401,space,0,0,330,285908,2974793
49,18,male,Belgium,3,95,guess,win,5,right,13,guess_choice,815,j,0,0,330,285087,2975614
49,18,male,Belgium,3,95,guess,win,5,right,13,guess_outcome,0,undefined,0,0,350,283532,2977169
49,18,male,Belgium,3,95,ITC,win,5,right,13,ITC_start,520,space,0,0,350,283010,2977691
49,18,male,Belgium,3,95,ITC,win,5,right,13,ITC_choice,641,j,0,0,350,282367,2978334
49,18,male,Belgium,3,95,ITC,win,5,right,13,ITC_wait,0,undefined,0,0,350,277361,2983340
49,18,male,Belgium,3,95,ITC,win,5,right,13,ITC_collect,715,k,0,0,350,276643,2984058
49,18,male,Belgium,3,95,ITC,win,5,right,13,ITC_outcome,0,undefined,0,0,370,275633,2985068
49,18,male,Belgium,3,96,guess,win,5,right,11,guess_start,411,space,0,0,370,275220,2985481
49,18,male,Belgium,3,96,guess,win,5,right,11,guess_choice,405,j,0,0,370,274810,2985891
49,18,male,Belgium,3,96,guess,win,5,right,11,guess_outcome,0,undefined,0,0,390,273244,2987457
49,18,male,Belgium,3,96,ITC,win,5,right,11,ITC_start,494,space,0,0,390,272748,2987953
49,18,male,Belgium,3,96,ITC,win,5,right,11,ITC_choice,628,j,0,0,390,272117,2988584
49,18,male,Belgium,3,96,ITC,win,5,right,11,ITC_wait,0,undefined,0,0,390,267110,2993591
49,18,male,Belgium,3,96,ITC,win,5,right,11,ITC_collect,524,k,0,0,390,266584,2994117
49,18,male,Belgium,3,96,ITC,win,5,right,11,ITC_outcome,0,undefined,0,0,410,265566,2995135
49,18,male,Belgium,3,97,guess,win,10,right,6,guess_start,552,space,0,0,410,265012,2995689
49,18,male,Belgium,3,97,guess,win,10,right,6,guess_choice,460,f,0,0,410,264548,2996153
49,18,male,Belgium,3,97,guess,win,10,right,6,guess_outcome,0,undefined,0,0,430,262986,2997715
49,18,male,Belgium,3,97,ITC,win,10,right,6,ITC_start,582,space,0,0,430,262403,2998298
49,18,male,Belgium,3,97,ITC,win,10,right,6,ITC_choice,599,j,0,0,430,261802,2998899
49,18,male,Belgium,3,97,ITC,win,10,right,6,ITC_wait,0,undefined,0,0,430,251795,3008906
49,18,male,Belgium,3,97,ITC,win,10,right,6,ITC_collect,459,k,0,0,430,251333,3009368
49,18,male,Belgium,3,97,ITC,win,10,right,6,ITC_outcome,0,undefined,0,0,450,250320,3010381
49,18,male,Belgium,3,98,guess,loss,5,right,7,guess_start,337,space,0,0,450,249980,3010721
49,18,male,Belgium,3,98,guess,loss,5,right,7,guess_choice,444,j,0,0,450,249531,3011170
49,18,male,Belgium,3,98,guess,loss,5,right,7,guess_outcome,0,undefined,0,0,435,247965,3012736
49,18,male,Belgium,3,98,ITC,loss,5,right,7,ITC_start,578,space,0,0,435,247385,3013316
49,18,male,Belgium,3,98,ITC,loss,5,right,7,ITC_choice,586,j,0,0,435,246796,3013905
49,18,male,Belgium,3,98,ITC,loss,5,right,7,ITC_wait,0,undefined,0,0,435,241785,3018916
49,18,male,Belgium,3,98,ITC,loss,5,right,7,ITC_collect,602,k,0,0,435,241181,3019520
49,18,male,Belgium,3,98,ITC,loss,5,right,7,ITC_outcome,0,undefined,0,0,455,240166,3020535
49,18,male,Belgium,3,99,guess,neutral,5,right,1,guess_start,350,space,0,0,455,239814,3020887
49,18,male,Belgium,3,99,guess,neutral,5,right,1,guess_choice,350,f,0,0,455,239459,3021242
49,18,male,Belgium,3,99,guess,neutral,5,right,1,guess_outcome,0,undefined,0,0,455,237895,3022806
49,18,male,Belgium,3,99,ITC,neutral,5,right,1,ITC_start,565,space,0,0,455,237327,3023374
49,18,male,Belgium,3,99,ITC,neutral,5,right,1,ITC_choice,586,j,0,0,455,236740,3023961
49,18,male,Belgium,3,99,ITC,neutral,5,right,1,ITC_wait,0,undefined,0,0,455,231729,3028972
49,18,male,Belgium,3,99,ITC,neutral,5,right,1,ITC_collect,795,k,0,0,455,230931,3029770
49,18,male,Belgium,3,99,ITC,neutral,5,right,1,ITC_outcome,0,undefined,0,0,475,229922,3030779
49,18,male,Belgium,3,100,guess,loss,5,right,9,guess_start,518,space,0,0,475,229401,3031300
49,18,male,Belgium,3,100,guess,loss,5,right,9,guess_choice,433,f,0,0,475,228962,3031739
49,18,male,Belgium,3,100,guess,loss,5,right,9,guess_outcome,0,undefined,0,0,460,227404,3033297
49,18,male,Belgium,3,100,ITC,loss,5,right,9,ITC_start,789,space,0,0,460,226613,3034088
49,18,male,Belgium,3,100,ITC,loss,5,right,9,ITC_choice,544,j,0,0,460,226066,3034635
49,18,male,Belgium,3,100,ITC,loss,5,right,9,ITC_wait,0,undefined,0,0,460,221060,3039641
49,18,male,Belgium,3,100,ITC,loss,5,right,9,ITC_collect,867,k,0,0,460,220191,3040510
49,18,male,Belgium,3,100,ITC,loss,5,right,9,ITC_outcome,0,undefined,0,0,480,219186,3041515
49,18,male,Belgium,3,101,guess,neutral,10,left,1,guess_start,358,space,0,0,480,218825,3041876
49,18,male,Belgium,3,101,guess,neutral,10,left,1,guess_choice,395,j,0,0,480,218428,3042273
49,18,male,Belgium,3,101,guess,neutral,10,left,1,guess_outcome,0,undefined,0,0,480,216859,3043842
49,18,male,Belgium,3,101,ITC,neutral,10,left,1,ITC_start,739,space,0,0,480,216118,3044583
49,18,male,Belgium,3,101,ITC,neutral,10,left,1,ITC_choice,694,f,0,0,480,215421,3045280
49,18,male,Belgium,3,101,ITC,neutral,10,left,1,ITC_wait,0,undefined,0,0,480,205415,3055286
49,18,male,Belgium,3,101,ITC,neutral,10,left,1,ITC_collect,664,k,0,0,480,204748,3055953
49,18,male,Belgium,3,101,ITC,neutral,10,left,1,ITC_outcome,0,undefined,0,0,500,203739,3056962
49,18,male,Belgium,3,102,guess,neutral,10,right,5,guess_start,381,space,0,0,500,203355,3057346
49,18,male,Belgium,3,102,guess,neutral,10,right,5,guess_choice,448,f,0,0,500,202903,3057798
49,18,male,Belgium,3,102,guess,neutral,10,right,5,guess_outcome,0,undefined,0,0,500,201348,3059353
49,18,male,Belgium,3,102,ITC,neutral,10,right,5,ITC_start,479,space,0,0,500,200867,3059834
49,18,male,Belgium,3,102,ITC,neutral,10,right,5,ITC_choice,613,j,0,0,500,200252,3060449
49,18,male,Belgium,3,102,ITC,neutral,10,right,5,ITC_wait,0,undefined,0,0,500,190248,3070453
49,18,male,Belgium,3,102,ITC,neutral,10,right,5,ITC_collect,584,k,0,0,500,189663,3071038
49,18,male,Belgium,3,102,ITC,neutral,10,right,5,ITC_outcome,0,undefined,0,0,520,188660,3072041
49,18,male,Belgium,3,103,guess,loss,5,right,2,guess_start,429,space,0,0,520,188228,3072473
49,18,male,Belgium,3,103,guess,loss,5,right,2,guess_choice,433,j,0,0,520,187789,3072912
49,18,male,Belgium,3,103,guess,loss,5,right,2,guess_outcome,0,undefined,0,0,505,186222,3074479
49,18,male,Belgium,3,103,ITC,loss,5,right,2,ITC_start,508,space,0,0,505,185712,3074989
49,18,male,Belgium,3,103,ITC,loss,5,right,2,ITC_choice,557,j,0,0,505,185153,3075548
49,18,male,Belgium,3,103,ITC,loss,5,right,2,ITC_wait,0,undefined,0,0,505,180139,3080562
49,18,male,Belgium,3,103,ITC,loss,5,right,2,ITC_collect,682,k,0,0,505,179455,3081246
49,18,male,Belgium,3,103,ITC,loss,5,right,2,ITC_outcome,0,undefined,0,0,525,178440,3082261
49,18,male,Belgium,3,104,guess,loss,5,left,4,guess_start,366,space,0,0,525,178073,3082628
49,18,male,Belgium,3,104,guess,loss,5,left,4,guess_choice,364,f,0,0,525,177705,3082996
49,18,male,Belgium,3,104,guess,loss,5,left,4,guess_outcome,0,undefined,0,0,510,176137,3084564
49,18,male,Belgium,3,104,ITC,loss,5,left,4,ITC_start,453,space,0,0,510,175682,3085019
49,18,male,Belgium,3,104,ITC,loss,5,left,4,ITC_choice,695,f,0,0,510,174985,3085716
49,18,male,Belgium,3,104,ITC,loss,5,left,4,ITC_wait,0,undefined,0,0,510,169975,3090726
49,18,male,Belgium,3,104,ITC,loss,5,left,4,ITC_collect,1492,k,0,0,510,168480,3092221
49,18,male,Belgium,3,104,ITC,loss,5,left,4,ITC_outcome,0,undefined,0,0,530,167463,3093238
49,18,male,Belgium,3,105,guess,loss,5,left,1,guess_start,374,space,0,0,530,167087,3093614
49,18,male,Belgium,3,105,guess,loss,5,left,1,guess_choice,448,j,0,0,530,166635,3094066
49,18,male,Belgium,3,105,guess,loss,5,left,1,guess_outcome,0,undefined,0,0,515,165079,3095622
49,18,male,Belgium,3,105,ITC,loss,5,left,1,ITC_start,942,space,0,0,515,164135,3096566
49,18,male,Belgium,3,105,ITC,loss,5,left,1,ITC_choice,640,f,0,0,515,163494,3097207
49,18,male,Belgium,3,105,ITC,loss,5,left,1,ITC_wait,0,undefined,0,0,515,158492,3102209
49,18,male,Belgium,3,105,ITC,loss,5,left,1,ITC_collect,628,k,0,0,515,157862,3102839
49,18,male,Belgium,3,105,ITC,loss,5,left,1,ITC_outcome,0,undefined,0,0,535,156845,3103856
49,18,male,Belgium,3,106,guess,win,10,left,8,guess_start,318,space,0,0,535,156524,3104177
49,18,male,Belgium,3,106,guess,win,10,left,8,guess_choice,447,j,0,0,535,156072,3104629
49,18,male,Belgium,3,106,guess,win,10,left,8,guess_outcome,0,undefined,0,0,555,154508,3106193
49,18,male,Belgium,3,106,ITC,win,10,left,8,ITC_start,633,space,0,0,555,153872,3106829
49,18,male,Belgium,3,106,ITC,win,10,left,8,ITC_choice,640,f,0,0,555,153230,3107471
49,18,male,Belgium,3,106,ITC,win,10,left,8,ITC_wait,0,undefined,0,0,555,143227,3117474
49,18,male,Belgium,3,106,ITC,win,10,left,8,ITC_collect,557,k,0,0,555,142666,3118035
49,18,male,Belgium,3,106,ITC,win,10,left,8,ITC_outcome,0,undefined,0,0,575,141650,3119051
49,18,male,Belgium,3,107,guess,neutral,5,left,4,guess_start,403,space,0,0,575,141245,3119456
49,18,male,Belgium,3,107,guess,neutral,5,left,4,guess_choice,476,f,0,0,575,140768,3119933
49,18,male,Belgium,3,107,guess,neutral,5,left,4,guess_outcome,0,undefined,0,0,575,139207,3121494
49,18,male,Belgium,3,107,ITC,neutral,5,left,4,ITC_start,446,space,0,0,575,138759,3121942
49,18,male,Belgium,3,107,ITC,neutral,5,left,4,ITC_choice,682,f,0,0,575,138076,3122625
49,18,male,Belgium,3,107,ITC,neutral,5,left,4,ITC_wait,0,undefined,0,0,575,133069,3127632
49,18,male,Belgium,3,107,ITC,neutral,5,left,4,ITC_collect,935,k,0,0,575,132131,3128570
49,18,male,Belgium,3,107,ITC,neutral,5,left,4,ITC_outcome,0,undefined,0,0,595,131120,3129581
49,18,male,Belgium,3,108,guess,win,5,right,8,guess_start,352,space,0,0,595,130764,3129937
49,18,male,Belgium,3,108,guess,win,5,right,8,guess_choice,474,f,0,0,595,130286,3130415
49,18,male,Belgium,3,108,guess,win,5,right,8,guess_outcome,0,undefined,0,0,615,128728,3131973
49,18,male,Belgium,3,108,ITC,win,5,right,8,ITC_start,447,space,0,0,615,128279,3132422
49,18,male,Belgium,3,108,ITC,win,5,right,8,ITC_choice,614,j,0,0,615,127663,3133038
49,18,male,Belgium,3,108,ITC,win,5,right,8,ITC_wait,0,undefined,0,0,615,122649,3138052
49,18,male,Belgium,3,108,ITC,win,5,right,8,ITC_collect,779,k,0,0,615,121868,3138833
49,18,male,Belgium,3,108,ITC,win,5,right,8,ITC_outcome,0,undefined,0,0,635,120861,3139840
49,18,male,Belgium,3,109,guess,neutral,10,left,7,guess_start,423,space,0,0,635,120435,3140266
49,18,male,Belgium,3,109,guess,neutral,10,left,7,guess_choice,587,j,0,0,635,119845,3140856
49,18,male,Belgium,3,109,guess,neutral,10,left,7,guess_outcome,0,undefined,0,0,635,118285,3142416
49,18,male,Belgium,3,109,ITC,neutral,10,left,7,ITC_start,420,space,0,0,635,117865,3142836
49,18,male,Belgium,3,109,ITC,neutral,10,left,7,ITC_choice,708,f,0,0,635,117154,3143547
49,18,male,Belgium,3,109,ITC,neutral,10,left,7,ITC_wait,0,undefined,0,0,635,107146,3153555
49,18,male,Belgium,3,109,ITC,neutral,10,left,7,ITC_collect,717,k,0,0,635,106426,3154275
49,18,male,Belgium,3,109,ITC,neutral,10,left,7,ITC_outcome,0,undefined,0,0,655,105421,3155280
49,18,male,Belgium,3,110,guess,win,10,left,4,guess_start,440,space,0,0,655,104978,3155723
49,18,male,Belgium,3,110,guess,win,10,left,4,guess_choice,391,f,0,0,655,104582,3156119
49,18,male,Belgium,3,110,guess,win,10,left,4,guess_outcome,0,undefined,0,0,675,103019,3157682
49,18,male,Belgium,3,110,ITC,win,10,left,4,ITC_start,540,space,0,0,675,102477,3158224
49,18,male,Belgium,3,110,ITC,win,10,left,4,ITC_choice,639,f,0,0,675,101835,3158866
49,18,male,Belgium,3,110,ITC,win,10,left,4,ITC_wait,0,undefined,0,0,675,91831,3168870
49,18,male,Belgium,3,110,ITC,win,10,left,4,ITC_collect,503,k,0,0,675,91326,3169375
49,18,male,Belgium,3,110,ITC,win,10,left,4,ITC_outcome,0,undefined,0,0,695,90307,3170394
49,18,male,Belgium,3,111,guess,win,5,left,1,guess_start,426,space,0,0,695,89879,3170822
49,18,male,Belgium,3,111,guess,win,5,left,1,guess_choice,519,f,0,0,695,89358,3171343
49,18,male,Belgium,3,111,guess,win,5,left,1,guess_outcome,0,undefined,0,0,715,87800,3172901
49,18,male,Belgium,3,111,ITC,win,5,left,1,ITC_start,1008,space,0,0,715,86790,3173911
49,18,male,Belgium,3,111,ITC,win,5,left,1,ITC_choice,736,f,0,0,715,86052,3174649
49,18,male,Belgium,3,111,ITC,win,5,left,1,ITC_wait,0,undefined,0,0,715,81043,3179658
49,18,male,Belgium,3,111,ITC,win,5,left,1,ITC_collect,714,k,0,0,715,80326,3180375
49,18,male,Belgium,3,111,ITC,win,5,left,1,ITC_outcome,0,undefined,0,0,735,79313,3181388
49,18,male,Belgium,3,112,guess,loss,10,left,4,guess_start,487,space,0,0,735,78823,3181878
49,18,male,Belgium,3,112,guess,loss,10,left,4,guess_choice,462,f,0,0,735,78357,3182344
49,18,male,Belgium,3,112,guess,loss,10,left,4,guess_outcome,0,undefined,0,0,720,76797,3183904
49,18,male,Belgium,3,112,ITC,loss,10,left,4,ITC_start,2304,space,0,0,720,74491,3186210
49,18,male,Belgium,3,112,ITC,loss,10,left,4,ITC_choice,695,f,0,0,720,73793,3186908
49,18,male,Belgium,3,112,ITC,loss,10,left,4,ITC_wait,0,undefined,0,0,720,63784,3196917
49,18,male,Belgium,3,112,ITC,loss,10,left,4,ITC_collect,619,k,0,0,720,63162,3197539
49,18,male,Belgium,3,112,ITC,loss,10,left,4,ITC_outcome,0,undefined,0,0,740,62156,3198545
49,18,male,Belgium,3,113,guess,neutral,5,right,12,guess_start,357,space,0,0,740,61796,3198905
49,18,male,Belgium,3,113,guess,neutral,5,right,12,guess_choice,501,j,0,0,740,61290,3199411
49,18,male,Belgium,3,113,guess,neutral,5,right,12,guess_outcome,0,undefined,0,0,740,59722,3200979
49,18,male,Belgium,3,113,ITC,neutral,5,right,12,ITC_start,685,space,0,0,740,59034,3201667
49,18,male,Belgium,3,113,ITC,neutral,5,right,12,ITC_choice,830,j,0,0,740,58202,3202499
49,18,male,Belgium,3,113,ITC,neutral,5,right,12,ITC_wait,0,undefined,0,0,740,53188,3207513
49,18,male,Belgium,3,113,ITC,neutral,5,right,12,ITC_collect,628,k,0,0,740,52558,3208143
49,18,male,Belgium,3,113,ITC,neutral,5,right,12,ITC_outcome,0,undefined,0,0,760,51551,3209150
49,18,male,Belgium,3,114,guess,neutral,10,right,3,guess_start,385,space,0,0,760,51164,3209537
49,18,male,Belgium,3,114,guess,neutral,10,right,3,guess_choice,624,j,0,0,760,50534,3210167
49,18,male,Belgium,3,114,guess,neutral,10,right,3,guess_outcome,0,undefined,0,0,760,48970,3211731
49,18,male,Belgium,3,114,ITC,neutral,10,right,3,ITC_start,455,space,0,0,760,48512,3212189
49,18,male,Belgium,3,114,ITC,neutral,10,right,3,ITC_choice,899,j,0,0,760,47611,3213090
49,18,male,Belgium,3,114,ITC,neutral,10,right,3,ITC_wait,0,undefined,0,0,760,37602,3223099
49,18,male,Belgium,3,114,ITC,neutral,10,right,3,ITC_collect,620,k,0,0,760,36979,3223722
49,18,male,Belgium,3,114,ITC,neutral,10,right,3,ITC_outcome,0,undefined,0,0,780,35968,3224733
49,18,male,Belgium,3,115,guess,neutral,10,right,6,guess_start,328,space,0,0,780,35639,3225062
49,18,male,Belgium,3,115,guess,neutral,10,right,6,guess_choice,567,j,0,0,780,35067,3225634
49,18,male,Belgium,3,115,guess,neutral,10,right,6,guess_outcome,0,undefined,0,0,780,33511,3227190
49,18,male,Belgium,3,115,ITC,neutral,10,right,6,ITC_start,410,space,0,0,780,33098,3227603
49,18,male,Belgium,3,115,ITC,neutral,10,right,6,ITC_choice,558,f,0,0,780,32538,3228163
49,18,male,Belgium,3,115,ITC,neutral,10,right,6,ITC_wait,0,undefined,0,0,780,32534,3228167
49,18,male,Belgium,3,115,ITC,neutral,10,right,6,ITC_collect,788,k,0,0,780,31745,3228956
49,18,male,Belgium,3,115,ITC,neutral,10,right,6,ITC_outcome,0,undefined,0,0,786,30740,3229961
49,18,male,Belgium,3,116,guess,neutral,5,right,16,guess_start,358,space,0,0,786,30379,3230322
49,18,male,Belgium,3,116,guess,neutral,5,right,16,guess_choice,501,j,0,0,786,29873,3230828
49,18,male,Belgium,3,116,guess,neutral,5,right,16,guess_outcome,0,undefined,0,0,786,28317,3232384
49,18,male,Belgium,3,116,ITC,neutral,5,right,16,ITC_start,545,space,0,0,786,27770,3232931
49,18,male,Belgium,3,116,ITC,neutral,5,right,16,ITC_choice,588,f,0,0,786,27181,3233520
49,18,male,Belgium,3,116,ITC,neutral,5,right,16,ITC_wait,0,undefined,0,0,786,27177,3233524
49,18,male,Belgium,3,116,ITC,neutral,5,right,16,ITC_collect,1032,k,0,0,786,26144,3234557
49,18,male,Belgium,3,116,ITC,neutral,5,right,16,ITC_outcome,0,undefined,0,0,802,25127,3235574
49,18,male,Belgium,3,117,guess,loss,5,left,8,guess_start,417,space,0,0,802,24707,3235994
49,18,male,Belgium,3,117,guess,loss,5,left,8,guess_choice,557,j,0,0,802,24146,3236555
49,18,male,Belgium,3,117,guess,loss,5,left,8,guess_outcome,0,undefined,0,0,787,22579,3238122
49,18,male,Belgium,3,117,ITC,loss,5,left,8,ITC_start,494,space,0,0,787,22083,3238618
49,18,male,Belgium,3,117,ITC,loss,5,left,8,ITC_choice,856,j,0,0,787,21223,3239478
49,18,male,Belgium,3,117,ITC,loss,5,left,8,ITC_wait,0,undefined,0,0,787,21218,3239483
49,18,male,Belgium,3,117,ITC,loss,5,left,8,ITC_collect,1031,k,0,0,787,20185,3240516
49,18,male,Belgium,3,117,ITC,loss,5,left,8,ITC_outcome,0,undefined,0,0,795,19173,3241528
49,18,male,Belgium,3,118,guess,win,5,left,10,guess_start,392,space,0,0,795,18777,3241924
49,18,male,Belgium,3,118,guess,win,5,left,10,guess_choice,666,j,0,0,795,18107,3242594
49,18,male,Belgium,3,118,guess,win,5,left,10,guess_outcome,0,undefined,0,0,815,16546,3244155
49,18,male,Belgium,3,118,ITC,win,5,left,10,ITC_start,541,space,0,0,815,16003,3244698
49,18,male,Belgium,3,118,ITC,win,5,left,10,ITC_choice,721,j,0,0,815,15279,3245422
49,18,male,Belgium,3,118,ITC,win,5,left,10,ITC_wait,0,undefined,0,0,815,15275,3245426
49,18,male,Belgium,3,118,ITC,win,5,left,10,ITC_collect,925,k,0,0,815,14349,3246352
49,18,male,Belgium,3,118,ITC,win,5,left,10,ITC_outcome,0,undefined,0,0,825,13330,3247371
49,18,male,Belgium,3,119,guess,neutral,5,left,13,guess_start,371,space,0,0,825,12956,3247745
49,18,male,Belgium,3,119,guess,neutral,5,left,13,guess_choice,474,j,0,0,825,12477,3248224
49,18,male,Belgium,3,119,guess,neutral,5,left,13,guess_outcome,0,undefined,0,0,825,10913,3249788
49,18,male,Belgium,3,119,ITC,neutral,5,left,13,ITC_start,402,space,0,0,825,10509,3250192
49,18,male,Belgium,3,119,ITC,neutral,5,left,13,ITC_choice,911,j,0,0,825,9594,3251107
49,18,male,Belgium,3,119,ITC,neutral,5,left,13,ITC_wait,0,undefined,0,0,825,9590,3251111
49,18,male,Belgium,3,119,ITC,neutral,5,left,13,ITC_collect,774,k,0,0,825,8815,3251886
49,18,male,Belgium,3,119,ITC,neutral,5,left,13,ITC_outcome,0,undefined,0,0,838,7803,3252898
49,18,male,Belgium,3,120,guess,neutral,10,right,4,guess_start,476,space,0,0,838,7324,3253377
49,18,male,Belgium,3,120,guess,neutral,10,right,4,guess_choice,677,f,0,0,838,6643,3254058
49,18,male,Belgium,3,120,guess,neutral,10,right,4,guess_outcome,0,undefined,0,0,838,5080,3255621
49,18,male,Belgium,3,120,ITC,neutral,10,right,4,ITC_start,759,space,0,0,838,4318,3256383
49,18,male,Belgium,3,120,ITC,neutral,10,right,4,ITC_choice,844,f,0,0,838,3472,3257229
49,18,male,Belgium,3,120,ITC,neutral,10,right,4,ITC_wait,0,undefined,0,0,838,3468,3257233
49,18,male,Belgium,3,120,ITC,neutral,10,right,4,ITC_collect,609,k,0,0,838,2856,3257845
49,18,male,Belgium,3,120,ITC,neutral,10,right,4,ITC_outcome,0,undefined,0,0,842,1852,3258849
49,18,male,Belgium,3,121,guess,loss,10,left,1,guess_start,413,space,0,0,842,1435,3259266
49,18,male,Belgium,3,121,guess,loss,10,left,1,guess_choice,610,f,0,0,842,821,3259880
49,18,male,Belgium,3,121,guess,loss,10,left,1,guess_outcome,0,undefined,0,0,827,-19,3260720
49,18,male,Belgium,4,122,guess,win,10,left,2,guess_start,915,space,0,0,0,479083,4481407
49,18,male,Belgium,4,122,guess,win,10,left,2,guess_choice,1746,j,0,0,0,477334,4483156
49,18,male,Belgium,4,122,guess,win,10,left,2,guess_outcome,0,undefined,0,0,20,475767,4484723
49,18,male,Belgium,4,122,ITC,win,10,left,2,ITC_start,644,space,0,0,20,475120,4485370
49,18,male,Belgium,4,122,ITC,win,10,left,2,ITC_choice,653,f,0,0,20,474464,4486026
49,18,male,Belgium,4,122,ITC,win,10,left,2,ITC_wait,0,undefined,0,0,20,464449,4496041
49,18,male,Belgium,4,122,ITC,win,10,left,2,ITC_collect,914,k,0,0,20,463533,4496957
49,18,male,Belgium,4,122,ITC,win,10,left,2,ITC_outcome,0,undefined,0,0,40,462517,4497973
49,18,male,Belgium,4,123,guess,win,5,right,7,guess_start,814,space,0,0,40,461700,4498790
49,18,male,Belgium,4,123,guess,win,5,right,7,guess_choice,568,j,0,0,40,461128,4499362
49,18,male,Belgium,4,123,guess,win,5,right,7,guess_outcome,0,undefined,0,0,60,459571,4500919
49,18,male,Belgium,4,123,ITC,win,5,right,7,ITC_start,450,space,0,0,60,459119,4501371
49,18,male,Belgium,4,123,ITC,win,5,right,7,ITC_choice,805,j,0,0,60,458312,4502178
49,18,male,Belgium,4,123,ITC,win,5,right,7,ITC_wait,0,undefined,0,0,60,453301,4507189
49,18,male,Belgium,4,123,ITC,win,5,right,7,ITC_collect,767,k,0,0,60,452531,4507959
49,18,male,Belgium,4,123,ITC,win,5,right,7,ITC_outcome,0,undefined,0,0,80,451514,4508976
49,18,male,Belgium,4,124,guess,win,5,left,2,guess_start,347,space,0,0,80,451164,4509326
49,18,male,Belgium,4,124,guess,win,5,left,2,guess_choice,623,f,0,0,80,450536,4509954
49,18,male,Belgium,4,124,guess,win,5,left,2,guess_outcome,0,undefined,0,0,100,448977,4511513
49,18,male,Belgium,4,124,ITC,win,5,left,2,ITC_start,392,space,0,0,100,448583,4511907
49,18,male,Belgium,4,124,ITC,win,5,left,2,ITC_choice,723,f,0,0,100,447857,4512633
49,18,male,Belgium,4,124,ITC,win,5,left,2,ITC_wait,0,undefined,0,0,100,442846,4517644
49,18,male,Belgium,4,124,ITC,win,5,left,2,ITC_collect,751,k,0,0,100,442091,4518399
49,18,male,Belgium,4,124,ITC,win,5,left,2,ITC_outcome,0,undefined,0,0,120,441076,4519414
49,18,male,Belgium,4,125,guess,neutral,5,left,8,guess_start,335,space,0,0,120,440739,4519751
49,18,male,Belgium,4,125,guess,neutral,5,left,8,guess_choice,324,j,0,0,120,440410,4520080
49,18,male,Belgium,4,125,guess,neutral,5,left,8,guess_outcome,0,undefined,0,0,120,438855,4521635
49,18,male,Belgium,4,125,ITC,neutral,5,left,8,ITC_start,478,space,0,0,120,438375,4522115
49,18,male,Belgium,4,125,ITC,neutral,5,left,8,ITC_choice,599,f,0,0,120,437773,4522717
49,18,male,Belgium,4,125,ITC,neutral,5,left,8,ITC_wait,0,undefined,0,0,120,432766,4527724
49,18,male,Belgium,4,125,ITC,neutral,5,left,8,ITC_collect,524,k,0,0,120,432239,4528251
49,18,male,Belgium,4,125,ITC,neutral,5,left,8,ITC_outcome,0,undefined,0,0,140,431220,4529270
49,18,male,Belgium,4,126,guess,win,5,right,15,guess_start,332,space,0,0,140,430886,4529604
49,18,male,Belgium,4,126,guess,win,5,right,15,guess_choice,365,f,0,0,140,430517,4529973
49,18,male,Belgium,4,126,guess,win,5,right,15,guess_outcome,0,undefined,0,0,160,428951,4531539
49,18,male,Belgium,4,126,ITC,win,5,right,15,ITC_start,453,space,0,0,160,428496,4531994
49,18,male,Belgium,4,126,ITC,win,5,right,15,ITC_choice,931,j,0,0,160,427564,4532926
49,18,male,Belgium,4,126,ITC,win,5,right,15,ITC_wait,0,undefined,0,0,160,422548,4537942
49,18,male,Belgium,4,126,ITC,win,5,right,15,ITC_collect,529,k,0,0,160,422017,4538473
49,18,male,Belgium,4,126,ITC,win,5,right,15,ITC_outcome,0,undefined,0,0,180,421006,4539484
49,18,male,Belgium,4,127,guess,neutral,5,left,2,guess_start,203,space,0,0,180,420800,4539690
49,18,male,Belgium,4,127,guess,neutral,5,left,2,guess_choice,446,f,0,0,180,420349,4540141
49,18,male,Belgium,4,127,guess,neutral,5,left,2,guess_outcome,0,undefined,0,0,180,418791,4541699
49,18,male,Belgium,4,127,ITC,neutral,5,left,2,ITC_start,449,space,0,0,180,418341,4542149
49,18,male,Belgium,4,127,ITC,neutral,5,left,2,ITC_choice,600,f,0,0,180,417740,4542750
49,18,male,Belgium,4,127,ITC,neutral,5,left,2,ITC_wait,0,undefined,0,0,180,412732,4547758
49,18,male,Belgium,4,127,ITC,neutral,5,left,2,ITC_collect,347,k,0,0,180,412382,4548108
49,18,male,Belgium,4,127,ITC,neutral,5,left,2,ITC_outcome,0,undefined,0,0,200,411371,4549119
49,18,male,Belgium,4,128,guess,neutral,5,right,7,guess_start,407,space,0,0,200,410961,4549529
49,18,male,Belgium,4,128,guess,neutral,5,right,7,guess_choice,432,j,0,0,200,410524,4549966
49,18,male,Belgium,4,128,guess,neutral,5,right,7,guess_outcome,0,undefined,0,0,200,408966,4551524
49,18,male,Belgium,4,128,ITC,neutral,5,right,7,ITC_start,380,space,0,0,200,408583,4551907
49,18,male,Belgium,4,128,ITC,neutral,5,right,7,ITC_choice,610,j,0,0,200,407969,4552521
49,18,male,Belgium,4,128,ITC,neutral,5,right,7,ITC_wait,0,undefined,0,0,200,402956,4557534
49,18,male,Belgium,4,128,ITC,neutral,5,right,7,ITC_collect,764,k,0,0,200,402189,4558301
49,18,male,Belgium,4,128,ITC,neutral,5,right,7,ITC_outcome,0,undefined,0,0,220,401182,4559308
49,18,male,Belgium,4,129,guess,win,5,right,4,guess_start,317,space,0,0,220,400863,4559627
49,18,male,Belgium,4,129,guess,win,5,right,4,guess_choice,515,f,0,0,220,400343,4560147
49,18,male,Belgium,4,129,guess,win,5,right,4,guess_outcome,0,undefined,0,0,240,398783,4561707
49,18,male,Belgium,4,129,ITC,win,5,right,4,ITC_start,445,space,0,0,240,398336,4562154
49,18,male,Belgium,4,129,ITC,win,5,right,4,ITC_choice,943,j,0,0,240,397391,4563099
49,18,male,Belgium,4,129,ITC,win,5,right,4,ITC_wait,0,undefined,0,0,240,392385,4568105
49,18,male,Belgium,4,129,ITC,win,5,right,4,ITC_collect,1329,k,0,0,240,391052,4569438
49,18,male,Belgium,4,129,ITC,win,5,right,4,ITC_outcome,0,undefined,0,0,260,390036,4570454
49,18,male,Belgium,4,130,guess,loss,10,left,3,guess_start,347,space,0,0,260,389686,4570804
49,18,male,Belgium,4,130,guess,loss,10,left,3,guess_choice,448,j,0,0,260,389235,4571255
49,18,male,Belgium,4,130,guess,loss,10,left,3,guess_outcome,0,undefined,0,0,245,387681,4572809
49,18,male,Belgium,4,130,ITC,loss,10,left,3,ITC_start,578,space,0,0,245,387102,4573388
49,18,male,Belgium,4,130,ITC,loss,10,left,3,ITC_choice,654,f,0,0,245,386446,4574044
49,18,male,Belgium,4,130,ITC,loss,10,left,3,ITC_wait,0,undefined,0,0,245,376441,4584049
49,18,male,Belgium,4,130,ITC,loss,10,left,3,ITC_collect,597,k,0,0,245,375841,4584649
49,18,male,Belgium,4,130,ITC,loss,10,left,3,ITC_outcome,0,undefined,0,0,265,374837,4585653
49,18,male,Belgium,4,131,guess,neutral,5,right,5,guess_start,345,space,0,0,265,374489,4586001
49,18,male,Belgium,4,131,guess,neutral,5,right,5,guess_choice,364,f,0,0,265,374119,4586371
49,18,male,Belgium,4,131,guess,neutral,5,right,5,guess_outcome,0,undefined,0,0,265,372561,4587929
49,18,male,Belgium,4,131,ITC,neutral,5,right,5,ITC_start,434,space,0,0,265,372125,4588365
49,18,male,Belgium,4,131,ITC,neutral,5,right,5,ITC_choice,626,j,0,0,265,371496,4588994
49,18,male,Belgium,4,131,ITC,neutral,5,right,5,ITC_wait,0,undefined,0,0,265,366485,4594005
49,18,male,Belgium,4,131,ITC,neutral,5,right,5,ITC_collect,617,k,0,0,265,365866,4594624
49,18,male,Belgium,4,131,ITC,neutral,5,right,5,ITC_outcome,0,undefined,0,0,285,364850,4595640
49,18,male,Belgium,4,132,guess,loss,5,right,16,guess_start,348,space,0,0,285,364499,4595991
49,18,male,Belgium,4,132,guess,loss,5,right,16,guess_choice,308,j,0,0,285,364186,4596304
49,18,male,Belgium,4,132,guess,loss,5,right,16,guess_outcome,0,undefined,0,0,270,362629,4597861
49,18,male,Belgium,4,132,ITC,loss,5,right,16,ITC_start,368,space,0,0,270,362260,4598230
49,18,male,Belgium,4,132,ITC,loss,5,right,16,ITC_choice,1038,j,0,0,270,361220,4599270
49,18,male,Belgium,4,132,ITC,loss,5,right,16,ITC_wait,0,undefined,0,0,270,356207,4604283
49,18,male,Belgium,4,132,ITC,loss,5,right,16,ITC_collect,1571,k,0,0,270,354634,4605856
49,18,male,Belgium,4,132,ITC,loss,5,right,16,ITC_outcome,0,undefined,0,0,290,353616,4606874
49,18,male,Belgium,4,133,guess,loss,5,left,11,guess_start,443,space,0,0,290,353170,4607320
49,18,male,Belgium,4,133,guess,loss,5,left,11,guess_choice,539,f,0,0,290,352626,4607864
49,18,male,Belgium,4,133,guess,loss,5,left,11,guess_outcome,0,undefined,0,0,275,351071,4609419
49,18,male,Belgium,4,133,ITC,loss,5,left,11,ITC_start,865,space,0,0,275,350205,4610285
49,18,male,Belgium,4,133,ITC,loss,5,left,11,ITC_choice,680,f,0,0,275,349522,4610968
49,18,male,Belgium,4,133,ITC,loss,5,left,11,ITC_wait,0,undefined,0,0,275,344512,4615978
49,18,male,Belgium,4,133,ITC,loss,5,left,11,ITC_collect,1355,k,0,0,275,343155,4617335
49,18,male,Belgium,4,133,ITC,loss,5,left,11,ITC_outcome,0,undefined,0,0,295,342141,4618349
49,18,male,Belgium,4,134,guess,win,5,left,14,guess_start,268,space,0,0,295,341870,4618620
49,18,male,Belgium,4,134,guess,win,5,left,14,guess_choice,365,j,0,0,295,341501,4618989
49,18,male,Belgium,4,134,guess,win,5,left,14,guess_outcome,0,undefined,0,0,315,339941,4620549
49,18,male,Belgium,4,134,ITC,win,5,left,14,ITC_start,187,space,0,0,315,339752,4620738
49,18,male,Belgium,4,134,ITC,win,5,left,14,ITC_choice,626,f,0,0,315,339123,4621367
49,18,male,Belgium,4,134,ITC,win,5,left,14,ITC_wait,0,undefined,0,0,315,334105,4626385
49,18,male,Belgium,4,134,ITC,win,5,left,14,ITC_collect,527,k,0,0,315,333575,4626915
49,18,male,Belgium,4,134,ITC,win,5,left,14,ITC_outcome,0,undefined,0,0,335,332563,4627927
49,18,male,Belgium,4,135,guess,loss,10,right,7,guess_start,338,space,0,0,335,332222,4628268
49,18,male,Belgium,4,135,guess,loss,10,right,7,guess_choice,352,j,0,0,335,331866,4628624
49,18,male,Belgium,4,135,guess,loss,10,right,7,guess_outcome,0,undefined,0,0,320,330308,4630182
49,18,male,Belgium,4,135,ITC,loss,10,right,7,ITC_start,366,space,0,0,320,329940,4630550
49,18,male,Belgium,4,135,ITC,loss,10,right,7,ITC_choice,653,j,0,0,320,329284,4631206
49,18,male,Belgium,4,135,ITC,loss,10,right,7,ITC_wait,0,undefined,0,0,320,319277,4641213
49,18,male,Belgium,4,135,ITC,loss,10,right,7,ITC_collect,663,k,0,0,320,318611,4641879
49,18,male,Belgium,4,135,ITC,loss,10,right,7,ITC_outcome,0,undefined,0,0,340,317603,4642887
49,18,male,Belgium,4,136,guess,win,5,left,9,guess_start,341,space,0,0,340,317259,4643231
49,18,male,Belgium,4,136,guess,win,5,left,9,guess_choice,459,f,0,0,340,316795,4643695
49,18,male,Belgium,4,136,guess,win,5,left,9,guess_outcome,0,undefined,0,0,360,315241,4645249
49,18,male,Belgium,4,136,ITC,win,5,left,9,ITC_start,454,space,0,0,360,314784,4645706
49,18,male,Belgium,4,136,ITC,win,5,left,9,ITC_choice,612,f,0,0,360,314170,4646320
49,18,male,Belgium,4,136,ITC,win,5,left,9,ITC_wait,0,undefined,0,0,360,309152,4651338
49,18,male,Belgium,4,136,ITC,win,5,left,9,ITC_collect,514,k,0,0,360,308636,4651854
49,18,male,Belgium,4,136,ITC,win,5,left,9,ITC_outcome,0,undefined,0,0,380,307622,4652868
49,18,male,Belgium,4,137,guess,win,10,right,1,guess_start,448,space,0,0,380,307171,4653319
49,18,male,Belgium,4,137,guess,win,10,right,1,guess_choice,461,j,0,0,380,306708,4653782
49,18,male,Belgium,4,137,guess,win,10,right,1,guess_outcome,0,undefined,0,0,400,305150,4655340
49,18,male,Belgium,4,137,ITC,win,10,right,1,ITC_start,463,space,0,0,400,304685,4655805
49,18,male,Belgium,4,137,ITC,win,10,right,1,ITC_choice,763,j,0,0,400,303921,4656569
49,18,male,Belgium,4,137,ITC,win,10,right,1,ITC_wait,0,undefined,0,0,400,293907,4666583
49,18,male,Belgium,4,137,ITC,win,10,right,1,ITC_collect,669,k,0,0,400,293236,4667254
49,18,male,Belgium,4,137,ITC,win,10,right,1,ITC_outcome,0,undefined,0,0,420,292230,4668260
49,18,male,Belgium,4,138,guess,win,5,left,5,guess_start,359,space,0,0,420,291868,4668622
49,18,male,Belgium,4,138,guess,win,5,left,5,guess_choice,365,f,0,0,420,291498,4668992
49,18,male,Belgium,4,138,guess,win,5,left,5,guess_outcome,0,undefined,0,0,440,289933,4670557
49,18,male,Belgium,4,138,ITC,win,5,left,5,ITC_start,714,space,0,0,440,289217,4671273
49,18,male,Belgium,4,138,ITC,win,5,left,5,ITC_choice,654,f,0,0,440,288561,4671929
49,18,male,Belgium,4,138,ITC,win,5,left,5,ITC_wait,0,undefined,0,0,440,283544,4676946
49,18,male,Belgium,4,138,ITC,win,5,left,5,ITC_collect,995,k,0,0,440,282548,4677942
49,18,male,Belgium,4,138,ITC,win,5,left,5,ITC_outcome,0,undefined,0,0,460,281539,4678951
49,18,male,Belgium,4,139,guess,loss,5,right,12,guess_start,341,space,0,0,460,281195,4679295
49,18,male,Belgium,4,139,guess,loss,5,right,12,guess_choice,460,j,0,0,460,280730,4679760
49,18,male,Belgium,4,139,guess,loss,5,right,12,guess_outcome,0,undefined,0,0,445,279164,4681326
49,18,male,Belgium,4,139,ITC,loss,5,right,12,ITC_start,700,space,0,0,445,278462,4682028
49,18,male,Belgium,4,139,ITC,loss,5,right,12,ITC_choice,804,j,0,0,445,277656,4682834
49,18,male,Belgium,4,139,ITC,loss,5,right,12,ITC_wait,0,undefined,0,0,445,272645,4687845
49,18,male,Belgium,4,139,ITC,loss,5,right,12,ITC_collect,697,k,0,0,445,271946,4688544
49,18,male,Belgium,4,139,ITC,loss,5,right,12,ITC_outcome,0,undefined,0,0,465,270932,4689558
49,18,male,Belgium,4,140,guess,neutral,5,left,9,guess_start,340,space,0,0,465,270591,4689899
49,18,male,Belgium,4,140,guess,neutral,5,left,9,guess_choice,350,f,0,0,465,270235,4690255
49,18,male,Belgium,4,140,guess,neutral,5,left,9,guess_outcome,0,undefined,0,0,465,268681,4691809
49,18,male,Belgium,4,140,ITC,neutral,5,left,9,ITC_start,328,space,0,0,465,268350,4692140
49,18,male,Belgium,4,140,ITC,neutral,5,left,9,ITC_choice,639,f,0,0,465,267709,4692781
49,18,male,Belgium,4,140,ITC,neutral,5,left,9,ITC_wait,0,undefined,0,0,465,262707,4697783
49,18,male,Belgium,4,140,ITC,neutral,5,left,9,ITC_collect,626,k,0,0,465,262078,4698412
49,18,male,Belgium,4,140,ITC,neutral,5,left,9,ITC_outcome,0,undefined,0,0,485,261071,4699419
49,18,male,Belgium,4,141,guess,loss,10,left,2,guess_start,328,space,0,0,485,260738,4699752
49,18,male,Belgium,4,141,guess,loss,10,left,2,guess_choice,473,j,0,0,485,260260,4700230
49,18,male,Belgium,4,141,guess,loss,10,left,2,guess_outcome,0,undefined,0,0,470,258702,4701788
49,18,male,Belgium,4,141,ITC,loss,10,left,2,ITC_start,463,space,0,0,470,258239,4702251
49,18,male,Belgium,4,141,ITC,loss,10,left,2,ITC_choice,629,f,0,0,470,257609,4702881
49,18,male,Belgium,4,141,ITC,loss,10,left,2,ITC_wait,0,undefined,0,0,470,247592,4712898
49,18,male,Belgium,4,141,ITC,loss,10,left,2,ITC_collect,435,k,0,0,470,247154,4713336
49,18,male,Belgium,4,141,ITC,loss,10,left,2,ITC_outcome,0,undefined,0,0,490,246145,4714345
49,18,male,Belgium,4,142,guess,loss,5,left,14,guess_start,422,space,0,0,490,245720,4714770
49,18,male,Belgium,4,142,guess,loss,5,left,14,guess_choice,541,j,0,0,490,245174,4715316
49,18,male,Belgium,4,142,guess,loss,5,left,14,guess_outcome,0,undefined,0,0,475,243612,4716878
49,18,male,Belgium,4,142,ITC,loss,5,left,14,ITC_start,418,space,0,0,475,243192,4717298
49,18,male,Belgium,4,142,ITC,loss,5,left,14,ITC_choice,639,f,0,0,475,242550,4717940
49,18,male,Belgium,4,142,ITC,loss,5,left,14,ITC_wait,0,undefined,0,0,475,237539,4722951
49,18,male,Belgium,4,142,ITC,loss,5,left,14,ITC_collect,684,k,0,0,475,236852,4723638
49,18,male,Belgium,4,142,ITC,loss,5,left,14,ITC_outcome,0,undefined,0,0,495,235838,4724652
49,18,male,Belgium,4,143,guess,loss,5,left,3,guess_start,308,space,0,0,495,235526,4724964
49,18,male,Belgium,4,143,guess,loss,5,left,3,guess_choice,324,j,0,0,495,235198,4725292
49,18,male,Belgium,4,143,guess,loss,5,left,3,guess_outcome,0,undefined,0,0,480,233642,4726848
49,18,male,Belgium,4,143,ITC,loss,5,left,3,ITC_start,381,space,0,0,480,233259,4727231
49,18,male,Belgium,4,143,ITC,loss,5,left,3,ITC_choice,628,f,0,0,480,232630,4727860
49,18,male,Belgium,4,143,ITC,loss,5,left,3,ITC_wait,0,undefined,0,0,480,227616,4732874
49,18,male,Belgium,4,143,ITC,loss,5,left,3,ITC_collect,464,k,0,0,480,227149,4733341
49,18,male,Belgium,4,143,ITC,loss,5,left,3,ITC_outcome,0,undefined,0,0,500,226137,4734353
49,18,male,Belgium,4,144,guess,neutral,10,right,8,guess_start,352,space,0,0,500,225782,4734708
49,18,male,Belgium,4,144,guess,neutral,10,right,8,guess_choice,391,j,0,0,500,225386,4735104
