subjectID,age,gender,nationality,block_number,trial_number,trial_type,guess_outcome,delay_time,delay_pos,immediate_amount,stage,respRT,respKey,blur_count,focus_count,total_points,remaining_duration,time_elapsed
32,19,female,Belgian,1,1,guess,neutral,5,right,10,guess_start,6203,space,0,0,0,473796,313969
32,19,female,Belgian,1,1,guess,neutral,5,right,10,guess_choice,1301,f,0,0,0,472490,315275
32,19,female,Belgian,1,1,guess,neutral,5,right,10,guess_outcome,0,undefined,0,0,0,470933,316832
32,19,female,Belgian,1,1,ITC,neutral,5,right,10,ITC_start,4790,space,0,0,0,466141,321624
32,19,female,Belgian,1,1,ITC,neutral,5,right,10,ITC_choice,1912,j,0,0,0,464228,323537
32,19,female,Belgian,1,1,ITC,neutral,5,right,10,ITC_wait,0,undefined,0,0,0,459221,328544
32,19,female,Belgian,1,1,ITC,neutral,5,right,10,ITC_collect,1621,k,0,0,0,457598,330167
32,19,female,Belgian,1,1,ITC,neutral,5,right,10,ITC_outcome,0,undefined,0,0,20,456593,331172
32,19,female,Belgian,1,2,guess,loss,5,right,6,guess_start,2447,space,0,0,20,454143,333622
32,19,female,Belgian,1,2,guess,loss,5,right,6,guess_choice,2126,j,0,0,20,452014,335751
32,19,female,Belgian,1,2,guess,loss,5,right,6,guess_outcome,0,undefined,0,0,5,450458,337307
32,19,female,Belgian,1,2,ITC,loss,5,right,6,ITC_start,1622,space,0,0,5,448834,338931
32,19,female,Belgian,1,2,ITC,loss,5,right,6,ITC_choice,2606,j,0,0,5,446227,341538
32,19,female,Belgian,1,2,ITC,loss,5,right,6,ITC_wait,0,undefined,0,0,5,441222,346543
32,19,female,Belgian,1,2,ITC,loss,5,right,6,ITC_collect,897,k,0,0,5,440324,347441
32,19,female,Belgian,1,2,ITC,loss,5,right,6,ITC_outcome,0,undefined,0,0,25,439320,348445
32,19,female,Belgian,1,3,guess,win,5,right,5,guess_start,1406,space,0,0,25,437912,349853
32,19,female,Belgian,1,3,guess,win,5,right,5,guess_choice,3152,j,0,0,25,434758,353007
32,19,female,Belgian,1,3,guess,win,5,right,5,guess_outcome,0,undefined,0,0,45,433200,354565
32,19,female,Belgian,1,3,ITC,win,5,right,5,ITC_start,1150,space,0,0,45,432048,355717
32,19,female,Belgian,1,3,ITC,win,5,right,5,ITC_choice,2805,f,0,0,45,429242,358523
32,19,female,Belgian,1,3,ITC,win,5,right,5,ITC_wait,0,undefined,0,0,45,429240,358525
32,19,female,Belgian,1,3,ITC,win,5,right,5,ITC_collect,1779,k,0,0,45,427460,360305
32,19,female,Belgian,1,3,ITC,win,5,right,5,ITC_outcome,0,undefined,0,0,50,426454,361311
32,19,female,Belgian,1,4,guess,neutral,10,left,8,guess_start,1803,space,0,0,50,424650,363115
32,19,female,Belgian,1,4,guess,neutral,10,left,8,guess_choice,1339,j,0,0,50,423308,364457
32,19,female,Belgian,1,4,guess,neutral,10,left,8,guess_outcome,0,undefined,0,0,50,421753,366012
32,19,female,Belgian,1,4,ITC,neutral,10,left,8,ITC_start,1457,space,0,0,50,420295,367470
32,19,female,Belgian,1,4,ITC,neutral,10,left,8,ITC_choice,1115,j,0,0,50,419178,368587
32,19,female,Belgian,1,4,ITC,neutral,10,left,8,ITC_wait,0,undefined,0,0,50,419175,368590
32,19,female,Belgian,1,4,ITC,neutral,10,left,8,ITC_collect,1721,k,0,0,50,417453,370312
32,19,female,Belgian,1,4,ITC,neutral,10,left,8,ITC_outcome,0,undefined,0,0,58,416447,371318
32,19,female,Belgian,1,5,guess,neutral,5,right,16,guess_start,1121,space,0,0,58,415324,372441
32,19,female,Belgian,1,5,guess,neutral,5,right,16,guess_choice,1215,f,0,0,58,414106,373659
32,19,female,Belgian,1,5,guess,neutral,5,right,16,guess_outcome,0,undefined,0,0,58,412551,375214
32,19,female,Belgian,1,5,ITC,neutral,5,right,16,ITC_start,1600,space,0,0,58,410949,376816
32,19,female,Belgian,1,5,ITC,neutral,5,right,16,ITC_choice,2466,j,0,0,58,408482,379283
32,19,female,Belgian,1,5,ITC,neutral,5,right,16,ITC_wait,0,undefined,0,0,58,403480,384285
32,19,female,Belgian,1,5,ITC,neutral,5,right,16,ITC_collect,1162,k,0,0,58,402316,385449
32,19,female,Belgian,1,5,ITC,neutral,5,right,16,ITC_outcome,0,undefined,0,0,78,401313,386452
32,19,female,Belgian,1,6,guess,neutral,5,left,12,guess_start,1570,space,0,0,78,399741,388024
32,19,female,Belgian,1,6,guess,neutral,5,left,12,guess_choice,1036,j,0,0,78,398702,389063
32,19,female,Belgian,1,6,guess,neutral,5,left,12,guess_outcome,0,undefined,0,0,78,397145,390620
32,19,female,Belgian,1,6,ITC,neutral,5,left,12,ITC_start,806,space,0,0,78,396338,391427
32,19,female,Belgian,1,6,ITC,neutral,5,left,12,ITC_choice,1752,f,0,0,78,394584,393181
32,19,female,Belgian,1,6,ITC,neutral,5,left,12,ITC_wait,0,undefined,0,0,78,389579,398186
32,19,female,Belgian,1,6,ITC,neutral,5,left,12,ITC_collect,1128,k,0,0,78,388449,399316
32,19,female,Belgian,1,6,ITC,neutral,5,left,12,ITC_outcome,0,undefined,0,0,98,387445,400320
32,19,female,Belgian,1,7,guess,win,5,right,15,guess_start,1605,space,0,0,98,385838,401927
32,19,female,Belgian,1,7,guess,win,5,right,15,guess_choice,1383,f,0,0,98,384453,403312
32,19,female,Belgian,1,7,guess,win,5,right,15,guess_outcome,0,undefined,0,0,118,382899,404866
32,19,female,Belgian,1,7,ITC,win,5,right,15,ITC_start,1380,space,0,0,118,381517,406248
32,19,female,Belgian,1,7,ITC,win,5,right,15,ITC_choice,1773,f,0,0,118,379743,408022
32,19,female,Belgian,1,7,ITC,win,5,right,15,ITC_wait,0,undefined,0,0,118,379740,408025
32,19,female,Belgian,1,7,ITC,win,5,right,15,ITC_collect,2468,k,0,0,118,377271,410494
32,19,female,Belgian,1,7,ITC,win,5,right,15,ITC_outcome,0,undefined,0,0,133,376267,411498
32,19,female,Belgian,1,8,guess,neutral,10,right,7,guess_start,1937,space,0,0,133,374328,413437
32,19,female,Belgian,1,8,guess,neutral,10,right,7,guess_choice,847,j,0,0,133,373478,414287
32,19,female,Belgian,1,8,guess,neutral,10,right,7,guess_outcome,0,undefined,0,0,133,371925,415840
32,19,female,Belgian,1,8,ITC,neutral,10,right,7,ITC_start,1218,space,0,0,133,370706,417059
32,19,female,Belgian,1,8,ITC,neutral,10,right,7,ITC_choice,3508,f,0,0,133,367196,420569
32,19,female,Belgian,1,8,ITC,neutral,10,right,7,ITC_wait,0,undefined,0,0,133,367194,420571
32,19,female,Belgian,1,8,ITC,neutral,10,right,7,ITC_collect,1090,k,0,0,133,366103,421662
32,19,female,Belgian,1,8,ITC,neutral,10,right,7,ITC_outcome,0,undefined,0,0,140,365101,422664
32,19,female,Belgian,1,9,guess,neutral,5,right,5,guess_start,1134,space,0,0,140,363966,423799
32,19,female,Belgian,1,9,guess,neutral,5,right,5,guess_choice,779,f,0,0,140,363184,424581
32,19,female,Belgian,1,9,guess,neutral,5,right,5,guess_outcome,0,undefined,0,0,140,361627,426138
32,19,female,Belgian,1,9,ITC,neutral,5,right,5,ITC_start,1708,space,0,0,140,359918,427847
32,19,female,Belgian,1,9,ITC,neutral,5,right,5,ITC_choice,1990,j,0,0,140,357926,429839
32,19,female,Belgian,1,9,ITC,neutral,5,right,5,ITC_wait,0,undefined,0,0,140,352920,434845
32,19,female,Belgian,1,9,ITC,neutral,5,right,5,ITC_collect,910,k,0,0,140,352008,435757
32,19,female,Belgian,1,9,ITC,neutral,5,right,5,ITC_outcome,0,undefined,0,0,160,351002,436763
32,19,female,Belgian,1,10,guess,loss,5,right,12,guess_start,1056,space,0,0,160,349945,437820
32,19,female,Belgian,1,10,guess,loss,5,right,12,guess_choice,1114,j,0,0,160,348828,438937
32,19,female,Belgian,1,10,guess,loss,5,right,12,guess_outcome,0,undefined,0,0,145,347273,440492
32,19,female,Belgian,1,10,ITC,loss,5,right,12,ITC_start,2202,space,0,0,145,345070,442695
32,19,female,Belgian,1,10,ITC,loss,5,right,12,ITC_choice,2554,f,0,0,145,342515,445250
32,19,female,Belgian,1,10,ITC,loss,5,right,12,ITC_wait,0,undefined,0,0,145,342512,445253
32,19,female,Belgian,1,10,ITC,loss,5,right,12,ITC_collect,954,k,0,0,145,341557,446208
32,19,female,Belgian,1,10,ITC,loss,5,right,12,ITC_outcome,0,undefined,0,0,157,340551,447214
32,19,female,Belgian,1,11,guess,loss,5,left,5,guess_start,2258,space,0,0,157,338292,449473
32,19,female,Belgian,1,11,guess,loss,5,left,5,guess_choice,1053,j,0,0,157,337234,450531
32,19,female,Belgian,1,11,guess,loss,5,left,5,guess_outcome,0,undefined,0,0,142,335680,452085
32,19,female,Belgian,1,11,ITC,loss,5,left,5,ITC_start,2719,space,0,0,142,332960,454805
32,19,female,Belgian,1,11,ITC,loss,5,left,5,ITC_choice,2051,f,0,0,142,330908,456857
32,19,female,Belgian,1,11,ITC,loss,5,left,5,ITC_wait,0,undefined,0,0,142,325903,461862
32,19,female,Belgian,1,11,ITC,loss,5,left,5,ITC_collect,964,k,0,0,142,324938,462827
32,19,female,Belgian,1,11,ITC,loss,5,left,5,ITC_outcome,0,undefined,0,0,162,323936,463829
32,19,female,Belgian,1,12,guess,win,10,right,7,guess_start,2242,space,0,0,162,321693,466072
32,19,female,Belgian,1,12,guess,win,10,right,7,guess_choice,972,j,0,0,162,320718,467047
32,19,female,Belgian,1,12,guess,win,10,right,7,guess_outcome,0,undefined,0,0,182,319165,468600
32,19,female,Belgian,1,12,ITC,win,10,right,7,ITC_start,1091,space,0,0,182,318073,469692
32,19,female,Belgian,1,12,ITC,win,10,right,7,ITC_choice,1219,f,0,0,182,316853,470912
32,19,female,Belgian,1,12,ITC,win,10,right,7,ITC_wait,0,undefined,0,0,182,316850,470915
32,19,female,Belgian,1,12,ITC,win,10,right,7,ITC_collect,1178,k,0,0,182,315671,472094
32,19,female,Belgian,1,12,ITC,win,10,right,7,ITC_outcome,0,undefined,0,0,189,314667,473098
32,19,female,Belgian,1,13,guess,loss,5,left,13,guess_start,1309,space,0,0,189,313357,474408
32,19,female,Belgian,1,13,guess,loss,5,left,13,guess_choice,824,j,0,0,189,312531,475234
32,19,female,Belgian,1,13,guess,loss,5,left,13,guess_outcome,0,undefined,0,0,174,310978,476787
32,19,female,Belgian,1,13,ITC,loss,5,left,13,ITC_start,950,space,0,0,174,310027,477738
32,19,female,Belgian,1,13,ITC,loss,5,left,13,ITC_choice,1758,j,0,0,174,308267,479498
32,19,female,Belgian,1,13,ITC,loss,5,left,13,ITC_wait,0,undefined,0,0,174,308264,479501
32,19,female,Belgian,1,13,ITC,loss,5,left,13,ITC_collect,707,k,0,0,174,307557,480208
32,19,female,Belgian,1,13,ITC,loss,5,left,13,ITC_outcome,0,undefined,0,0,187,306554,481211
32,19,female,Belgian,1,14,guess,loss,10,right,6,guess_start,1034,space,0,0,187,305519,482246
32,19,female,Belgian,1,14,guess,loss,10,right,6,guess_choice,768,j,0,0,187,304748,483017
32,19,female,Belgian,1,14,guess,loss,10,right,6,guess_outcome,0,undefined,0,0,172,303195,484570
32,19,female,Belgian,1,14,ITC,loss,10,right,6,ITC_start,1562,space,0,0,172,301631,486134
32,19,female,Belgian,1,14,ITC,loss,10,right,6,ITC_choice,3284,f,0,0,172,298346,489419
32,19,female,Belgian,1,14,ITC,loss,10,right,6,ITC_wait,0,undefined,0,0,172,298343,489422
32,19,female,Belgian,1,14,ITC,loss,10,right,6,ITC_collect,2319,k,0,0,172,296023,491742
32,19,female,Belgian,1,14,ITC,loss,10,right,6,ITC_outcome,0,undefined,0,0,178,295017,492748
32,19,female,Belgian,1,15,guess,neutral,10,left,3,guess_start,763,space,0,0,178,294253,493512
32,19,female,Belgian,1,15,guess,neutral,10,left,3,guess_choice,1193,f,0,0,178,293057,494708
32,19,female,Belgian,1,15,guess,neutral,10,left,3,guess_outcome,0,undefined,0,0,178,291503,496262
32,19,female,Belgian,1,15,ITC,neutral,10,left,3,ITC_start,988,space,0,0,178,290514,497251
32,19,female,Belgian,1,15,ITC,neutral,10,left,3,ITC_choice,2568,f,0,0,178,287945,499820
32,19,female,Belgian,1,15,ITC,neutral,10,left,3,ITC_wait,0,undefined,0,0,178,277941,509824
32,19,female,Belgian,1,15,ITC,neutral,10,left,3,ITC_collect,1213,k,0,0,178,276726,511039
32,19,female,Belgian,1,15,ITC,neutral,10,left,3,ITC_outcome,0,undefined,0,0,198,275723,512042
32,19,female,Belgian,1,16,guess,win,5,right,3,guess_start,985,space,0,0,198,274737,513028
32,19,female,Belgian,1,16,guess,win,5,right,3,guess_choice,717,j,0,0,198,274017,513748
32,19,female,Belgian,1,16,guess,win,5,right,3,guess_outcome,0,undefined,0,0,218,272464,515301
32,19,female,Belgian,1,16,ITC,win,5,right,3,ITC_start,1067,space,0,0,218,271395,516370
32,19,female,Belgian,1,16,ITC,win,5,right,3,ITC_choice,1035,j,0,0,218,270359,517406
32,19,female,Belgian,1,16,ITC,win,5,right,3,ITC_wait,0,undefined,0,0,218,265357,522408
32,19,female,Belgian,1,16,ITC,win,5,right,3,ITC_collect,956,k,0,0,218,264400,523365
32,19,female,Belgian,1,16,ITC,win,5,right,3,ITC_outcome,0,undefined,0,0,238,263393,524372
32,19,female,Belgian,1,17,guess,win,5,right,13,guess_start,1126,space,0,0,238,262265,525500
32,19,female,Belgian,1,17,guess,win,5,right,13,guess_choice,1062,j,0,0,238,261200,526565
32,19,female,Belgian,1,17,guess,win,5,right,13,guess_outcome,0,undefined,0,0,258,259643,528122
32,19,female,Belgian,1,17,ITC,win,5,right,13,ITC_start,794,space,0,0,258,258847,528918
32,19,female,Belgian,1,17,ITC,win,5,right,13,ITC_choice,1075,j,0,0,258,257771,529994
32,19,female,Belgian,1,17,ITC,win,5,right,13,ITC_wait,0,undefined,0,0,258,252768,534997
32,19,female,Belgian,1,17,ITC,win,5,right,13,ITC_collect,904,k,0,0,258,251861,535904
32,19,female,Belgian,1,17,ITC,win,5,right,13,ITC_outcome,0,undefined,0,0,278,250857,536908
32,19,female,Belgian,1,18,guess,win,5,right,7,guess_start,675,space,0,0,278,250181,537584
32,19,female,Belgian,1,18,guess,win,5,right,7,guess_choice,720,f,0,0,278,249458,538307
32,19,female,Belgian,1,18,guess,win,5,right,7,guess_outcome,0,undefined,0,0,298,247903,539862
32,19,female,Belgian,1,18,ITC,win,5,right,7,ITC_start,1169,space,0,0,298,246733,541032
32,19,female,Belgian,1,18,ITC,win,5,right,7,ITC_choice,1264,j,0,0,298,245467,542298
32,19,female,Belgian,1,18,ITC,win,5,right,7,ITC_wait,0,undefined,0,0,298,240465,547300
32,19,female,Belgian,1,18,ITC,win,5,right,7,ITC_collect,1223,k,0,0,298,239240,548525
32,19,female,Belgian,1,18,ITC,win,5,right,7,ITC_outcome,0,undefined,0,0,318,238234,549531
32,19,female,Belgian,1,19,guess,win,10,right,5,guess_start,1508,space,0,0,318,236724,551041
32,19,female,Belgian,1,19,guess,win,10,right,5,guess_choice,1735,f,0,0,318,234987,552778
32,19,female,Belgian,1,19,guess,win,10,right,5,guess_outcome,0,undefined,0,0,338,233432,554333
32,19,female,Belgian,1,19,ITC,win,10,right,5,ITC_start,1093,space,0,0,338,232338,555427
32,19,female,Belgian,1,19,ITC,win,10,right,5,ITC_choice,1660,f,0,0,338,230677,557088
32,19,female,Belgian,1,19,ITC,win,10,right,5,ITC_wait,0,undefined,0,0,338,230674,557091
32,19,female,Belgian,1,19,ITC,win,10,right,5,ITC_collect,1613,k,0,0,338,229060,558705
32,19,female,Belgian,1,19,ITC,win,10,right,5,ITC_outcome,0,undefined,0,0,343,228053,559712
32,19,female,Belgian,1,20,guess,loss,10,left,7,guess_start,965,space,0,0,343,227087,560678
32,19,female,Belgian,1,20,guess,loss,10,left,7,guess_choice,2410,j,0,0,343,224675,563090
32,19,female,Belgian,1,20,guess,loss,10,left,7,guess_outcome,0,undefined,0,0,328,223118,564647
32,19,female,Belgian,1,20,ITC,loss,10,left,7,ITC_start,1521,space,0,0,328,221595,566170
32,19,female,Belgian,1,20,ITC,loss,10,left,7,ITC_choice,1271,j,0,0,328,220323,567442
32,19,female,Belgian,1,20,ITC,loss,10,left,7,ITC_wait,0,undefined,0,0,328,220320,567445
32,19,female,Belgian,1,20,ITC,loss,10,left,7,ITC_collect,1765,k,0,0,328,218554,569211
32,19,female,Belgian,1,20,ITC,loss,10,left,7,ITC_outcome,0,undefined,0,0,335,217551,570214
32,19,female,Belgian,1,21,guess,win,5,left,4,guess_start,661,space,0,0,335,216887,570878
32,19,female,Belgian,1,21,guess,win,5,left,4,guess_choice,750,f,0,0,335,216132,571633
32,19,female,Belgian,1,21,guess,win,5,left,4,guess_outcome,0,undefined,0,0,355,214575,573190
32,19,female,Belgian,1,21,ITC,win,5,left,4,ITC_start,1253,space,0,0,355,213321,574444
32,19,female,Belgian,1,21,ITC,win,5,left,4,ITC_choice,1710,f,0,0,355,211610,576155
32,19,female,Belgian,1,21,ITC,win,5,left,4,ITC_wait,0,undefined,0,0,355,206607,581158
32,19,female,Belgian,1,21,ITC,win,5,left,4,ITC_collect,911,k,0,0,355,205695,582070
32,19,female,Belgian,1,21,ITC,win,5,left,4,ITC_outcome,0,undefined,0,0,375,204692,583073
32,19,female,Belgian,1,22,guess,win,5,left,1,guess_start,602,space,0,0,375,204088,583677
32,19,female,Belgian,1,22,guess,win,5,left,1,guess_choice,692,j,0,0,375,203394,584371
32,19,female,Belgian,1,22,guess,win,5,left,1,guess_outcome,0,undefined,0,0,395,201838,585927
32,19,female,Belgian,1,22,ITC,win,5,left,1,ITC_start,1310,space,0,0,395,200527,587238
32,19,female,Belgian,1,22,ITC,win,5,left,1,ITC_choice,1156,f,0,0,395,199369,588396
32,19,female,Belgian,1,22,ITC,win,5,left,1,ITC_wait,0,undefined,0,0,395,194363,593402
32,19,female,Belgian,1,22,ITC,win,5,left,1,ITC_collect,1122,k,0,0,395,193239,594526
32,19,female,Belgian,1,22,ITC,win,5,left,1,ITC_outcome,0,undefined,0,0,415,192236,595529
32,19,female,Belgian,1,23,guess,loss,5,left,8,guess_start,1317,space,0,0,415,190918,596847
32,19,female,Belgian,1,23,guess,loss,5,left,8,guess_choice,601,j,0,0,415,190314,597451
32,19,female,Belgian,1,23,guess,loss,5,left,8,guess_outcome,0,undefined,0,0,400,188758,599007
32,19,female,Belgian,1,23,ITC,loss,5,left,8,ITC_start,813,space,0,0,400,187944,599821
32,19,female,Belgian,1,23,ITC,loss,5,left,8,ITC_choice,1201,j,0,0,400,186742,601023
32,19,female,Belgian,1,23,ITC,loss,5,left,8,ITC_wait,0,undefined,0,0,400,186739,601026
32,19,female,Belgian,1,23,ITC,loss,5,left,8,ITC_collect,1472,k,0,0,400,185266,602499
32,19,female,Belgian,1,23,ITC,loss,5,left,8,ITC_outcome,0,undefined,0,0,408,184260,603505
32,19,female,Belgian,1,24,guess,win,10,left,4,guess_start,600,space,0,0,408,183658,604107
32,19,female,Belgian,1,24,guess,win,10,left,4,guess_choice,741,j,0,0,408,182914,604851
32,19,female,Belgian,1,24,guess,win,10,left,4,guess_outcome,0,undefined,0,0,428,181361,606404
32,19,female,Belgian,1,24,ITC,win,10,left,4,ITC_start,830,space,0,0,428,180530,607235
32,19,female,Belgian,1,24,ITC,win,10,left,4,ITC_choice,1756,f,0,0,428,178773,608992
32,19,female,Belgian,1,24,ITC,win,10,left,4,ITC_wait,0,undefined,0,0,428,168769,618996
32,19,female,Belgian,1,24,ITC,win,10,left,4,ITC_collect,857,k,0,0,428,167911,619854
32,19,female,Belgian,1,24,ITC,win,10,left,4,ITC_outcome,0,undefined,0,0,448,166905,620860
32,19,female,Belgian,1,25,guess,win,10,left,2,guess_start,999,space,0,0,448,165904,621861
32,19,female,Belgian,1,25,guess,win,10,left,2,guess_choice,875,j,0,0,448,165028,622737
32,19,female,Belgian,1,25,guess,win,10,left,2,guess_outcome,0,undefined,0,0,468,163474,624291
32,19,female,Belgian,1,25,ITC,win,10,left,2,ITC_start,1140,space,0,0,468,162333,625432
32,19,female,Belgian,1,25,ITC,win,10,left,2,ITC_choice,2601,f,0,0,468,159731,628034
32,19,female,Belgian,1,25,ITC,win,10,left,2,ITC_wait,0,undefined,0,0,468,149725,638040
32,19,female,Belgian,1,25,ITC,win,10,left,2,ITC_collect,562,k,0,0,468,149161,638604
32,19,female,Belgian,1,25,ITC,win,10,left,2,ITC_outcome,0,undefined,0,0,488,148157,639608
32,19,female,Belgian,1,26,guess,loss,5,left,1,guess_start,556,space,0,0,488,147599,640166
32,19,female,Belgian,1,26,guess,loss,5,left,1,guess_choice,614,j,0,0,488,146983,640782
32,19,female,Belgian,1,26,guess,loss,5,left,1,guess_outcome,0,undefined,0,0,473,145426,642339
32,19,female,Belgian,1,26,ITC,loss,5,left,1,ITC_start,870,space,0,0,473,144555,643210
32,19,female,Belgian,1,26,ITC,loss,5,left,1,ITC_choice,1133,f,0,0,473,143420,644345
32,19,female,Belgian,1,26,ITC,loss,5,left,1,ITC_wait,0,undefined,0,0,473,138414,649351
32,19,female,Belgian,1,26,ITC,loss,5,left,1,ITC_collect,856,k,0,0,473,137556,650209
32,19,female,Belgian,1,26,ITC,loss,5,left,1,ITC_outcome,0,undefined,0,0,493,136553,651212
32,19,female,Belgian,1,27,guess,win,5,left,16,guess_start,752,space,0,0,493,135800,651965
32,19,female,Belgian,1,27,guess,win,5,left,16,guess_choice,655,j,0,0,493,135143,652622
32,19,female,Belgian,1,27,guess,win,5,left,16,guess_outcome,0,undefined,0,0,513,133589,654176
32,19,female,Belgian,1,27,ITC,win,5,left,16,ITC_start,937,space,0,0,513,132650,655115
32,19,female,Belgian,1,27,ITC,win,5,left,16,ITC_choice,1765,j,0,0,513,130884,656881
32,19,female,Belgian,1,27,ITC,win,5,left,16,ITC_wait,0,undefined,0,0,513,130882,656883
32,19,female,Belgian,1,27,ITC,win,5,left,16,ITC_collect,1153,k,0,0,513,129727,658038
32,19,female,Belgian,1,27,ITC,win,5,left,16,ITC_outcome,0,undefined,0,0,529,128723,659042
32,19,female,Belgian,1,28,guess,neutral,5,right,15,guess_start,547,space,0,0,529,128174,659591
32,19,female,Belgian,1,28,guess,neutral,5,right,15,guess_choice,917,j,0,0,529,127255,660510
32,19,female,Belgian,1,28,guess,neutral,5,right,15,guess_outcome,0,undefined,0,0,529,125701,662064
32,19,female,Belgian,1,28,ITC,neutral,5,right,15,ITC_start,850,space,0,0,529,124850,662915
32,19,female,Belgian,1,28,ITC,neutral,5,right,15,ITC_choice,1818,f,0,0,529,123030,664735
32,19,female,Belgian,1,28,ITC,neutral,5,right,15,ITC_wait,0,undefined,0,0,529,123027,664738
32,19,female,Belgian,1,28,ITC,neutral,5,right,15,ITC_collect,954,k,0,0,529,122072,665693
32,19,female,Belgian,1,28,ITC,neutral,5,right,15,ITC_outcome,0,undefined,0,0,544,121069,666696
32,19,female,Belgian,1,29,guess,neutral,10,right,2,guess_start,622,space,0,0,544,120446,667319
32,19,female,Belgian,1,29,guess,neutral,10,right,2,guess_choice,771,j,0,0,544,119673,668092
32,19,female,Belgian,1,29,guess,neutral,10,right,2,guess_outcome,0,undefined,0,0,544,118119,669646
32,19,female,Belgian,1,29,ITC,neutral,10,right,2,ITC_start,1060,space,0,0,544,117057,670708
32,19,female,Belgian,1,29,ITC,neutral,10,right,2,ITC_choice,1754,j,0,0,544,115302,672463
32,19,female,Belgian,1,29,ITC,neutral,10,right,2,ITC_wait,0,undefined,0,0,544,105299,682466
32,19,female,Belgian,1,29,ITC,neutral,10,right,2,ITC_collect,828,k,0,0,544,104469,683296
32,19,female,Belgian,1,29,ITC,neutral,10,right,2,ITC_outcome,0,undefined,0,0,564,103467,684298
32,19,female,Belgian,1,30,guess,neutral,10,right,5,guess_start,1154,space,0,0,564,102311,685454
32,19,female,Belgian,1,30,guess,neutral,10,right,5,guess_choice,979,f,0,0,564,101329,686436
32,19,female,Belgian,1,30,guess,neutral,10,right,5,guess_outcome,0,undefined,0,0,564,99771,687994
32,19,female,Belgian,1,30,ITC,neutral,10,right,5,ITC_start,2250,space,0,0,564,97520,690245
32,19,female,Belgian,1,30,ITC,neutral,10,right,5,ITC_choice,1481,j,0,0,564,96038,691727
32,19,female,Belgian,1,30,ITC,neutral,10,right,5,ITC_wait,0,undefined,0,0,564,86033,701732
32,19,female,Belgian,1,30,ITC,neutral,10,right,5,ITC_collect,1375,k,0,0,564,84656,703109
32,19,female,Belgian,1,30,ITC,neutral,10,right,5,ITC_outcome,0,undefined,0,0,584,83649,704116
32,19,female,Belgian,1,31,guess,win,5,left,14,guess_start,709,space,0,0,584,82939,704826
32,19,female,Belgian,1,31,guess,win,5,left,14,guess_choice,1077,j,0,0,584,81859,705906
32,19,female,Belgian,1,31,guess,win,5,left,14,guess_outcome,0,undefined,0,0,604,80304,707461
32,19,female,Belgian,1,31,ITC,win,5,left,14,ITC_start,1587,space,0,0,604,78715,709050
32,19,female,Belgian,1,31,ITC,win,5,left,14,ITC_choice,1103,j,0,0,604,77611,710154
32,19,female,Belgian,1,31,ITC,win,5,left,14,ITC_wait,0,undefined,0,0,604,77609,710156
32,19,female,Belgian,1,31,ITC,win,5,left,14,ITC_collect,1171,k,0,0,604,76437,711328
32,19,female,Belgian,1,31,ITC,win,5,left,14,ITC_outcome,0,undefined,0,0,618,75435,712330
32,19,female,Belgian,1,32,guess,neutral,10,right,1,guess_start,614,space,0,0,618,74819,712946
32,19,female,Belgian,1,32,guess,neutral,10,right,1,guess_choice,709,f,0,0,618,74106,713659
32,19,female,Belgian,1,32,guess,neutral,10,right,1,guess_outcome,0,undefined,0,0,618,72553,715212
32,19,female,Belgian,1,32,ITC,neutral,10,right,1,ITC_start,1496,space,0,0,618,71056,716709
32,19,female,Belgian,1,32,ITC,neutral,10,right,1,ITC_choice,1268,j,0,0,618,69787,717978
32,19,female,Belgian,1,32,ITC,neutral,10,right,1,ITC_wait,0,undefined,0,0,618,59783,727982
32,19,female,Belgian,1,32,ITC,neutral,10,right,1,ITC_collect,380,k,0,0,618,59401,728364
32,19,female,Belgian,1,32,ITC,neutral,10,right,1,ITC_outcome,0,undefined,0,0,638,58397,729368
32,19,female,Belgian,1,33,guess,neutral,10,right,6,guess_start,572,space,0,0,638,57823,729942
32,19,female,Belgian,1,33,guess,neutral,10,right,6,guess_choice,699,j,0,0,638,57122,730643
32,19,female,Belgian,1,33,guess,neutral,10,right,6,guess_outcome,0,undefined,0,0,638,55564,732201
32,19,female,Belgian,1,33,ITC,neutral,10,right,6,ITC_start,882,space,0,0,638,54681,733084
32,19,female,Belgian,1,33,ITC,neutral,10,right,6,ITC_choice,1445,j,0,0,638,53235,734530
32,19,female,Belgian,1,33,ITC,neutral,10,right,6,ITC_wait,0,undefined,0,0,638,43233,744532
32,19,female,Belgian,1,33,ITC,neutral,10,right,6,ITC_collect,885,k,0,0,638,42346,745419
32,19,female,Belgian,1,33,ITC,neutral,10,right,6,ITC_outcome,0,undefined,0,0,658,41342,746423
32,19,female,Belgian,1,34,guess,loss,5,left,16,guess_start,744,space,0,0,658,40596,747169
32,19,female,Belgian,1,34,guess,loss,5,left,16,guess_choice,668,f,0,0,658,39925,747840
32,19,female,Belgian,1,34,guess,loss,5,left,16,guess_outcome,0,undefined,0,0,643,38371,749394
32,19,female,Belgian,1,34,ITC,loss,5,left,16,ITC_start,1268,space,0,0,643,37102,750663
32,19,female,Belgian,1,34,ITC,loss,5,left,16,ITC_choice,922,j,0,0,643,36179,751586
32,19,female,Belgian,1,34,ITC,loss,5,left,16,ITC_wait,0,undefined,0,0,643,36177,751588
32,19,female,Belgian,1,34,ITC,loss,5,left,16,ITC_collect,1600,k,0,0,643,34576,753189
32,19,female,Belgian,1,34,ITC,loss,5,left,16,ITC_outcome,0,undefined,0,0,659,33572,754193
32,19,female,Belgian,1,35,guess,loss,5,left,10,guess_start,546,space,0,0,659,33024,754741
32,19,female,Belgian,1,35,guess,loss,5,left,10,guess_choice,848,j,0,0,659,32174,755591
32,19,female,Belgian,1,35,guess,loss,5,left,10,guess_outcome,0,undefined,0,0,644,30616,757149
32,19,female,Belgian,1,35,ITC,loss,5,left,10,ITC_start,1081,space,0,0,644,29534,758231
32,19,female,Belgian,1,35,ITC,loss,5,left,10,ITC_choice,2501,f,0,0,644,27031,760734
32,19,female,Belgian,1,35,ITC,loss,5,left,10,ITC_wait,0,undefined,0,0,644,22025,765740
32,19,female,Belgian,1,35,ITC,loss,5,left,10,ITC_collect,722,k,0,0,644,21300,766465
32,19,female,Belgian,1,35,ITC,loss,5,left,10,ITC_outcome,0,undefined,0,0,664,20297,767468
32,19,female,Belgian,1,36,guess,neutral,5,right,9,guess_start,931,space,0,0,664,19364,768401
32,19,female,Belgian,1,36,guess,neutral,5,right,9,guess_choice,790,j,0,0,664,18572,769193
32,19,female,Belgian,1,36,guess,neutral,5,right,9,guess_outcome,0,undefined,0,0,664,17018,770747
32,19,female,Belgian,1,36,ITC,neutral,5,right,9,ITC_start,977,space,0,0,664,16040,771725
32,19,female,Belgian,1,36,ITC,neutral,5,right,9,ITC_choice,1524,j,0,0,664,14514,773251
32,19,female,Belgian,1,36,ITC,neutral,5,right,9,ITC_wait,0,undefined,0,0,664,9510,778255
32,19,female,Belgian,1,36,ITC,neutral,5,right,9,ITC_collect,840,k,0,0,664,8668,779097
32,19,female,Belgian,1,36,ITC,neutral,5,right,9,ITC_outcome,0,undefined,0,0,684,7664,780101
32,19,female,Belgian,1,37,guess,win,10,right,6,guess_start,978,space,0,0,684,6685,781080
32,19,female,Belgian,1,37,guess,win,10,right,6,guess_choice,688,f,0,0,684,5994,781771
32,19,female,Belgian,1,37,guess,win,10,right,6,guess_outcome,0,undefined,0,0,704,4437,783328
32,19,female,Belgian,1,37,ITC,win,10,right,6,ITC_start,671,space,0,0,704,3765,784000
32,19,female,Belgian,1,37,ITC,win,10,right,6,ITC_choice,2039,f,0,0,704,1725,786040
32,19,female,Belgian,1,37,ITC,win,10,right,6,ITC_wait,0,undefined,0,0,704,1721,786044
32,19,female,Belgian,1,37,ITC,win,10,right,6,ITC_collect,1082,k,0,0,704,638,787127
32,19,female,Belgian,1,37,ITC,win,10,right,6,ITC_outcome,0,undefined,0,0,710,-3,787768
32,19,female,Belgian,2,38,guess,neutral,5,right,4,guess_start,3477,space,0,0,0,476522,863314
32,19,female,Belgian,2,38,guess,neutral,5,right,4,guess_choice,1360,f,0,0,0,475160,864676
32,19,female,Belgian,2,38,guess,neutral,5,right,4,guess_outcome,0,undefined,0,0,0,473603,866233
32,19,female,Belgian,2,38,ITC,neutral,5,right,4,ITC_start,898,space,0,0,0,472704,867132
32,19,female,Belgian,2,38,ITC,neutral,5,right,4,ITC_choice,1248,j,0,0,0,471454,868382
32,19,female,Belgian,2,38,ITC,neutral,5,right,4,ITC_wait,0,undefined,0,0,0,466450,873386
32,19,female,Belgian,2,38,ITC,neutral,5,right,4,ITC_collect,1630,k,0,0,0,464818,875018
32,19,female,Belgian,2,38,ITC,neutral,5,right,4,ITC_outcome,0,undefined,0,0,20,463817,876019
32,19,female,Belgian,2,39,guess,neutral,5,right,3,guess_start,1641,space,0,0,20,462174,877662
32,19,female,Belgian,2,39,guess,neutral,5,right,3,guess_choice,688,j,0,0,20,461484,878352
32,19,female,Belgian,2,39,guess,neutral,5,right,3,guess_outcome,0,undefined,0,0,20,459930,879906
32,19,female,Belgian,2,39,ITC,neutral,5,right,3,ITC_start,1504,space,0,0,20,458425,881411
32,19,female,Belgian,2,39,ITC,neutral,5,right,3,ITC_choice,1041,j,0,0,20,457383,882453
32,19,female,Belgian,2,39,ITC,neutral,5,right,3,ITC_wait,0,undefined,0,0,20,452380,887456
32,19,female,Belgian,2,39,ITC,neutral,5,right,3,ITC_collect,745,k,0,0,20,451634,888202
32,19,female,Belgian,2,39,ITC,neutral,5,right,3,ITC_outcome,0,undefined,0,0,40,450630,889206
32,19,female,Belgian,2,40,guess,loss,10,right,2,guess_start,651,space,0,0,40,449978,889858
32,19,female,Belgian,2,40,guess,loss,10,right,2,guess_choice,703,j,0,0,40,449273,890563
32,19,female,Belgian,2,40,guess,loss,10,right,2,guess_outcome,0,undefined,0,0,25,447719,892117
32,19,female,Belgian,2,40,ITC,loss,10,right,2,ITC_start,1152,space,0,0,25,446565,893271
32,19,female,Belgian,2,40,ITC,loss,10,right,2,ITC_choice,1683,j,0,0,25,444879,894957
32,19,female,Belgian,2,40,ITC,loss,10,right,2,ITC_wait,0,undefined,0,0,25,434877,904959
32,19,female,Belgian,2,40,ITC,loss,10,right,2,ITC_collect,998,k,0,0,25,433878,905958
32,19,female,Belgian,2,40,ITC,loss,10,right,2,ITC_outcome,0,undefined,0,0,45,432873,906963
32,19,female,Belgian,2,41,guess,neutral,5,left,14,guess_start,783,space,0,0,45,432089,907747
32,19,female,Belgian,2,41,guess,neutral,5,left,14,guess_choice,719,f,0,0,45,431368,908468
32,19,female,Belgian,2,41,guess,neutral,5,left,14,guess_outcome,0,undefined,0,0,45,429815,910021
32,19,female,Belgian,2,41,ITC,neutral,5,left,14,ITC_start,1110,space,0,0,45,428704,911132
32,19,female,Belgian,2,41,ITC,neutral,5,left,14,ITC_choice,1641,f,0,0,45,427061,912775
32,19,female,Belgian,2,41,ITC,neutral,5,left,14,ITC_wait,0,undefined,0,0,45,422056,917780
32,19,female,Belgian,2,41,ITC,neutral,5,left,14,ITC_collect,717,k,0,0,45,421338,918498
32,19,female,Belgian,2,41,ITC,neutral,5,left,14,ITC_outcome,0,undefined,0,0,65,420332,919504
32,19,female,Belgian,2,42,guess,loss,5,right,2,guess_start,707,space,0,0,65,419623,920213
32,19,female,Belgian,2,42,guess,loss,5,right,2,guess_choice,644,j,0,0,65,418977,920859
32,19,female,Belgian,2,42,guess,loss,5,right,2,guess_outcome,0,undefined,0,0,50,417421,922415
32,19,female,Belgian,2,42,ITC,loss,5,right,2,ITC_start,1035,space,0,0,50,416385,923451
32,19,female,Belgian,2,42,ITC,loss,5,right,2,ITC_choice,1005,j,0,0,50,415379,924457
32,19,female,Belgian,2,42,ITC,loss,5,right,2,ITC_wait,0,undefined,0,0,50,410375,929461
32,19,female,Belgian,2,42,ITC,loss,5,right,2,ITC_collect,1611,k,0,0,50,408762,931074
32,19,female,Belgian,2,42,ITC,loss,5,right,2,ITC_outcome,0,undefined,0,0,70,407759,932077
32,19,female,Belgian,2,43,guess,neutral,5,left,1,guess_start,689,space,0,0,70,407068,932768
32,19,female,Belgian,2,43,guess,neutral,5,left,1,guess_choice,660,j,0,0,70,406406,933430
32,19,female,Belgian,2,43,guess,neutral,5,left,1,guess_outcome,0,undefined,0,0,70,404853,934983
32,19,female,Belgian,2,43,ITC,neutral,5,left,1,ITC_start,836,space,0,0,70,404016,935820
32,19,female,Belgian,2,43,ITC,neutral,5,left,1,ITC_choice,1305,f,0,0,70,402709,937127
32,19,female,Belgian,2,43,ITC,neutral,5,left,1,ITC_wait,0,undefined,0,0,70,397703,942133
32,19,female,Belgian,2,43,ITC,neutral,5,left,1,ITC_collect,668,k,0,0,70,397034,942802
32,19,female,Belgian,2,43,ITC,neutral,5,left,1,ITC_outcome,0,undefined,0,0,90,396031,943805
32,19,female,Belgian,2,44,guess,win,10,right,1,guess_start,890,space,0,0,90,395139,944697
32,19,female,Belgian,2,44,guess,win,10,right,1,guess_choice,842,j,0,0,90,394294,945542
32,19,female,Belgian,2,44,guess,win,10,right,1,guess_outcome,0,undefined,0,0,110,392741,947095
32,19,female,Belgian,2,44,ITC,win,10,right,1,ITC_start,1061,space,0,0,110,391679,948157
32,19,female,Belgian,2,44,ITC,win,10,right,1,ITC_choice,1618,j,0,0,110,390060,949776
32,19,female,Belgian,2,44,ITC,win,10,right,1,ITC_wait,0,undefined,0,0,110,380053,959783
32,19,female,Belgian,2,44,ITC,win,10,right,1,ITC_collect,748,k,0,0,110,379304,960532
32,19,female,Belgian,2,44,ITC,win,10,right,1,ITC_outcome,0,undefined,0,0,130,378301,961535
32,19,female,Belgian,2,45,guess,loss,10,left,1,guess_start,829,space,0,0,130,377469,962367
32,19,female,Belgian,2,45,guess,loss,10,left,1,guess_choice,713,f,0,0,130,376754,963082
32,19,female,Belgian,2,45,guess,loss,10,left,1,guess_outcome,0,undefined,0,0,115,375197,964639
32,19,female,Belgian,2,45,ITC,loss,10,left,1,ITC_start,3466,space,0,0,115,371729,968107
32,19,female,Belgian,2,45,ITC,loss,10,left,1,ITC_choice,1035,f,0,0,115,370693,969143
32,19,female,Belgian,2,45,ITC,loss,10,left,1,ITC_wait,0,undefined,0,0,115,360690,979146
32,19,female,Belgian,2,45,ITC,loss,10,left,1,ITC_collect,477,k,0,0,115,360211,979625
32,19,female,Belgian,2,45,ITC,loss,10,left,1,ITC_outcome,0,undefined,0,0,135,359205,980631
32,19,female,Belgian,2,46,guess,neutral,5,left,2,guess_start,2724,space,0,0,135,356479,983357
32,19,female,Belgian,2,46,guess,neutral,5,left,2,guess_choice,779,j,0,0,135,355699,984137
32,19,female,Belgian,2,46,guess,neutral,5,left,2,guess_outcome,0,undefined,0,0,135,354144,985692
32,19,female,Belgian,2,46,ITC,neutral,5,left,2,ITC_start,2903,space,0,0,135,351239,988597
32,19,female,Belgian,2,46,ITC,neutral,5,left,2,ITC_choice,935,f,0,0,135,350303,989533
32,19,female,Belgian,2,46,ITC,neutral,5,left,2,ITC_wait,0,undefined,0,0,135,345298,994538
32,19,female,Belgian,2,46,ITC,neutral,5,left,2,ITC_collect,665,k,0,0,135,344632,995204
32,19,female,Belgian,2,46,ITC,neutral,5,left,2,ITC_outcome,0,undefined,0,0,155,343626,996210
32,19,female,Belgian,2,47,guess,loss,10,right,5,guess_start,1988,space,0,0,155,341636,998200
32,19,female,Belgian,2,47,guess,loss,10,right,5,guess_choice,665,j,0,0,155,340969,998867
32,19,female,Belgian,2,47,guess,loss,10,right,5,guess_outcome,0,undefined,0,0,140,339414,1000422
32,19,female,Belgian,2,47,ITC,loss,10,right,5,ITC_start,970,space,0,0,140,338442,1001394
32,19,female,Belgian,2,47,ITC,loss,10,right,5,ITC_choice,1248,j,0,0,140,337193,1002643
32,19,female,Belgian,2,47,ITC,loss,10,right,5,ITC_wait,0,undefined,0,0,140,327186,1012650
32,19,female,Belgian,2,47,ITC,loss,10,right,5,ITC_collect,1109,k,0,0,140,326076,1013760
32,19,female,Belgian,2,47,ITC,loss,10,right,5,ITC_outcome,0,undefined,0,0,160,325072,1014764
32,19,female,Belgian,2,48,guess,win,10,left,3,guess_start,1326,space,0,0,160,323744,1016092
32,19,female,Belgian,2,48,guess,win,10,left,3,guess_choice,593,j,0,0,160,323148,1016688
32,19,female,Belgian,2,48,guess,win,10,left,3,guess_outcome,0,undefined,0,0,180,321594,1018242
32,19,female,Belgian,2,48,ITC,win,10,left,3,ITC_start,973,space,0,0,180,320620,1019216
32,19,female,Belgian,2,48,ITC,win,10,left,3,ITC_choice,1443,f,0,0,180,319177,1020659
32,19,female,Belgian,2,48,ITC,win,10,left,3,ITC_wait,0,undefined,0,0,180,309173,1030663
32,19,female,Belgian,2,48,ITC,win,10,left,3,ITC_collect,757,k,0,0,180,308415,1031421
32,19,female,Belgian,2,48,ITC,win,10,left,3,ITC_outcome,0,undefined,0,0,200,307413,1032423
32,19,female,Belgian,2,49,guess,neutral,5,left,6,guess_start,1148,space,0,0,200,306262,1033574
32,19,female,Belgian,2,49,guess,neutral,5,left,6,guess_choice,743,f,0,0,200,305516,1034320
32,19,female,Belgian,2,49,guess,neutral,5,left,6,guess_outcome,0,undefined,0,0,200,303962,1035874
32,19,female,Belgian,2,49,ITC,neutral,5,left,6,ITC_start,848,space,0,0,200,303112,1036724
32,19,female,Belgian,2,49,ITC,neutral,5,left,6,ITC_choice,801,f,0,0,200,302310,1037526
32,19,female,Belgian,2,49,ITC,neutral,5,left,6,ITC_wait,0,undefined,0,0,200,297308,1042528
32,19,female,Belgian,2,49,ITC,neutral,5,left,6,ITC_collect,650,k,0,0,200,296656,1043180
32,19,female,Belgian,2,49,ITC,neutral,5,left,6,ITC_outcome,0,undefined,0,0,220,295652,1044184
32,19,female,Belgian,2,50,guess,loss,10,left,8,guess_start,705,space,0,0,220,294945,1044891
32,19,female,Belgian,2,50,guess,loss,10,left,8,guess_choice,972,j,0,0,220,293970,1045866
32,19,female,Belgian,2,50,guess,loss,10,left,8,guess_outcome,0,undefined,0,0,205,292414,1047422
32,19,female,Belgian,2,50,ITC,loss,10,left,8,ITC_start,733,space,0,0,205,291679,1048157
32,19,female,Belgian,2,50,ITC,loss,10,left,8,ITC_choice,1560,j,0,0,205,290117,1049719
32,19,female,Belgian,2,50,ITC,loss,10,left,8,ITC_wait,0,undefined,0,0,205,290115,1049721
32,19,female,Belgian,2,50,ITC,loss,10,left,8,ITC_collect,894,k,0,0,205,289218,1050618
32,19,female,Belgian,2,50,ITC,loss,10,left,8,ITC_outcome,0,undefined,0,0,213,288215,1051621
32,19,female,Belgian,2,51,guess,win,10,left,8,guess_start,1112,space,0,0,213,287102,1052734
32,19,female,Belgian,2,51,guess,win,10,left,8,guess_choice,788,j,0,0,213,286311,1053525
32,19,female,Belgian,2,51,guess,win,10,left,8,guess_outcome,0,undefined,0,0,233,284755,1055081
32,19,female,Belgian,2,51,ITC,win,10,left,8,ITC_start,720,space,0,0,233,284033,1055803
32,19,female,Belgian,2,51,ITC,win,10,left,8,ITC_choice,1091,j,0,0,233,282941,1056895
32,19,female,Belgian,2,51,ITC,win,10,left,8,ITC_wait,0,undefined,0,0,233,282939,1056897
32,19,female,Belgian,2,51,ITC,win,10,left,8,ITC_collect,1198,k,0,0,233,281740,1058096
32,19,female,Belgian,2,51,ITC,win,10,left,8,ITC_outcome,0,undefined,0,0,241,280737,1059099
32,19,female,Belgian,2,52,guess,loss,10,left,3,guess_start,808,space,0,0,241,279927,1059909
32,19,female,Belgian,2,52,guess,loss,10,left,3,guess_choice,725,j,0,0,241,279200,1060636
32,19,female,Belgian,2,52,guess,loss,10,left,3,guess_outcome,0,undefined,0,0,226,277643,1062193
32,19,female,Belgian,2,52,ITC,loss,10,left,3,ITC_start,876,space,0,0,226,276765,1063071
32,19,female,Belgian,2,52,ITC,loss,10,left,3,ITC_choice,1290,f,0,0,226,275474,1064362
32,19,female,Belgian,2,52,ITC,loss,10,left,3,ITC_wait,0,undefined,0,0,226,265471,1074365
32,19,female,Belgian,2,52,ITC,loss,10,left,3,ITC_collect,796,k,0,0,226,264673,1075163
32,19,female,Belgian,2,52,ITC,loss,10,left,3,ITC_outcome,0,undefined,0,0,246,263670,1076166
32,19,female,Belgian,2,53,guess,win,5,left,12,guess_start,834,space,0,0,246,262834,1077002
32,19,female,Belgian,2,53,guess,win,5,left,12,guess_choice,912,j,0,0,246,261919,1077917
32,19,female,Belgian,2,53,guess,win,5,left,12,guess_outcome,0,undefined,0,0,266,260366,1079470
32,19,female,Belgian,2,53,ITC,win,5,left,12,ITC_start,1268,space,0,0,266,259096,1080740
32,19,female,Belgian,2,53,ITC,win,5,left,12,ITC_choice,1436,j,0,0,266,257659,1082177
32,19,female,Belgian,2,53,ITC,win,5,left,12,ITC_wait,0,undefined,0,0,266,257657,1082179
32,19,female,Belgian,2,53,ITC,win,5,left,12,ITC_collect,934,k,0,0,266,256721,1083115
32,19,female,Belgian,2,53,ITC,win,5,left,12,ITC_outcome,0,undefined,0,0,278,255718,1084118
32,19,female,Belgian,2,54,guess,neutral,5,right,8,guess_start,678,space,0,0,278,255039,1084797
32,19,female,Belgian,2,54,guess,neutral,5,right,8,guess_choice,952,f,0,0,278,254084,1085752
32,19,female,Belgian,2,54,guess,neutral,5,right,8,guess_outcome,0,undefined,0,0,278,252531,1087305
32,19,female,Belgian,2,54,ITC,neutral,5,right,8,ITC_start,926,space,0,0,278,251604,1088232
32,19,female,Belgian,2,54,ITC,neutral,5,right,8,ITC_choice,953,j,0,0,278,250649,1089187
32,19,female,Belgian,2,54,ITC,neutral,5,right,8,ITC_wait,0,undefined,0,0,278,245648,1094188
32,19,female,Belgian,2,54,ITC,neutral,5,right,8,ITC_collect,386,k,0,0,278,245260,1094576
32,19,female,Belgian,2,54,ITC,neutral,5,right,8,ITC_outcome,0,undefined,0,0,298,244258,1095578
32,19,female,Belgian,2,55,guess,neutral,5,left,11,guess_start,619,space,0,0,298,243637,1096199
32,19,female,Belgian,2,55,guess,neutral,5,left,11,guess_choice,656,f,0,0,298,242979,1096857
32,19,female,Belgian,2,55,guess,neutral,5,left,11,guess_outcome,0,undefined,0,0,298,241423,1098413
32,19,female,Belgian,2,55,ITC,neutral,5,left,11,ITC_start,2235,space,0,0,298,239187,1100649
32,19,female,Belgian,2,55,ITC,neutral,5,left,11,ITC_choice,1622,j,0,0,298,237565,1102271
32,19,female,Belgian,2,55,ITC,neutral,5,left,11,ITC_wait,0,undefined,0,0,298,237562,1102274
32,19,female,Belgian,2,55,ITC,neutral,5,left,11,ITC_collect,661,k,0,0,298,236900,1102936
32,19,female,Belgian,2,55,ITC,neutral,5,left,11,ITC_outcome,0,undefined,0,0,309,235895,1103941
32,19,female,Belgian,2,56,guess,win,5,right,2,guess_start,863,space,0,0,309,235031,1104805
32,19,female,Belgian,2,56,guess,win,5,right,2,guess_choice,1015,f,0,0,309,234012,1105824
32,19,female,Belgian,2,56,guess,win,5,right,2,guess_outcome,0,undefined,0,0,329,232460,1107376
32,19,female,Belgian,2,56,ITC,win,5,right,2,ITC_start,1081,space,0,0,329,231378,1108458
32,19,female,Belgian,2,56,ITC,win,5,right,2,ITC_choice,1371,j,0,0,329,230005,1109831
32,19,female,Belgian,2,56,ITC,win,5,right,2,ITC_wait,0,undefined,0,0,329,225004,1114832
32,19,female,Belgian,2,56,ITC,win,5,right,2,ITC_collect,706,k,0,0,329,224296,1115540
32,19,female,Belgian,2,56,ITC,win,5,right,2,ITC_outcome,0,undefined,0,0,349,223292,1116544
32,19,female,Belgian,2,57,guess,win,5,left,11,guess_start,1019,space,0,0,349,222270,1117566
32,19,female,Belgian,2,57,guess,win,5,left,11,guess_choice,582,f,0,0,349,221685,1118151
32,19,female,Belgian,2,57,guess,win,5,left,11,guess_outcome,0,undefined,0,0,369,220130,1119706
32,19,female,Belgian,2,57,ITC,win,5,left,11,ITC_start,1080,space,0,0,369,219049,1120787
32,19,female,Belgian,2,57,ITC,win,5,left,11,ITC_choice,2407,j,0,0,369,216640,1123196
32,19,female,Belgian,2,57,ITC,win,5,left,11,ITC_wait,0,undefined,0,0,369,216637,1123199
32,19,female,Belgian,2,57,ITC,win,5,left,11,ITC_collect,485,k,0,0,369,216150,1123686
32,19,female,Belgian,2,57,ITC,win,5,left,11,ITC_outcome,0,undefined,0,0,380,215145,1124691
32,19,female,Belgian,2,58,guess,win,5,right,10,guess_start,893,space,0,0,380,214251,1125585
32,19,female,Belgian,2,58,guess,win,5,right,10,guess_choice,592,f,0,0,380,213657,1126179
32,19,female,Belgian,2,58,guess,win,5,right,10,guess_outcome,0,undefined,0,0,400,212100,1127736
32,19,female,Belgian,2,58,ITC,win,5,right,10,ITC_start,775,space,0,0,400,211325,1128511
32,19,female,Belgian,2,58,ITC,win,5,right,10,ITC_choice,903,j,0,0,400,210420,1129416
32,19,female,Belgian,2,58,ITC,win,5,right,10,ITC_wait,0,undefined,0,0,400,205418,1134418
32,19,female,Belgian,2,58,ITC,win,5,right,10,ITC_collect,591,k,0,0,400,204826,1135010
32,19,female,Belgian,2,58,ITC,win,5,right,10,ITC_outcome,0,undefined,0,0,420,203820,1136016
32,19,female,Belgian,2,59,guess,loss,5,right,3,guess_start,835,space,0,0,420,202984,1136852
32,19,female,Belgian,2,59,guess,loss,5,right,3,guess_choice,585,f,0,0,420,202395,1137441
32,19,female,Belgian,2,59,guess,loss,5,right,3,guess_outcome,0,undefined,0,0,405,200841,1138995
32,19,female,Belgian,2,59,ITC,loss,5,right,3,ITC_start,696,space,0,0,405,200144,1139692
32,19,female,Belgian,2,59,ITC,loss,5,right,3,ITC_choice,1318,j,0,0,405,198825,1141011
32,19,female,Belgian,2,59,ITC,loss,5,right,3,ITC_wait,0,undefined,0,0,405,193821,1146015
32,19,female,Belgian,2,59,ITC,loss,5,right,3,ITC_collect,2508,k,0,0,405,191312,1148524
32,19,female,Belgian,2,59,ITC,loss,5,right,3,ITC_outcome,0,undefined,0,0,425,190305,1149531
32,19,female,Belgian,2,60,guess,win,5,right,9,guess_start,459,space,0,0,425,189845,1149991
32,19,female,Belgian,2,60,guess,win,5,right,9,guess_choice,667,j,0,0,425,189175,1150661
32,19,female,Belgian,2,60,guess,win,5,right,9,guess_outcome,0,undefined,0,0,445,187620,1152216
32,19,female,Belgian,2,60,ITC,win,5,right,9,ITC_start,1444,space,0,0,445,186175,1153661
32,19,female,Belgian,2,60,ITC,win,5,right,9,ITC_choice,1717,f,0,0,445,184456,1155380
32,19,female,Belgian,2,60,ITC,win,5,right,9,ITC_wait,0,undefined,0,0,445,184453,1155383
32,19,female,Belgian,2,60,ITC,win,5,right,9,ITC_collect,603,k,0,0,445,183849,1155987
32,19,female,Belgian,2,60,ITC,win,5,right,9,ITC_outcome,0,undefined,0,0,454,182846,1156990
32,19,female,Belgian,2,61,guess,loss,5,left,4,guess_start,732,space,0,0,454,182112,1157724
32,19,female,Belgian,2,61,guess,loss,5,left,4,guess_choice,694,j,0,0,454,181416,1158420
32,19,female,Belgian,2,61,guess,loss,5,left,4,guess_outcome,0,undefined,0,0,439,179860,1159976
32,19,female,Belgian,2,61,ITC,loss,5,left,4,ITC_start,1554,space,0,0,439,178305,1161531
32,19,female,Belgian,2,61,ITC,loss,5,left,4,ITC_choice,987,f,0,0,439,177316,1162520
32,19,female,Belgian,2,61,ITC,loss,5,left,4,ITC_wait,0,undefined,0,0,439,172311,1167525
32,19,female,Belgian,2,61,ITC,loss,5,left,4,ITC_collect,385,k,0,0,439,171925,1167911
32,19,female,Belgian,2,61,ITC,loss,5,left,4,ITC_outcome,0,undefined,0,0,459,170921,1168915
32,19,female,Belgian,2,62,guess,loss,5,left,15,guess_start,897,space,0,0,459,170022,1169814
32,19,female,Belgian,2,62,guess,loss,5,left,15,guess_choice,579,j,0,0,459,169440,1170396
32,19,female,Belgian,2,62,guess,loss,5,left,15,guess_outcome,0,undefined,0,0,444,167885,1171951
32,19,female,Belgian,2,62,ITC,loss,5,left,15,ITC_start,1458,space,0,0,444,166426,1173410
32,19,female,Belgian,2,62,ITC,loss,5,left,15,ITC_choice,1116,j,0,0,444,165308,1174528
32,19,female,Belgian,2,62,ITC,loss,5,left,15,ITC_wait,0,undefined,0,0,444,165306,1174530
32,19,female,Belgian,2,62,ITC,loss,5,left,15,ITC_collect,873,k,0,0,444,164432,1175404
32,19,female,Belgian,2,62,ITC,loss,5,left,15,ITC_outcome,0,undefined,0,0,459,163429,1176407
32,19,female,Belgian,2,63,guess,neutral,5,left,13,guess_start,935,space,0,0,459,162491,1177345
32,19,female,Belgian,2,63,guess,neutral,5,left,13,guess_choice,698,f,0,0,459,161790,1178046
32,19,female,Belgian,2,63,guess,neutral,5,left,13,guess_outcome,0,undefined,0,0,459,160237,1179599
32,19,female,Belgian,2,63,ITC,neutral,5,left,13,ITC_start,1471,space,0,0,459,158765,1181071
32,19,female,Belgian,2,63,ITC,neutral,5,left,13,ITC_choice,1298,j,0,0,459,157465,1182371
32,19,female,Belgian,2,63,ITC,neutral,5,left,13,ITC_wait,0,undefined,0,0,459,157463,1182373
32,19,female,Belgian,2,63,ITC,neutral,5,left,13,ITC_collect,980,k,0,0,459,156482,1183354
32,19,female,Belgian,2,63,ITC,neutral,5,left,13,ITC_outcome,0,undefined,0,0,472,155476,1184360
32,19,female,Belgian,2,64,guess,win,5,left,8,guess_start,524,space,0,0,472,154951,1184885
32,19,female,Belgian,2,64,guess,win,5,left,8,guess_choice,684,j,0,0,472,154264,1185572
32,19,female,Belgian,2,64,guess,win,5,left,8,guess_outcome,0,undefined,0,0,492,152710,1187126
32,19,female,Belgian,2,64,ITC,win,5,left,8,ITC_start,784,space,0,0,492,151924,1187912
32,19,female,Belgian,2,64,ITC,win,5,left,8,ITC_choice,1632,f,0,0,492,150290,1189546
32,19,female,Belgian,2,64,ITC,win,5,left,8,ITC_wait,0,undefined,0,0,492,145280,1194556
32,19,female,Belgian,2,64,ITC,win,5,left,8,ITC_collect,1000,k,0,0,492,144276,1195560
32,19,female,Belgian,2,64,ITC,win,5,left,8,ITC_outcome,0,undefined,0,0,512,143265,1196571
32,19,female,Belgian,2,65,guess,neutral,5,left,7,guess_start,898,space,0,0,512,142365,1197471
32,19,female,Belgian,2,65,guess,neutral,5,left,7,guess_choice,722,f,0,0,512,141640,1198196
32,19,female,Belgian,2,65,guess,neutral,5,left,7,guess_outcome,0,undefined,0,0,512,140085,1199751
32,19,female,Belgian,2,65,ITC,neutral,5,left,7,ITC_start,960,space,0,0,512,139123,1200713
32,19,female,Belgian,2,65,ITC,neutral,5,left,7,ITC_choice,1653,f,0,0,512,137470,1202366
32,19,female,Belgian,2,65,ITC,neutral,5,left,7,ITC_wait,0,undefined,0,0,512,132466,1207370
32,19,female,Belgian,2,65,ITC,neutral,5,left,7,ITC_collect,650,k,0,0,512,131815,1208021
32,19,female,Belgian,2,65,ITC,neutral,5,left,7,ITC_outcome,0,undefined,0,0,532,130808,1209028
32,19,female,Belgian,2,66,guess,loss,5,left,14,guess_start,774,space,0,0,532,130032,1209804
32,19,female,Belgian,2,66,guess,loss,5,left,14,guess_choice,666,j,0,0,532,129364,1210472
32,19,female,Belgian,2,66,guess,loss,5,left,14,guess_outcome,0,undefined,0,0,517,127811,1212025
32,19,female,Belgian,2,66,ITC,loss,5,left,14,ITC_start,479,space,0,0,517,127331,1212505
32,19,female,Belgian,2,66,ITC,loss,5,left,14,ITC_choice,879,j,0,0,517,126450,1213386
32,19,female,Belgian,2,66,ITC,loss,5,left,14,ITC_wait,0,undefined,0,0,517,126448,1213388
32,19,female,Belgian,2,66,ITC,loss,5,left,14,ITC_collect,722,k,0,0,517,125726,1214110
32,19,female,Belgian,2,66,ITC,loss,5,left,14,ITC_outcome,0,undefined,0,0,531,124723,1215113
32,19,female,Belgian,2,67,guess,loss,5,right,7,guess_start,835,space,0,0,531,123887,1215949
32,19,female,Belgian,2,67,guess,loss,5,right,7,guess_choice,644,f,0,0,531,123241,1216595
32,19,female,Belgian,2,67,guess,loss,5,right,7,guess_outcome,0,undefined,0,0,516,121687,1218149
32,19,female,Belgian,2,67,ITC,loss,5,right,7,ITC_start,744,space,0,0,516,120942,1218894
32,19,female,Belgian,2,67,ITC,loss,5,right,7,ITC_choice,1023,j,0,0,516,119917,1219919
32,19,female,Belgian,2,67,ITC,loss,5,right,7,ITC_wait,0,undefined,0,0,516,114915,1224921
32,19,female,Belgian,2,67,ITC,loss,5,right,7,ITC_collect,1717,k,0,0,516,113196,1226640
32,19,female,Belgian,2,67,ITC,loss,5,right,7,ITC_outcome,0,undefined,0,0,536,112194,1227642
32,19,female,Belgian,2,68,guess,loss,5,right,9,guess_start,712,space,0,0,536,111480,1228356
32,19,female,Belgian,2,68,guess,loss,5,right,9,guess_choice,683,j,0,0,536,110794,1229042
32,19,female,Belgian,2,68,guess,loss,5,right,9,guess_outcome,0,undefined,0,0,521,109241,1230595
32,19,female,Belgian,2,68,ITC,loss,5,right,9,ITC_start,1293,space,0,0,521,107947,1231889
32,19,female,Belgian,2,68,ITC,loss,5,right,9,ITC_choice,1453,f,0,0,521,106492,1233344
32,19,female,Belgian,2,68,ITC,loss,5,right,9,ITC_wait,0,undefined,0,0,521,106490,1233346
32,19,female,Belgian,2,68,ITC,loss,5,right,9,ITC_collect,617,k,0,0,521,105872,1233964
32,19,female,Belgian,2,68,ITC,loss,5,right,9,ITC_outcome,0,undefined,0,0,530,104869,1234967
32,19,female,Belgian,2,69,guess,loss,5,left,11,guess_start,877,space,0,0,530,103991,1235845
32,19,female,Belgian,2,69,guess,loss,5,left,11,guess_choice,770,j,0,0,530,103217,1236619
32,19,female,Belgian,2,69,guess,loss,5,left,11,guess_outcome,0,undefined,0,0,515,101661,1238175
32,19,female,Belgian,2,69,ITC,loss,5,left,11,ITC_start,573,space,0,0,515,101087,1238749
32,19,female,Belgian,2,69,ITC,loss,5,left,11,ITC_choice,1211,j,0,0,515,99875,1239961
32,19,female,Belgian,2,69,ITC,loss,5,left,11,ITC_wait,0,undefined,0,0,515,99872,1239964
32,19,female,Belgian,2,69,ITC,loss,5,left,11,ITC_collect,904,k,0,0,515,98967,1240869
32,19,female,Belgian,2,69,ITC,loss,5,left,11,ITC_outcome,0,undefined,0,0,526,97962,1241874
32,19,female,Belgian,2,70,guess,neutral,10,right,4,guess_start,718,space,0,0,526,97243,1242593
32,19,female,Belgian,2,70,guess,neutral,10,right,4,guess_choice,785,f,0,0,526,96455,1243381
32,19,female,Belgian,2,70,guess,neutral,10,right,4,guess_outcome,0,undefined,0,0,526,94900,1244936
32,19,female,Belgian,2,70,ITC,neutral,10,right,4,ITC_start,1101,space,0,0,526,93797,1246039
32,19,female,Belgian,2,70,ITC,neutral,10,right,4,ITC_choice,1660,j,0,0,526,92136,1247700
32,19,female,Belgian,2,70,ITC,neutral,10,right,4,ITC_wait,0,undefined,0,0,526,82132,1257704
32,19,female,Belgian,2,70,ITC,neutral,10,right,4,ITC_collect,593,k,0,0,526,81538,1258298
32,19,female,Belgian,2,70,ITC,neutral,10,right,4,ITC_outcome,0,undefined,0,0,546,80535,1259301
32,19,female,Belgian,2,71,guess,loss,10,left,4,guess_start,1784,space,0,0,546,78750,1261086
32,19,female,Belgian,2,71,guess,loss,10,left,4,guess_choice,719,j,0,0,546,78027,1261809
32,19,female,Belgian,2,71,guess,loss,10,left,4,guess_outcome,0,undefined,0,0,531,76473,1263363
32,19,female,Belgian,2,71,ITC,loss,10,left,4,ITC_start,974,space,0,0,531,75498,1264338
32,19,female,Belgian,2,71,ITC,loss,10,left,4,ITC_choice,980,f,0,0,531,74516,1265320
32,19,female,Belgian,2,71,ITC,loss,10,left,4,ITC_wait,0,undefined,0,0,531,64514,1275322
32,19,female,Belgian,2,71,ITC,loss,10,left,4,ITC_collect,1292,k,0,0,531,63220,1276616
32,19,female,Belgian,2,71,ITC,loss,10,left,4,ITC_outcome,0,undefined,0,0,551,62215,1277621
32,19,female,Belgian,2,72,guess,win,5,right,6,guess_start,1179,space,0,0,551,61035,1278801
32,19,female,Belgian,2,72,guess,win,5,right,6,guess_choice,719,j,0,0,551,60313,1279523
32,19,female,Belgian,2,72,guess,win,5,right,6,guess_outcome,0,undefined,0,0,571,58756,1281080
32,19,female,Belgian,2,72,ITC,win,5,right,6,ITC_start,1002,space,0,0,571,57752,1282084
32,19,female,Belgian,2,72,ITC,win,5,right,6,ITC_choice,982,j,0,0,571,56769,1283067
32,19,female,Belgian,2,72,ITC,win,5,right,6,ITC_wait,0,undefined,0,0,571,51766,1288070
32,19,female,Belgian,2,72,ITC,win,5,right,6,ITC_collect,484,k,0,0,571,51280,1288556
32,19,female,Belgian,2,72,ITC,win,5,right,6,ITC_outcome,0,undefined,0,0,591,50275,1289561
32,19,female,Belgian,2,73,guess,loss,5,left,5,guess_start,667,space,0,0,591,49605,1290231
32,19,female,Belgian,2,73,guess,loss,5,left,5,guess_choice,883,j,0,0,591,48720,1291116
32,19,female,Belgian,2,73,guess,loss,5,left,5,guess_outcome,0,undefined,0,0,576,47164,1292672
32,19,female,Belgian,2,73,ITC,loss,5,left,5,ITC_start,1032,space,0,0,576,46131,1293705
32,19,female,Belgian,2,73,ITC,loss,5,left,5,ITC_choice,1036,f,0,0,576,45093,1294743
32,19,female,Belgian,2,73,ITC,loss,5,left,5,ITC_wait,0,undefined,0,0,576,40089,1299747
32,19,female,Belgian,2,73,ITC,loss,5,left,5,ITC_collect,789,k,0,0,576,39297,1300539
32,19,female,Belgian,2,73,ITC,loss,5,left,5,ITC_outcome,0,undefined,0,0,596,38295,1301541
32,19,female,Belgian,2,74,guess,win,5,right,3,guess_start,859,space,0,0,596,37434,1302402
32,19,female,Belgian,2,74,guess,win,5,right,3,guess_choice,696,j,0,0,596,36736,1303100
32,19,female,Belgian,2,74,guess,win,5,right,3,guess_outcome,0,undefined,0,0,616,35178,1304658
32,19,female,Belgian,2,74,ITC,win,5,right,3,ITC_start,715,space,0,0,616,34463,1305373
32,19,female,Belgian,2,74,ITC,win,5,right,3,ITC_choice,918,j,0,0,616,33543,1306293
32,19,female,Belgian,2,74,ITC,win,5,right,3,ITC_wait,0,undefined,0,0,616,28537,1311299
32,19,female,Belgian,2,74,ITC,win,5,right,3,ITC_collect,518,k,0,0,616,28017,1311819
32,19,female,Belgian,2,74,ITC,win,5,right,3,ITC_outcome,0,undefined,0,0,636,27015,1312821
32,19,female,Belgian,2,75,guess,loss,5,left,7,guess_start,816,space,0,0,636,26197,1313639
32,19,female,Belgian,2,75,guess,loss,5,left,7,guess_choice,679,f,0,0,636,25516,1314320
32,19,female,Belgian,2,75,guess,loss,5,left,7,guess_outcome,0,undefined,0,0,621,23959,1315877
32,19,female,Belgian,2,75,ITC,loss,5,left,7,ITC_start,936,space,0,0,621,23022,1316814
32,19,female,Belgian,2,75,ITC,loss,5,left,7,ITC_choice,1472,j,0,0,621,21548,1318288
32,19,female,Belgian,2,75,ITC,loss,5,left,7,ITC_wait,0,undefined,0,0,621,21544,1318292
32,19,female,Belgian,2,75,ITC,loss,5,left,7,ITC_collect,1024,k,0,0,621,20519,1319317
32,19,female,Belgian,2,75,ITC,loss,5,left,7,ITC_outcome,0,undefined,0,0,628,19517,1320319
32,19,female,Belgian,2,76,guess,loss,10,right,1,guess_start,645,space,0,0,628,18870,1320966
32,19,female,Belgian,2,76,guess,loss,10,right,1,guess_choice,736,j,0,0,628,18131,1321705
32,19,female,Belgian,2,76,guess,loss,10,right,1,guess_outcome,0,undefined,0,0,613,16574,1323262
32,19,female,Belgian,2,76,ITC,loss,10,right,1,ITC_start,811,space,0,0,613,15762,1324074
32,19,female,Belgian,2,76,ITC,loss,10,right,1,ITC_choice,988,j,0,0,613,14773,1325063
32,19,female,Belgian,2,76,ITC,loss,10,right,1,ITC_wait,0,undefined,0,0,613,4769,1335067
32,19,female,Belgian,2,76,ITC,loss,10,right,1,ITC_collect,1123,k,0,0,613,3645,1336191
32,19,female,Belgian,2,76,ITC,loss,10,right,1,ITC_outcome,0,undefined,0,0,633,2642,1337194
32,19,female,Belgian,2,77,guess,win,5,left,8,guess_start,749,space,0,0,633,1891,1337945
32,19,female,Belgian,2,77,guess,win,5,left,8,guess_choice,787,j,0,0,633,1101,1338735
32,19,female,Belgian,2,77,guess,win,5,left,8,guess_outcome,0,undefined,0,0,653,-7,1339843
32,19,female,Belgian,3,78,guess,neutral,5,right,2,guess_start,8249,space,0,0,0,471750,1435429
32,19,female,Belgian,3,78,guess,neutral,5,right,2,guess_choice,1157,j,0,0,0,470591,1436588
32,19,female,Belgian,3,78,guess,neutral,5,right,2,guess_outcome,0,undefined,0,0,0,469032,1438147
32,19,female,Belgian,3,78,ITC,neutral,5,right,2,ITC_start,2078,space,0,0,0,466953,1440226
32,19,female,Belgian,3,78,ITC,neutral,5,right,2,ITC_choice,1377,j,0,0,0,465574,1441605
32,19,female,Belgian,3,78,ITC,neutral,5,right,2,ITC_wait,0,undefined,0,0,0,460571,1446608
32,19,female,Belgian,3,78,ITC,neutral,5,right,2,ITC_collect,498,k,0,0,0,460072,1447107
32,19,female,Belgian,3,78,ITC,neutral,5,right,2,ITC_outcome,0,undefined,0,0,20,459066,1448113
32,19,female,Belgian,3,79,guess,neutral,5,left,14,guess_start,915,space,0,0,20,458149,1449030
32,19,female,Belgian,3,79,guess,neutral,5,left,14,guess_choice,683,f,0,0,20,457463,1449716
32,19,female,Belgian,3,79,guess,neutral,5,left,14,guess_outcome,0,undefined,0,0,20,455905,1451274
32,19,female,Belgian,3,79,ITC,neutral,5,left,14,ITC_start,764,space,0,0,20,455140,1452039
32,19,female,Belgian,3,79,ITC,neutral,5,left,14,ITC_choice,1231,j,0,0,20,453908,1453271
32,19,female,Belgian,3,79,ITC,neutral,5,left,14,ITC_wait,0,undefined,0,0,20,453905,1453274
32,19,female,Belgian,3,79,ITC,neutral,5,left,14,ITC_collect,797,k,0,0,20,453107,1454072
32,19,female,Belgian,3,79,ITC,neutral,5,left,14,ITC_outcome,0,undefined,0,0,34,452101,1455078
32,19,female,Belgian,3,80,guess,loss,5,left,14,guess_start,825,space,0,0,34,451274,1455905
32,19,female,Belgian,3,80,guess,loss,5,left,14,guess_choice,705,j,0,0,34,450566,1456613
32,19,female,Belgian,3,80,guess,loss,5,left,14,guess_outcome,0,undefined,0,0,19,449011,1458168
32,19,female,Belgian,3,80,ITC,loss,5,left,14,ITC_start,1090,space,0,0,19,447919,1459260
32,19,female,Belgian,3,80,ITC,loss,5,left,14,ITC_choice,884,j,0,0,19,447034,1460145
32,19,female,Belgian,3,80,ITC,loss,5,left,14,ITC_wait,0,undefined,0,0,19,447032,1460147
32,19,female,Belgian,3,80,ITC,loss,5,left,14,ITC_collect,979,k,0,0,19,446050,1461129
32,19,female,Belgian,3,80,ITC,loss,5,left,14,ITC_outcome,0,undefined,0,0,33,445044,1462135
32,19,female,Belgian,3,81,guess,win,10,right,8,guess_start,708,space,0,0,33,444335,1462844
32,19,female,Belgian,3,81,guess,win,10,right,8,guess_choice,1191,j,0,0,33,443141,1464038
32,19,female,Belgian,3,81,guess,win,10,right,8,guess_outcome,0,undefined,0,0,53,441586,1465593
32,19,female,Belgian,3,81,ITC,win,10,right,8,ITC_start,808,space,0,0,53,440777,1466402
32,19,female,Belgian,3,81,ITC,win,10,right,8,ITC_choice,1487,j,0,0,53,439289,1467890
32,19,female,Belgian,3,81,ITC,win,10,right,8,ITC_wait,0,undefined,0,0,53,429287,1477892
32,19,female,Belgian,3,81,ITC,win,10,right,8,ITC_collect,681,k,0,0,53,428605,1478574
32,19,female,Belgian,3,81,ITC,win,10,right,8,ITC_outcome,0,undefined,0,0,73,427600,1479579
32,19,female,Belgian,3,82,guess,neutral,5,right,8,guess_start,2407,space,0,0,73,425192,1481987
32,19,female,Belgian,3,82,guess,neutral,5,right,8,guess_choice,679,f,0,0,73,424510,1482669
32,19,female,Belgian,3,82,guess,neutral,5,right,8,guess_outcome,0,undefined,0,0,73,422955,1484224
32,19,female,Belgian,3,82,ITC,neutral,5,right,8,ITC_start,1692,space,0,0,73,421261,1485918
32,19,female,Belgian,3,82,ITC,neutral,5,right,8,ITC_choice,933,j,0,0,73,420327,1486852
32,19,female,Belgian,3,82,ITC,neutral,5,right,8,ITC_wait,0,undefined,0,0,73,415325,1491854
32,19,female,Belgian,3,82,ITC,neutral,5,right,8,ITC_collect,1954,k,0,0,73,413369,1493810
32,19,female,Belgian,3,82,ITC,neutral,5,right,8,ITC_outcome,0,undefined,0,0,93,412367,1494812
32,19,female,Belgian,3,83,guess,loss,5,left,6,guess_start,623,space,0,0,93,411743,1495436
32,19,female,Belgian,3,83,guess,loss,5,left,6,guess_choice,719,j,0,0,93,411022,1496157
32,19,female,Belgian,3,83,guess,loss,5,left,6,guess_outcome,0,undefined,0,0,78,409463,1497716
32,19,female,Belgian,3,83,ITC,loss,5,left,6,ITC_start,1519,space,0,0,78,407943,1499236
32,19,female,Belgian,3,83,ITC,loss,5,left,6,ITC_choice,917,f,0,0,78,407025,1500154
32,19,female,Belgian,3,83,ITC,loss,5,left,6,ITC_wait,0,undefined,0,0,78,402021,1505158
32,19,female,Belgian,3,83,ITC,loss,5,left,6,ITC_collect,750,k,0,0,78,401270,1505909
32,19,female,Belgian,3,83,ITC,loss,5,left,6,ITC_outcome,0,undefined,0,0,98,400263,1506916
32,19,female,Belgian,3,84,guess,neutral,5,right,5,guess_start,3238,space,0,0,98,397023,1510156
32,19,female,Belgian,3,84,guess,neutral,5,right,5,guess_choice,549,j,0,0,98,396471,1510708
32,19,female,Belgian,3,84,guess,neutral,5,right,5,guess_outcome,0,undefined,0,0,98,394915,1512264
32,19,female,Belgian,3,84,ITC,neutral,5,right,5,ITC_start,3096,space,0,0,98,391818,1515361
32,19,female,Belgian,3,84,ITC,neutral,5,right,5,ITC_choice,947,j,0,0,98,390870,1516309
32,19,female,Belgian,3,84,ITC,neutral,5,right,5,ITC_wait,0,undefined,0,0,98,385866,1521313
32,19,female,Belgian,3,84,ITC,neutral,5,right,5,ITC_collect,681,k,0,0,98,385184,1521995
32,19,female,Belgian,3,84,ITC,neutral,5,right,5,ITC_outcome,0,undefined,0,0,118,384180,1522999
32,19,female,Belgian,3,85,guess,neutral,5,left,15,guess_start,1066,space,0,0,118,383113,1524066
32,19,female,Belgian,3,85,guess,neutral,5,left,15,guess_choice,790,j,0,0,118,382321,1524858
32,19,female,Belgian,3,85,guess,neutral,5,left,15,guess_outcome,0,undefined,0,0,118,380765,1526414
32,19,female,Belgian,3,85,ITC,neutral,5,left,15,ITC_start,1297,space,0,0,118,379466,1527713
32,19,female,Belgian,3,85,ITC,neutral,5,left,15,ITC_choice,872,j,0,0,118,378593,1528586
32,19,female,Belgian,3,85,ITC,neutral,5,left,15,ITC_wait,0,undefined,0,0,118,378591,1528588
32,19,female,Belgian,3,85,ITC,neutral,5,left,15,ITC_collect,735,k,0,0,118,377856,1529323
32,19,female,Belgian,3,85,ITC,neutral,5,left,15,ITC_outcome,0,undefined,0,0,133,376853,1530326
32,19,female,Belgian,3,86,guess,win,10,right,3,guess_start,656,space,0,0,133,376196,1530983
32,19,female,Belgian,3,86,guess,win,10,right,3,guess_choice,743,j,0,0,133,375450,1531729
32,19,female,Belgian,3,86,guess,win,10,right,3,guess_outcome,0,undefined,0,0,153,373894,1533285
32,19,female,Belgian,3,86,ITC,win,10,right,3,ITC_start,721,space,0,0,153,373171,1534008
32,19,female,Belgian,3,86,ITC,win,10,right,3,ITC_choice,725,j,0,0,153,372445,1534734
32,19,female,Belgian,3,86,ITC,win,10,right,3,ITC_wait,0,undefined,0,0,153,362441,1544738
32,19,female,Belgian,3,86,ITC,win,10,right,3,ITC_collect,674,k,0,0,153,361765,1545414
32,19,female,Belgian,3,86,ITC,win,10,right,3,ITC_outcome,0,undefined,0,0,173,360761,1546418
32,19,female,Belgian,3,87,guess,win,5,right,12,guess_start,855,space,0,0,173,359905,1547274
32,19,female,Belgian,3,87,guess,win,5,right,12,guess_choice,962,f,0,0,173,358940,1548239
32,19,female,Belgian,3,87,guess,win,5,right,12,guess_outcome,0,undefined,0,0,193,357386,1549793
32,19,female,Belgian,3,87,ITC,win,5,right,12,ITC_start,758,space,0,0,193,356626,1550553
32,19,female,Belgian,3,87,ITC,win,5,right,12,ITC_choice,1275,f,0,0,193,355349,1551830
32,19,female,Belgian,3,87,ITC,win,5,right,12,ITC_wait,0,undefined,0,0,193,355346,1551833
32,19,female,Belgian,3,87,ITC,win,5,right,12,ITC_collect,685,k,0,0,193,354660,1552519
32,19,female,Belgian,3,87,ITC,win,5,right,12,ITC_outcome,0,undefined,0,0,205,353658,1553521
32,19,female,Belgian,3,88,guess,win,5,right,9,guess_start,867,space,0,0,205,352789,1554390
32,19,female,Belgian,3,88,guess,win,5,right,9,guess_choice,610,j,0,0,205,352177,1555002
32,19,female,Belgian,3,88,guess,win,5,right,9,guess_outcome,0,undefined,0,0,225,350623,1556556
32,19,female,Belgian,3,88,ITC,win,5,right,9,ITC_start,853,space,0,0,225,349769,1557410
32,19,female,Belgian,3,88,ITC,win,5,right,9,ITC_choice,1243,j,0,0,225,348524,1558655
32,19,female,Belgian,3,88,ITC,win,5,right,9,ITC_wait,0,undefined,0,0,225,343519,1563660
32,19,female,Belgian,3,88,ITC,win,5,right,9,ITC_collect,464,k,0,0,225,343053,1564126
32,19,female,Belgian,3,88,ITC,win,5,right,9,ITC_outcome,0,undefined,0,0,245,342050,1565129
32,19,female,Belgian,3,89,guess,loss,10,right,7,guess_start,758,space,0,0,245,341290,1565889
32,19,female,Belgian,3,89,guess,loss,10,right,7,guess_choice,969,f,0,0,245,340319,1566860
32,19,female,Belgian,3,89,guess,loss,10,right,7,guess_outcome,0,undefined,0,0,230,338763,1568416
32,19,female,Belgian,3,89,ITC,loss,10,right,7,ITC_start,822,space,0,0,230,337940,1569239
32,19,female,Belgian,3,89,ITC,loss,10,right,7,ITC_choice,905,j,0,0,230,337034,1570145
32,19,female,Belgian,3,89,ITC,loss,10,right,7,ITC_wait,0,undefined,0,0,230,327031,1580148
32,19,female,Belgian,3,89,ITC,loss,10,right,7,ITC_collect,618,k,0,0,230,326411,1580768
32,19,female,Belgian,3,89,ITC,loss,10,right,7,ITC_outcome,0,undefined,0,0,250,325405,1581774
32,19,female,Belgian,3,90,guess,neutral,5,right,7,guess_start,754,space,0,0,250,324650,1582529
32,19,female,Belgian,3,90,guess,neutral,5,right,7,guess_choice,794,f,0,0,250,323853,1583326
32,19,female,Belgian,3,90,guess,neutral,5,right,7,guess_outcome,0,undefined,0,0,250,322299,1584880
32,19,female,Belgian,3,90,ITC,neutral,5,right,7,ITC_start,1169,space,0,0,250,321129,1586050
32,19,female,Belgian,3,90,ITC,neutral,5,right,7,ITC_choice,1489,j,0,0,250,319639,1587540
32,19,female,Belgian,3,90,ITC,neutral,5,right,7,ITC_wait,0,undefined,0,0,250,314634,1592545
32,19,female,Belgian,3,90,ITC,neutral,5,right,7,ITC_collect,462,k,0,0,250,314169,1593010
32,19,female,Belgian,3,90,ITC,neutral,5,right,7,ITC_outcome,0,undefined,0,0,270,313167,1594012
32,19,female,Belgian,3,91,guess,neutral,5,right,1,guess_start,632,space,0,0,270,312534,1594645
32,19,female,Belgian,3,91,guess,neutral,5,right,1,guess_choice,707,f,0,0,270,311823,1595356
32,19,female,Belgian,3,91,guess,neutral,5,right,1,guess_outcome,0,undefined,0,0,270,310268,1596911
32,19,female,Belgian,3,91,ITC,neutral,5,right,1,ITC_start,1383,space,0,0,270,308884,1598295
32,19,female,Belgian,3,91,ITC,neutral,5,right,1,ITC_choice,834,j,0,0,270,308049,1599130
32,19,female,Belgian,3,91,ITC,neutral,5,right,1,ITC_wait,0,undefined,0,0,270,303045,1604134
32,19,female,Belgian,3,91,ITC,neutral,5,right,1,ITC_collect,651,k,0,0,270,302392,1604787
32,19,female,Belgian,3,91,ITC,neutral,5,right,1,ITC_outcome,0,undefined,0,0,290,301385,1605794
32,19,female,Belgian,3,92,guess,neutral,5,right,6,guess_start,2377,space,0,0,290,299007,1608172
32,19,female,Belgian,3,92,guess,neutral,5,right,6,guess_choice,644,j,0,0,290,298361,1608818
32,19,female,Belgian,3,92,guess,neutral,5,right,6,guess_outcome,0,undefined,0,0,290,296807,1610372
32,19,female,Belgian,3,92,ITC,neutral,5,right,6,ITC_start,1005,space,0,0,290,295802,1611377
32,19,female,Belgian,3,92,ITC,neutral,5,right,6,ITC_choice,1114,j,0,0,290,294687,1612492
32,19,female,Belgian,3,92,ITC,neutral,5,right,6,ITC_wait,0,undefined,0,0,290,289680,1617499
32,19,female,Belgian,3,92,ITC,neutral,5,right,6,ITC_collect,584,k,0,0,290,289094,1618085
32,19,female,Belgian,3,92,ITC,neutral,5,right,6,ITC_outcome,0,undefined,0,0,310,288090,1619089
32,19,female,Belgian,3,93,guess,neutral,10,right,5,guess_start,834,space,0,0,310,287255,1619924
32,19,female,Belgian,3,93,guess,neutral,10,right,5,guess_choice,702,f,0,0,310,286550,1620629
32,19,female,Belgian,3,93,guess,neutral,10,right,5,guess_outcome,0,undefined,0,0,310,284994,1622185
32,19,female,Belgian,3,93,ITC,neutral,10,right,5,ITC_start,1177,space,0,0,310,283815,1623364
32,19,female,Belgian,3,93,ITC,neutral,10,right,5,ITC_choice,855,j,0,0,310,282959,1624220
32,19,female,Belgian,3,93,ITC,neutral,10,right,5,ITC_wait,0,undefined,0,0,310,272952,1634227
32,19,female,Belgian,3,93,ITC,neutral,10,right,5,ITC_collect,802,k,0,0,310,272149,1635030
32,19,female,Belgian,3,93,ITC,neutral,10,right,5,ITC_outcome,0,undefined,0,0,330,271146,1636033
32,19,female,Belgian,3,94,guess,win,5,right,4,guess_start,1086,space,0,0,330,270058,1637121
32,19,female,Belgian,3,94,guess,win,5,right,4,guess_choice,653,j,0,0,330,269403,1637776
32,19,female,Belgian,3,94,guess,win,5,right,4,guess_outcome,0,undefined,0,0,350,267846,1639333
32,19,female,Belgian,3,94,ITC,win,5,right,4,ITC_start,1003,space,0,0,350,266842,1640337
32,19,female,Belgian,3,94,ITC,win,5,right,4,ITC_choice,838,j,0,0,350,266002,1641177
32,19,female,Belgian,3,94,ITC,win,5,right,4,ITC_wait,0,undefined,0,0,350,260996,1646183
32,19,female,Belgian,3,94,ITC,win,5,right,4,ITC_collect,972,k,0,0,350,260022,1647157
32,19,female,Belgian,3,94,ITC,win,5,right,4,ITC_outcome,0,undefined,0,0,370,259016,1648163
32,19,female,Belgian,3,95,guess,win,5,right,16,guess_start,927,space,0,0,370,258087,1649092
32,19,female,Belgian,3,95,guess,win,5,right,16,guess_choice,874,f,0,0,370,257210,1649969
32,19,female,Belgian,3,95,guess,win,5,right,16,guess_outcome,0,undefined,0,0,390,255654,1651525
32,19,female,Belgian,3,95,ITC,win,5,right,16,ITC_start,1088,space,0,0,390,254564,1652615
32,19,female,Belgian,3,95,ITC,win,5,right,16,ITC_choice,1132,f,0,0,390,253431,1653748
32,19,female,Belgian,3,95,ITC,win,5,right,16,ITC_wait,0,undefined,0,0,390,253427,1653752
32,19,female,Belgian,3,95,ITC,win,5,right,16,ITC_collect,883,k,0,0,390,252542,1654637
32,19,female,Belgian,3,95,ITC,win,5,right,16,ITC_outcome,0,undefined,0,0,406,251539,1655640
32,19,female,Belgian,3,96,guess,win,10,right,5,guess_start,651,space,0,0,406,250887,1656292
32,19,female,Belgian,3,96,guess,win,10,right,5,guess_choice,1017,f,0,0,406,249867,1657312
32,19,female,Belgian,3,96,guess,win,10,right,5,guess_outcome,0,undefined,0,0,426,248313,1658866
32,19,female,Belgian,3,96,ITC,win,10,right,5,ITC_start,1243,space,0,0,426,247068,1660111
32,19,female,Belgian,3,96,ITC,win,10,right,5,ITC_choice,1175,j,0,0,426,245891,1661288
32,19,female,Belgian,3,96,ITC,win,10,right,5,ITC_wait,0,undefined,0,0,426,235886,1671293
32,19,female,Belgian,3,96,ITC,win,10,right,5,ITC_collect,681,k,0,0,426,235203,1671976
32,19,female,Belgian,3,96,ITC,win,10,right,5,ITC_outcome,0,undefined,0,0,446,234197,1672982
32,19,female,Belgian,3,97,guess,loss,10,left,3,guess_start,1151,space,0,0,446,233044,1674135
32,19,female,Belgian,3,97,guess,loss,10,left,3,guess_choice,679,j,0,0,446,232362,1674817
32,19,female,Belgian,3,97,guess,loss,10,left,3,guess_outcome,0,undefined,0,0,431,230808,1676371
32,19,female,Belgian,3,97,ITC,loss,10,left,3,ITC_start,929,space,0,0,431,229878,1677301
32,19,female,Belgian,3,97,ITC,loss,10,left,3,ITC_choice,884,f,0,0,431,228993,1678186
32,19,female,Belgian,3,97,ITC,loss,10,left,3,ITC_wait,0,undefined,0,0,431,218988,1688191
32,19,female,Belgian,3,97,ITC,loss,10,left,3,ITC_collect,407,k,0,0,431,218579,1688600
32,19,female,Belgian,3,97,ITC,loss,10,left,3,ITC_outcome,0,undefined,0,0,451,217576,1689603
32,19,female,Belgian,3,98,guess,loss,5,right,9,guess_start,852,space,0,0,451,216722,1690457
32,19,female,Belgian,3,98,guess,loss,5,right,9,guess_choice,717,f,0,0,451,216002,1691177
32,19,female,Belgian,3,98,guess,loss,5,right,9,guess_outcome,0,undefined,0,0,436,214444,1692735
32,19,female,Belgian,3,98,ITC,loss,5,right,9,ITC_start,3205,space,0,0,436,211238,1695941
32,19,female,Belgian,3,98,ITC,loss,5,right,9,ITC_choice,983,f,0,0,436,210254,1696925
32,19,female,Belgian,3,98,ITC,loss,5,right,9,ITC_wait,0,undefined,0,0,436,210251,1696928
32,19,female,Belgian,3,98,ITC,loss,5,right,9,ITC_collect,576,k,0,0,436,209675,1697504
32,19,female,Belgian,3,98,ITC,loss,5,right,9,ITC_outcome,0,undefined,0,0,445,208670,1698509
32,19,female,Belgian,3,99,guess,loss,5,left,8,guess_start,713,space,0,0,445,207955,1699224
32,19,female,Belgian,3,99,guess,loss,5,left,8,guess_choice,1318,f,0,0,445,206635,1700544
32,19,female,Belgian,3,99,guess,loss,5,left,8,guess_outcome,0,undefined,0,0,430,205080,1702099
32,19,female,Belgian,3,99,ITC,loss,5,left,8,ITC_start,680,space,0,0,430,204398,1702781
32,19,female,Belgian,3,99,ITC,loss,5,left,8,ITC_choice,841,f,0,0,430,203555,1703624
32,19,female,Belgian,3,99,ITC,loss,5,left,8,ITC_wait,0,undefined,0,0,430,198549,1708630
32,19,female,Belgian,3,99,ITC,loss,5,left,8,ITC_collect,707,k,0,0,430,197840,1709339
32,19,female,Belgian,3,99,ITC,loss,5,left,8,ITC_outcome,0,undefined,0,0,450,196836,1710343
32,19,female,Belgian,3,100,guess,loss,10,right,5,guess_start,1076,space,0,0,450,195759,1711420
32,19,female,Belgian,3,100,guess,loss,10,right,5,guess_choice,784,j,0,0,450,194972,1712207
32,19,female,Belgian,3,100,guess,loss,10,right,5,guess_outcome,0,undefined,0,0,435,193415,1713764
32,19,female,Belgian,3,100,ITC,loss,10,right,5,ITC_start,2436,space,0,0,435,190978,1716201
32,19,female,Belgian,3,100,ITC,loss,10,right,5,ITC_choice,1135,j,0,0,435,189842,1717337
32,19,female,Belgian,3,100,ITC,loss,10,right,5,ITC_wait,0,undefined,0,0,435,179838,1727341
32,19,female,Belgian,3,100,ITC,loss,10,right,5,ITC_collect,566,k,0,0,435,179271,1727908
32,19,female,Belgian,3,100,ITC,loss,10,right,5,ITC_outcome,0,undefined,0,0,455,178268,1728911
32,19,female,Belgian,3,101,guess,win,10,right,6,guess_start,1052,space,0,0,455,177214,1729965
32,19,female,Belgian,3,101,guess,win,10,right,6,guess_choice,1076,f,0,0,455,176135,1731044
32,19,female,Belgian,3,101,guess,win,10,right,6,guess_outcome,0,undefined,0,0,475,174580,1732599
32,19,female,Belgian,3,101,ITC,win,10,right,6,ITC_start,1598,space,0,0,475,172981,1734198
32,19,female,Belgian,3,101,ITC,win,10,right,6,ITC_choice,1969,j,0,0,475,171010,1736169
32,19,female,Belgian,3,101,ITC,win,10,right,6,ITC_wait,0,undefined,0,0,475,161008,1746171
32,19,female,Belgian,3,101,ITC,win,10,right,6,ITC_collect,850,k,0,0,475,160156,1747023
32,19,female,Belgian,3,101,ITC,win,10,right,6,ITC_outcome,0,undefined,0,0,495,159154,1748025
32,19,female,Belgian,3,102,guess,win,5,left,11,guess_start,1211,space,0,0,495,157941,1749238
32,19,female,Belgian,3,102,guess,win,5,left,11,guess_choice,654,f,0,0,495,157284,1749895
32,19,female,Belgian,3,102,guess,win,5,left,11,guess_outcome,0,undefined,0,0,515,155729,1751450
32,19,female,Belgian,3,102,ITC,win,5,left,11,ITC_start,1813,space,0,0,515,153915,1753264
32,19,female,Belgian,3,102,ITC,win,5,left,11,ITC_choice,1437,j,0,0,515,152476,1754703
32,19,female,Belgian,3,102,ITC,win,5,left,11,ITC_wait,0,undefined,0,0,515,152472,1754707
32,19,female,Belgian,3,102,ITC,win,5,left,11,ITC_collect,6182,k,0,0,515,146290,1760889
32,19,female,Belgian,3,102,ITC,win,5,left,11,ITC_outcome,0,undefined,0,0,526,145284,1761895
32,19,female,Belgian,3,103,guess,win,5,right,7,guess_start,3373,space,0,0,526,141909,1765270
32,19,female,Belgian,3,103,guess,win,5,right,7,guess_choice,1094,j,0,0,526,140812,1766367
32,19,female,Belgian,3,103,guess,win,5,right,7,guess_outcome,0,undefined,0,0,546,139257,1767922
32,19,female,Belgian,3,103,ITC,win,5,right,7,ITC_start,1229,space,0,0,546,138027,1769152
32,19,female,Belgian,3,103,ITC,win,5,right,7,ITC_choice,918,j,0,0,546,137108,1770071
32,19,female,Belgian,3,103,ITC,win,5,right,7,ITC_wait,0,undefined,0,0,546,132107,1775072
32,19,female,Belgian,3,103,ITC,win,5,right,7,ITC_collect,1506,k,0,0,546,130598,1776581
32,19,female,Belgian,3,103,ITC,win,5,right,7,ITC_outcome,0,undefined,0,0,566,129596,1777583
32,19,female,Belgian,3,104,guess,loss,5,left,15,guess_start,1691,space,0,0,566,127903,1779276
32,19,female,Belgian,3,104,guess,loss,5,left,15,guess_choice,765,f,0,0,566,127136,1780043
32,19,female,Belgian,3,104,guess,loss,5,left,15,guess_outcome,0,undefined,0,0,551,125582,1781597
32,19,female,Belgian,3,104,ITC,loss,5,left,15,ITC_start,946,space,0,0,551,124634,1782545
32,19,female,Belgian,3,104,ITC,loss,5,left,15,ITC_choice,1126,j,0,0,551,123506,1783673
32,19,female,Belgian,3,104,ITC,loss,5,left,15,ITC_wait,0,undefined,0,0,551,123503,1783676
32,19,female,Belgian,3,104,ITC,loss,5,left,15,ITC_collect,657,k,0,0,551,122846,1784333
32,19,female,Belgian,3,104,ITC,loss,5,left,15,ITC_outcome,0,undefined,0,0,566,121843,1785336
32,19,female,Belgian,3,105,guess,loss,10,left,4,guess_start,693,space,0,0,566,121149,1786030
32,19,female,Belgian,3,105,guess,loss,10,left,4,guess_choice,816,j,0,0,566,120330,1786849
32,19,female,Belgian,3,105,guess,loss,10,left,4,guess_outcome,0,undefined,0,0,551,118773,1788406
32,19,female,Belgian,3,105,ITC,loss,10,left,4,ITC_start,902,space,0,0,551,117870,1789309
32,19,female,Belgian,3,105,ITC,loss,10,left,4,ITC_choice,1091,f,0,0,551,116778,1790401
32,19,female,Belgian,3,105,ITC,loss,10,left,4,ITC_wait,0,undefined,0,0,551,106774,1800405
32,19,female,Belgian,3,105,ITC,loss,10,left,4,ITC_collect,1003,k,0,0,551,105769,1801410
32,19,female,Belgian,3,105,ITC,loss,10,left,4,ITC_outcome,0,undefined,0,0,571,104767,1802412
32,19,female,Belgian,3,106,guess,neutral,5,right,9,guess_start,959,space,0,0,571,103806,1803373
32,19,female,Belgian,3,106,guess,neutral,5,right,9,guess_choice,761,j,0,0,571,103043,1804136
32,19,female,Belgian,3,106,guess,neutral,5,right,9,guess_outcome,0,undefined,0,0,571,101489,1805690
32,19,female,Belgian,3,106,ITC,neutral,5,right,9,ITC_start,3344,space,0,0,571,98143,1809036
32,19,female,Belgian,3,106,ITC,neutral,5,right,9,ITC_choice,965,j,0,0,571,97176,1810003
32,19,female,Belgian,3,106,ITC,neutral,5,right,9,ITC_wait,0,undefined,0,0,571,92174,1815005
32,19,female,Belgian,3,106,ITC,neutral,5,right,9,ITC_collect,652,k,0,0,571,91521,1815658
32,19,female,Belgian,3,106,ITC,neutral,5,right,9,ITC_outcome,0,undefined,0,0,591,90517,1816662
32,19,female,Belgian,3,107,guess,win,10,left,1,guess_start,1707,space,0,0,591,88808,1818371
32,19,female,Belgian,3,107,guess,win,10,left,1,guess_choice,806,f,0,0,591,88000,1819179
32,19,female,Belgian,3,107,guess,win,10,left,1,guess_outcome,0,undefined,0,0,611,86446,1820733
32,19,female,Belgian,3,107,ITC,win,10,left,1,ITC_start,1171,space,0,0,611,85273,1821906
32,19,female,Belgian,3,107,ITC,win,10,left,1,ITC_choice,1253,f,0,0,611,84020,1823159
32,19,female,Belgian,3,107,ITC,win,10,left,1,ITC_wait,0,undefined,0,0,611,74015,1833164
32,19,female,Belgian,3,107,ITC,win,10,left,1,ITC_collect,1107,k,0,0,611,72907,1834272
32,19,female,Belgian,3,107,ITC,win,10,left,1,ITC_outcome,0,undefined,0,0,631,71903,1835276
32,19,female,Belgian,3,108,guess,neutral,10,right,2,guess_start,1307,space,0,0,631,70594,1836585
32,19,female,Belgian,3,108,guess,neutral,10,right,2,guess_choice,689,f,0,0,631,69902,1837277
32,19,female,Belgian,3,108,guess,neutral,10,right,2,guess_outcome,0,undefined,0,0,631,68346,1838833
32,19,female,Belgian,3,108,ITC,neutral,10,right,2,ITC_start,1023,space,0,0,631,67322,1839857
32,19,female,Belgian,3,108,ITC,neutral,10,right,2,ITC_choice,989,j,0,0,631,66331,1840848
32,19,female,Belgian,3,108,ITC,neutral,10,right,2,ITC_wait,0,undefined,0,0,631,56329,1850850
32,19,female,Belgian,3,108,ITC,neutral,10,right,2,ITC_collect,884,k,0,0,631,55444,1851735
32,19,female,Belgian,3,108,ITC,neutral,10,right,2,ITC_outcome,0,undefined,0,0,651,54440,1852739
32,19,female,Belgian,3,109,guess,neutral,5,right,13,guess_start,1273,space,0,0,651,53165,1854014
32,19,female,Belgian,3,109,guess,neutral,5,right,13,guess_choice,725,j,0,0,651,52438,1854741
32,19,female,Belgian,3,109,guess,neutral,5,right,13,guess_outcome,0,undefined,0,0,651,50882,1856297
32,19,female,Belgian,3,109,ITC,neutral,5,right,13,ITC_start,2841,space,0,0,651,48040,1859139
32,19,female,Belgian,3,109,ITC,neutral,5,right,13,ITC_choice,1653,j,0,0,651,46385,1860794
32,19,female,Belgian,3,109,ITC,neutral,5,right,13,ITC_wait,0,undefined,0,0,651,41382,1865797
32,19,female,Belgian,3,109,ITC,neutral,5,right,13,ITC_collect,1205,k,0,0,651,40176,1867003
32,19,female,Belgian,3,109,ITC,neutral,5,right,13,ITC_outcome,0,undefined,0,0,671,39171,1868008
32,19,female,Belgian,3,110,guess,loss,10,left,8,guess_start,1144,space,0,0,671,38025,1869154
32,19,female,Belgian,3,110,guess,loss,10,left,8,guess_choice,987,j,0,0,671,37035,1870144
32,19,female,Belgian,3,110,guess,loss,10,left,8,guess_outcome,0,undefined,0,0,656,35479,1871700
32,19,female,Belgian,3,110,ITC,loss,10,left,8,ITC_start,1158,space,0,0,656,34320,1872859
32,19,female,Belgian,3,110,ITC,loss,10,left,8,ITC_choice,1472,j,0,0,656,32847,1874332
32,19,female,Belgian,3,110,ITC,loss,10,left,8,ITC_wait,0,undefined,0,0,656,32844,1874335
32,19,female,Belgian,3,110,ITC,loss,10,left,8,ITC_collect,668,k,0,0,656,32175,1875004
32,19,female,Belgian,3,110,ITC,loss,10,left,8,ITC_outcome,0,undefined,0,0,664,31170,1876009
32,19,female,Belgian,3,111,guess,win,5,left,6,guess_start,589,space,0,0,664,30580,1876599
32,19,female,Belgian,3,111,guess,win,5,left,6,guess_choice,629,f,0,0,664,29948,1877231
32,19,female,Belgian,3,111,guess,win,5,left,6,guess_outcome,0,undefined,0,0,684,28393,1878786
32,19,female,Belgian,3,111,ITC,win,5,left,6,ITC_start,764,space,0,0,684,27627,1879552
32,19,female,Belgian,3,111,ITC,win,5,left,6,ITC_choice,928,f,0,0,684,26697,1880482
32,19,female,Belgian,3,111,ITC,win,5,left,6,ITC_wait,0,undefined,0,0,684,21693,1885486
32,19,female,Belgian,3,111,ITC,win,5,left,6,ITC_collect,684,k,0,0,684,21007,1886172
32,19,female,Belgian,3,111,ITC,win,5,left,6,ITC_outcome,0,undefined,0,0,704,20005,1887174
32,19,female,Belgian,3,112,guess,neutral,5,right,11,guess_start,2108,space,0,0,704,17895,1889284
32,19,female,Belgian,3,112,guess,neutral,5,right,11,guess_choice,1136,j,0,0,704,16756,1890423
32,19,female,Belgian,3,112,guess,neutral,5,right,11,guess_outcome,0,undefined,0,0,704,15198,1891981
32,19,female,Belgian,3,112,ITC,neutral,5,right,11,ITC_start,1960,space,0,0,704,13236,1893943
32,19,female,Belgian,3,112,ITC,neutral,5,right,11,ITC_choice,1477,j,0,0,704,11757,1895422
32,19,female,Belgian,3,112,ITC,neutral,5,right,11,ITC_wait,0,undefined,0,0,704,6753,1900426
32,19,female,Belgian,3,112,ITC,neutral,5,right,11,ITC_collect,875,k,0,0,704,5876,1901303
32,19,female,Belgian,3,112,ITC,neutral,5,right,11,ITC_outcome,0,undefined,0,0,724,4873,1902306
32,19,female,Belgian,3,113,guess,neutral,5,left,10,guess_start,1552,space,0,0,724,3319,1903860
32,19,female,Belgian,3,113,guess,neutral,5,left,10,guess_choice,743,j,0,0,724,2573,1904606
32,19,female,Belgian,3,113,guess,neutral,5,left,10,guess_outcome,0,undefined,0,0,724,1016,1906163
32,19,female,Belgian,3,113,ITC,neutral,5,left,10,ITC_start,0,undefined,0,0,724,-2,1907181
32,19,female,Belgian,4,114,guess,loss,5,left,3,guess_start,5237,space,0,0,0,474762,2011389
32,19,female,Belgian,4,114,guess,loss,5,left,3,guess_choice,1215,j,0,0,0,473544,2012607
32,19,female,Belgian,4,114,guess,loss,5,left,3,guess_outcome,0,undefined,0,0,-15,471987,2014164
32,19,female,Belgian,4,114,ITC,loss,5,left,3,ITC_start,1557,space,0,0,-15,470428,2015723
32,19,female,Belgian,4,114,ITC,loss,5,left,3,ITC_choice,1232,f,0,0,-15,469195,2016956
32,19,female,Belgian,4,114,ITC,loss,5,left,3,ITC_wait,0,undefined,0,0,-15,464190,2021961
32,19,female,Belgian,4,114,ITC,loss,5,left,3,ITC_collect,680,k,0,0,-15,463508,2022643
32,19,female,Belgian,4,114,ITC,loss,5,left,3,ITC_outcome,0,undefined,0,0,5,462506,2023645
32,19,female,Belgian,4,115,guess,loss,5,left,1,guess_start,1147,space,0,0,5,461357,2024794
32,19,female,Belgian,4,115,guess,loss,5,left,1,guess_choice,1062,j,0,0,5,460292,2025859
32,19,female,Belgian,4,115,guess,loss,5,left,1,guess_outcome,0,undefined,0,0,-10,458737,2027414
32,19,female,Belgian,4,115,ITC,loss,5,left,1,ITC_start,1110,space,0,0,-10,457626,2028525
32,19,female,Belgian,4,115,ITC,loss,5,left,1,ITC_choice,1020,f,0,0,-10,456604,2029547
32,19,female,Belgian,4,115,ITC,loss,5,left,1,ITC_wait,0,undefined,0,0,-10,451601,2034550
32,19,female,Belgian,4,115,ITC,loss,5,left,1,ITC_collect,571,k,0,0,-10,451028,2035123
32,19,female,Belgian,4,115,ITC,loss,5,left,1,ITC_outcome,0,undefined,0,0,10,450026,2036125
32,19,female,Belgian,4,116,guess,neutral,5,left,16,guess_start,747,space,0,0,10,449277,2036874
32,19,female,Belgian,4,116,guess,neutral,5,left,16,guess_choice,903,j,0,0,10,448372,2037779
32,19,female,Belgian,4,116,guess,neutral,5,left,16,guess_outcome,0,undefined,0,0,10,446816,2039335
32,19,female,Belgian,4,116,ITC,neutral,5,left,16,ITC_start,3753,space,0,0,10,443062,2043089
32,19,female,Belgian,4,116,ITC,neutral,5,left,16,ITC_choice,996,j,0,0,10,442064,2044087
32,19,female,Belgian,4,116,ITC,neutral,5,left,16,ITC_wait,0,undefined,0,0,10,442062,2044089
32,19,female,Belgian,4,116,ITC,neutral,5,left,16,ITC_collect,666,k,0,0,10,441394,2044757
32,19,female,Belgian,4,116,ITC,neutral,5,left,16,ITC_outcome,0,undefined,0,0,26,440388,2045763
32,19,female,Belgian,4,117,guess,loss,5,right,10,guess_start,1190,space,0,0,26,439196,2046955
32,19,female,Belgian,4,117,guess,loss,5,right,10,guess_choice,707,f,0,0,26,438486,2047665
32,19,female,Belgian,4,117,guess,loss,5,right,10,guess_outcome,0,undefined,0,0,11,436929,2049222
32,19,female,Belgian,4,117,ITC,loss,5,right,10,ITC_start,637,space,0,0,11,436291,2049860
32,19,female,Belgian,4,117,ITC,loss,5,right,10,ITC_choice,1140,j,0,0,11,435149,2051002
32,19,female,Belgian,4,117,ITC,loss,5,right,10,ITC_wait,0,undefined,0,0,11,430144,2056007
32,19,female,Belgian,4,117,ITC,loss,5,right,10,ITC_collect,476,k,0,0,11,429666,2056485
32,19,female,Belgian,4,117,ITC,loss,5,right,10,ITC_outcome,0,undefined,0,0,31,428663,2057488
32,19,female,Belgian,4,118,guess,win,5,right,2,guess_start,538,space,0,0,31,428123,2058028
32,19,female,Belgian,4,118,guess,win,5,right,2,guess_choice,737,f,0,0,31,427384,2058767
32,19,female,Belgian,4,118,guess,win,5,right,2,guess_outcome,0,undefined,0,0,51,425828,2060323
32,19,female,Belgian,4,118,ITC,win,5,right,2,ITC_start,831,space,0,0,51,424996,2061155
32,19,female,Belgian,4,118,ITC,win,5,right,2,ITC_choice,1447,j,0,0,51,423547,2062604
32,19,female,Belgian,4,118,ITC,win,5,right,2,ITC_wait,0,undefined,0,0,51,418543,2067608
32,19,female,Belgian,4,118,ITC,win,5,right,2,ITC_collect,633,k,0,0,51,417908,2068243
32,19,female,Belgian,4,118,ITC,win,5,right,2,ITC_outcome,0,undefined,0,0,71,416905,2069246
32,19,female,Belgian,4,119,guess,neutral,10,left,8,guess_start,1971,space,0,0,71,414933,2071218
32,19,female,Belgian,4,119,guess,neutral,10,left,8,guess_choice,1118,j,0,0,71,413812,2072339
32,19,female,Belgian,4,119,guess,neutral,10,left,8,guess_outcome,0,undefined,0,0,71,412255,2073896
32,19,female,Belgian,4,119,ITC,neutral,10,left,8,ITC_start,1883,space,0,0,71,410371,2075780
32,19,female,Belgian,4,119,ITC,neutral,10,left,8,ITC_choice,1132,f,0,0,71,409238,2076913
32,19,female,Belgian,4,119,ITC,neutral,10,left,8,ITC_wait,0,undefined,0,0,71,399235,2086916
32,19,female,Belgian,4,119,ITC,neutral,10,left,8,ITC_collect,1324,k,0,0,71,397909,2088242
32,19,female,Belgian,4,119,ITC,neutral,10,left,8,ITC_outcome,0,undefined,0,0,91,396903,2089248
32,19,female,Belgian,4,120,guess,win,5,right,5,guess_start,1043,space,0,0,91,395859,2090292
32,19,female,Belgian,4,120,guess,win,5,right,5,guess_choice,1078,j,0,0,91,394778,2091373
32,19,female,Belgian,4,120,guess,win,5,right,5,guess_outcome,0,undefined,0,0,111,393209,2092942
32,19,female,Belgian,4,120,ITC,win,5,right,5,ITC_start,900,space,0,0,111,392285,2093866
32,19,female,Belgian,4,120,ITC,win,5,right,5,ITC_choice,680,j,0,0,111,391603,2094548
32,19,female,Belgian,4,120,ITC,win,5,right,5,ITC_wait,0,undefined,0,0,111,386598,2099553
32,19,female,Belgian,4,120,ITC,win,5,right,5,ITC_collect,536,k,0,0,111,386061,2100090
32,19,female,Belgian,4,120,ITC,win,5,right,5,ITC_outcome,0,undefined,0,0,131,385054,2101097
32,19,female,Belgian,4,121,guess,win,5,right,15,guess_start,761,space,0,0,131,384291,2101860
32,19,female,Belgian,4,121,guess,win,5,right,15,guess_choice,526,f,0,0,131,383763,2102388
32,19,female,Belgian,4,121,guess,win,5,right,15,guess_outcome,0,undefined,0,0,151,382210,2103941
32,19,female,Belgian,4,121,ITC,win,5,right,15,ITC_start,663,space,0,0,151,381546,2104605
32,19,female,Belgian,4,121,ITC,win,5,right,15,ITC_choice,962,f,0,0,151,380582,2105569
32,19,female,Belgian,4,121,ITC,win,5,right,15,ITC_wait,0,undefined,0,0,151,380580,2105571
32,19,female,Belgian,4,121,ITC,win,5,right,15,ITC_collect,811,k,0,0,151,379768,2106383
32,19,female,Belgian,4,121,ITC,win,5,right,15,ITC_outcome,0,undefined,0,0,166,378763,2107388
32,19,female,Belgian,4,122,guess,loss,5,left,12,guess_start,666,space,0,0,166,378096,2108055
32,19,female,Belgian,4,122,guess,loss,5,left,12,guess_choice,588,j,0,0,166,377506,2108645
32,19,female,Belgian,4,122,guess,loss,5,left,12,guess_outcome,0,undefined,0,0,151,375950,2110201
32,19,female,Belgian,4,122,ITC,loss,5,left,12,ITC_start,733,space,0,0,151,375216,2110935
32,19,female,Belgian,4,122,ITC,loss,5,left,12,ITC_choice,1424,j,0,0,151,373790,2112361
32,19,female,Belgian,4,122,ITC,loss,5,left,12,ITC_wait,0,undefined,0,0,151,373787,2112364
32,19,female,Belgian,4,122,ITC,loss,5,left,12,ITC_collect,616,k,0,0,151,373170,2112981
32,19,female,Belgian,4,122,ITC,loss,5,left,12,ITC_outcome,0,undefined,0,0,163,372167,2113984
32,19,female,Belgian,4,123,guess,loss,5,right,13,guess_start,687,space,0,0,163,371479,2114672
32,19,female,Belgian,4,123,guess,loss,5,right,13,guess_choice,510,f,0,0,163,370966,2115185
32,19,female,Belgian,4,123,guess,loss,5,right,13,guess_outcome,0,undefined,0,0,148,369413,2116738
32,19,female,Belgian,4,123,ITC,loss,5,right,13,ITC_start,886,space,0,0,148,368526,2117625
32,19,female,Belgian,4,123,ITC,loss,5,right,13,ITC_choice,1537,f,0,0,148,366987,2119164
32,19,female,Belgian,4,123,ITC,loss,5,right,13,ITC_wait,0,undefined,0,0,148,366984,2119167
32,19,female,Belgian,4,123,ITC,loss,5,right,13,ITC_collect,1231,k,0,0,148,365752,2120399
32,19,female,Belgian,4,123,ITC,loss,5,right,13,ITC_outcome,0,undefined,0,0,161,364746,2121405
32,19,female,Belgian,4,124,guess,loss,5,left,16,guess_start,585,space,0,0,161,364159,2121992
32,19,female,Belgian,4,124,guess,loss,5,left,16,guess_choice,560,j,0,0,161,363597,2122554
32,19,female,Belgian,4,124,guess,loss,5,left,16,guess_outcome,0,undefined,0,0,146,362042,2124109
32,19,female,Belgian,4,124,ITC,loss,5,left,16,ITC_start,804,space,0,0,146,361237,2124914
32,19,female,Belgian,4,124,ITC,loss,5,left,16,ITC_choice,1041,j,0,0,146,360194,2125957
32,19,female,Belgian,4,124,ITC,loss,5,left,16,ITC_wait,0,undefined,0,0,146,360190,2125961
32,19,female,Belgian,4,124,ITC,loss,5,left,16,ITC_collect,920,k,0,0,146,359268,2126883
32,19,female,Belgian,4,124,ITC,loss,5,left,16,ITC_outcome,0,undefined,0,0,162,358263,2127888
32,19,female,Belgian,4,125,guess,neutral,5,left,3,guess_start,741,space,0,0,162,357520,2128631
32,19,female,Belgian,4,125,guess,neutral,5,left,3,guess_choice,681,f,0,0,162,356836,2129315
32,19,female,Belgian,4,125,guess,neutral,5,left,3,guess_outcome,0,undefined,0,0,162,355282,2130869
32,19,female,Belgian,4,125,ITC,neutral,5,left,3,ITC_start,589,space,0,0,162,354692,2131459
32,19,female,Belgian,4,125,ITC,neutral,5,left,3,ITC_choice,808,f,0,0,162,353882,2132269
32,19,female,Belgian,4,125,ITC,neutral,5,left,3,ITC_wait,0,undefined,0,0,162,348878,2137273
32,19,female,Belgian,4,125,ITC,neutral,5,left,3,ITC_collect,685,k,0,0,162,348192,2137959
32,19,female,Belgian,4,125,ITC,neutral,5,left,3,ITC_outcome,0,undefined,0,0,182,347187,2138964
32,19,female,Belgian,4,126,guess,loss,5,right,11,guess_start,1456,space,0,0,182,345729,2140422
32,19,female,Belgian,4,126,guess,loss,5,right,11,guess_choice,1170,f,0,0,182,344556,2141595
32,19,female,Belgian,4,126,guess,loss,5,right,11,guess_outcome,0,undefined,0,0,167,342998,2143153
32,19,female,Belgian,4,126,ITC,loss,5,right,11,ITC_start,637,space,0,0,167,342359,2143792
32,19,female,Belgian,4,126,ITC,loss,5,right,11,ITC_wait,0,undefined,0,0,167,341320,2144831
32,19,female,Belgian,4,126,ITC,loss,5,right,11,ITC_choice,1035,f,0,0,167,341323,2144828
32,19,female,Belgian,4,126,ITC,loss,5,right,11,ITC_collect,722,k,0,0,167,340597,2145554
32,19,female,Belgian,4,126,ITC,loss,5,right,11,ITC_outcome,0,undefined,0,0,178,339592,2146559
32,19,female,Belgian,4,127,guess,neutral,10,right,3,guess_start,559,space,0,0,178,339031,2147120
32,19,female,Belgian,4,127,guess,neutral,10,right,3,guess_choice,584,j,0,0,178,338444,2147707
32,19,female,Belgian,4,127,guess,neutral,10,right,3,guess_outcome,0,undefined,0,0,178,336890,2149261
32,19,female,Belgian,4,127,ITC,neutral,10,right,3,ITC_start,788,space,0,0,178,336100,2150051
32,19,female,Belgian,4,127,ITC,neutral,10,right,3,ITC_choice,881,j,0,0,178,335216,2150935
32,19,female,Belgian,4,127,ITC,neutral,10,right,3,ITC_wait,0,undefined,0,0,178,325213,2160938
32,19,female,Belgian,4,127,ITC,neutral,10,right,3,ITC_collect,1016,k,0,0,178,324195,2161956
32,19,female,Belgian,4,127,ITC,neutral,10,right,3,ITC_outcome,0,undefined,0,0,198,323193,2162958
32,19,female,Belgian,4,128,guess,neutral,5,left,4,guess_start,2252,space,0,0,198,320939,2165212
32,19,female,Belgian,4,128,guess,neutral,5,left,4,guess_choice,650,f,0,0,198,320286,2165865
32,19,female,Belgian,4,128,guess,neutral,5,left,4,guess_outcome,0,undefined,0,0,198,318730,2167421
32,19,female,Belgian,4,128,ITC,neutral,5,left,4,ITC_start,2185,space,0,0,198,316544,2169607
32,19,female,Belgian,4,128,ITC,neutral,5,left,4,ITC_choice,755,f,0,0,198,315788,2170363
32,19,female,Belgian,4,128,ITC,neutral,5,left,4,ITC_wait,0,undefined,0,0,198,310786,2175365
32,19,female,Belgian,4,128,ITC,neutral,5,left,4,ITC_collect,560,k,0,0,198,310225,2175926
32,19,female,Belgian,4,128,ITC,neutral,5,left,4,ITC_outcome,0,undefined,0,0,218,309220,2176931
32,19,female,Belgian,4,129,guess,win,10,right,2,guess_start,828,space,0,0,218,308391,2177760
32,19,female,Belgian,4,129,guess,win,10,right,2,guess_choice,635,j,0,0,218,307753,2178398
32,19,female,Belgian,4,129,guess,win,10,right,2,guess_outcome,0,undefined,0,0,238,306198,2179953
32,19,female,Belgian,4,129,ITC,win,10,right,2,ITC_start,922,space,0,0,238,305274,2180877
32,19,female,Belgian,4,129,ITC,win,10,right,2,ITC_choice,681,j,0,0,238,304590,2181561
32,19,female,Belgian,4,129,ITC,win,10,right,2,ITC_wait,0,undefined,0,0,238,294586,2191565
32,19,female,Belgian,4,129,ITC,win,10,right,2,ITC_collect,781,k,0,0,238,293804,2192347
32,19,female,Belgian,4,129,ITC,win,10,right,2,ITC_outcome,0,undefined,0,0,258,292799,2193352
32,19,female,Belgian,4,130,guess,win,5,left,13,guess_start,1098,space,0,0,258,291700,2194451
32,19,female,Belgian,4,130,guess,win,5,left,13,guess_choice,711,f,0,0,258,290985,2195166
32,19,female,Belgian,4,130,guess,win,5,left,13,guess_outcome,0,undefined,0,0,278,289431,2196720
32,19,female,Belgian,4,130,ITC,win,5,left,13,ITC_start,804,space,0,0,278,288626,2197525
32,19,female,Belgian,4,130,ITC,win,5,left,13,ITC_choice,1391,j,0,0,278,287234,2198917
32,19,female,Belgian,4,130,ITC,win,5,left,13,ITC_wait,0,undefined,0,0,278,287231,2198920
32,19,female,Belgian,4,130,ITC,win,5,left,13,ITC_collect,659,k,0,0,278,286571,2199580
32,19,female,Belgian,4,130,ITC,win,5,left,13,ITC_outcome,0,undefined,0,0,291,285568,2200583
32,19,female,Belgian,4,131,guess,neutral,5,left,12,guess_start,756,space,0,0,291,284810,2201341
32,19,female,Belgian,4,131,guess,neutral,5,left,12,guess_choice,879,f,0,0,291,283928,2202223
32,19,female,Belgian,4,131,guess,neutral,5,left,12,guess_outcome,0,undefined,0,0,291,282373,2203778
32,19,female,Belgian,4,131,ITC,neutral,5,left,12,ITC_start,892,space,0,0,291,281479,2204672
32,19,female,Belgian,4,131,ITC,neutral,5,left,12,ITC_choice,1951,j,0,0,291,279527,2206624
32,19,female,Belgian,4,131,ITC,neutral,5,left,12,ITC_wait,0,undefined,0,0,291,279522,2206629
32,19,female,Belgian,4,131,ITC,neutral,5,left,12,ITC_collect,563,k,0,0,291,278958,2207193
32,19,female,Belgian,4,131,ITC,neutral,5,left,12,ITC_outcome,0,undefined,0,0,303,277955,2208196
32,19,female,Belgian,4,132,guess,loss,5,left,4,guess_start,533,space,0,0,303,277420,2208731
32,19,female,Belgian,4,132,guess,loss,5,left,4,guess_choice,536,f,0,0,303,276882,2209269
32,19,female,Belgian,4,132,guess,loss,5,left,4,guess_outcome,0,undefined,0,0,288,275327,2210824
32,19,female,Belgian,4,132,ITC,loss,5,left,4,ITC_start,730,space,0,0,288,274596,2211555
32,19,female,Belgian,4,132,ITC,loss,5,left,4,ITC_choice,867,f,0,0,288,273727,2212424
32,19,female,Belgian,4,132,ITC,loss,5,left,4,ITC_wait,0,undefined,0,0,288,268725,2217426
32,19,female,Belgian,4,132,ITC,loss,5,left,4,ITC_collect,414,k,0,0,288,268309,2217842
32,19,female,Belgian,4,132,ITC,loss,5,left,4,ITC_outcome,0,undefined,0,0,308,267306,2218845
32,19,female,Belgian,4,133,guess,neutral,10,left,4,guess_start,2054,space,0,0,308,265250,2220901
32,19,female,Belgian,4,133,guess,neutral,10,left,4,guess_choice,545,f,0,0,308,264703,2221448
32,19,female,Belgian,4,133,guess,neutral,10,left,4,guess_outcome,0,undefined,0,0,308,263144,2223007
32,19,female,Belgian,4,133,ITC,neutral,10,left,4,ITC_start,809,space,0,0,308,262333,2223818
32,19,female,Belgian,4,133,ITC,neutral,10,left,4,ITC_choice,853,f,0,0,308,261479,2224672
32,19,female,Belgian,4,133,ITC,neutral,10,left,4,ITC_wait,0,undefined,0,0,308,251476,2234675
32,19,female,Belgian,4,133,ITC,neutral,10,left,4,ITC_collect,446,k,0,0,308,251028,2235123
32,19,female,Belgian,4,133,ITC,neutral,10,left,4,ITC_outcome,0,undefined,0,0,328,250023,2236128
32,19,female,Belgian,4,134,guess,win,5,left,14,guess_start,1111,space,0,0,328,248910,2237241
32,19,female,Belgian,4,134,guess,win,5,left,14,guess_choice,748,j,0,0,328,248159,2237992
32,19,female,Belgian,4,134,guess,win,5,left,14,guess_outcome,0,undefined,0,0,348,246603,2239548
32,19,female,Belgian,4,134,ITC,win,5,left,14,ITC_start,1291,space,0,0,348,245310,2240841
32,19,female,Belgian,4,134,ITC,win,5,left,14,ITC_choice,983,j,0,0,348,244326,2241825
32,19,female,Belgian,4,134,ITC,win,5,left,14,ITC_wait,0,undefined,0,0,348,244323,2241828
32,19,female,Belgian,4,134,ITC,win,5,left,14,ITC_collect,687,k,0,0,348,243635,2242516
32,19,female,Belgian,4,134,ITC,win,5,left,14,ITC_outcome,0,undefined,0,0,362,242629,2243522
32,19,female,Belgian,4,135,guess,win,10,right,4,guess_start,1435,space,0,0,362,241193,2244958
32,19,female,Belgian,4,135,guess,win,10,right,4,guess_choice,665,f,0,0,362,240524,2245627
32,19,female,Belgian,4,135,guess,win,10,right,4,guess_outcome,0,undefined,0,0,382,238966,2247185
32,19,female,Belgian,4,135,ITC,win,10,right,4,ITC_start,1499,space,0,0,382,237465,2248686
32,19,female,Belgian,4,135,ITC,win,10,right,4,ITC_choice,806,j,0,0,382,236658,2249493
32,19,female,Belgian,4,135,ITC,win,10,right,4,ITC_wait,0,undefined,0,0,382,226655,2259496
32,19,female,Belgian,4,135,ITC,win,10,right,4,ITC_collect,874,k,0,0,382,225780,2260371
32,19,female,Belgian,4,135,ITC,win,10,right,4,ITC_outcome,0,undefined,0,0,402,224774,2261377
32,19,female,Belgian,4,136,guess,neutral,10,left,1,guess_start,901,space,0,0,402,223871,2262280
32,19,female,Belgian,4,136,guess,neutral,10,left,1,guess_choice,566,f,0,0,402,223302,2262849
32,19,female,Belgian,4,136,guess,neutral,10,left,1,guess_outcome,0,undefined,0,0,402,221747,2264404
32,19,female,Belgian,4,136,ITC,neutral,10,left,1,ITC_start,1578,space,0,0,402,220167,2265984
32,19,female,Belgian,4,136,ITC,neutral,10,left,1,ITC_choice,729,f,0,0,402,219436,2266715
32,19,female,Belgian,4,136,ITC,neutral,10,left,1,ITC_wait,0,undefined,0,0,402,209434,2276717
32,19,female,Belgian,4,136,ITC,neutral,10,left,1,ITC_collect,652,k,0,0,402,208780,2277371
32,19,female,Belgian,4,136,ITC,neutral,10,left,1,ITC_outcome,0,undefined,0,0,422,207774,2278377
32,19,female,Belgian,4,137,guess,win,5,right,1,guess_start,868,space,0,0,422,206904,2279247
32,19,female,Belgian,4,137,guess,win,5,right,1,guess_choice,599,f,0,0,422,206301,2279850
32,19,female,Belgian,4,137,guess,win,5,right,1,guess_outcome,0,undefined,0,0,442,204745,2281406
32,19,female,Belgian,4,137,ITC,win,5,right,1,ITC_start,1250,space,0,0,442,203494,2282657
32,19,female,Belgian,4,137,ITC,win,5,right,1,ITC_choice,702,j,0,0,442,202791,2283360
32,19,female,Belgian,4,137,ITC,win,5,right,1,ITC_wait,0,undefined,0,0,442,197785,2288366
32,19,female,Belgian,4,137,ITC,win,5,right,1,ITC_collect,1487,k,0,0,442,196298,2289853
32,19,female,Belgian,4,137,ITC,win,5,right,1,ITC_outcome,0,undefined,0,0,462,195295,2290856
32,19,female,Belgian,4,138,guess,loss,5,left,2,guess_start,2040,space,0,0,462,193254,2292897
32,19,female,Belgian,4,138,guess,loss,5,left,2,guess_choice,702,j,0,0,462,192549,2293602
32,19,female,Belgian,4,138,guess,loss,5,left,2,guess_outcome,0,undefined,0,0,447,190994,2295157
32,19,female,Belgian,4,138,ITC,loss,5,left,2,ITC_start,1830,space,0,0,447,189163,2296988
32,19,female,Belgian,4,138,ITC,loss,5,left,2,ITC_choice,766,f,0,0,447,188396,2297755
32,19,female,Belgian,4,138,ITC,loss,5,left,2,ITC_wait,0,undefined,0,0,447,183394,2302757
32,19,female,Belgian,4,138,ITC,loss,5,left,2,ITC_collect,659,k,0,0,447,182733,2303418
32,19,female,Belgian,4,138,ITC,loss,5,left,2,ITC_outcome,0,undefined,0,0,467,181727,2304424
32,19,female,Belgian,4,139,guess,neutral,10,left,6,guess_start,826,space,0,0,467,180899,2305252
32,19,female,Belgian,4,139,guess,neutral,10,left,6,guess_choice,618,f,0,0,467,180279,2305872
32,19,female,Belgian,4,139,guess,neutral,10,left,6,guess_outcome,0,undefined,0,0,467,178723,2307428
32,19,female,Belgian,4,139,ITC,neutral,10,left,6,ITC_start,1015,space,0,0,467,177706,2308445
32,19,female,Belgian,4,139,ITC,neutral,10,left,6,ITC_choice,658,f,0,0,467,177047,2309104
32,19,female,Belgian,4,139,ITC,neutral,10,left,6,ITC_wait,0,undefined,0,0,467,167045,2319106
32,19,female,Belgian,4,139,ITC,neutral,10,left,6,ITC_collect,588,k,0,0,467,166455,2319696
32,19,female,Belgian,4,139,ITC,neutral,10,left,6,ITC_outcome,0,undefined,0,0,487,165451,2320700
32,19,female,Belgian,4,140,guess,loss,10,right,2,guess_start,1077,space,0,0,487,164373,2321778
32,19,female,Belgian,4,140,guess,loss,10,right,2,guess_choice,583,j,0,0,487,163787,2322364
32,19,female,Belgian,4,140,guess,loss,10,right,2,guess_outcome,0,undefined,0,0,472,162235,2323916
