subjectID,age,gender,nationality,block_number,trial_number,trial_type,guess_outcome,delay_time,delay_pos,immediate_amount,stage,respRT,respKey,blur_count,focus_count,total_points,remaining_duration,time_elapsed
47,21,female,Belgian,1,1,guess,neutral,5,right,13,guess_start,2902,space,0,0,0,477097,267929
47,21,female,Belgian,1,1,guess,neutral,5,right,13,guess_choice,1314,j,0,0,0,475779,269247
47,21,female,Belgian,1,1,guess,neutral,5,right,13,guess_outcome,0,undefined,0,0,0,474225,270801
47,21,female,Belgian,1,1,ITC,neutral,5,right,13,ITC_start,2250,space,0,0,0,471974,273052
47,21,female,Belgian,1,1,ITC,neutral,5,right,13,ITC_choice,2334,f,0,0,0,469639,275387
47,21,female,Belgian,1,1,ITC,neutral,5,right,13,ITC_wait,0,undefined,0,0,0,469637,275389
47,21,female,Belgian,1,1,ITC,neutral,5,right,13,ITC_collect,1998,k,0,0,0,467637,277389
47,21,female,Belgian,1,1,ITC,neutral,5,right,13,ITC_outcome,0,undefined,0,0,13,466627,278399
47,21,female,Belgian,1,2,guess,win,5,left,4,guess_start,2803,space,0,0,13,463821,281205
47,21,female,Belgian,1,2,guess,win,5,left,4,guess_choice,2103,f,0,0,13,461715,283311
47,21,female,Belgian,1,2,guess,win,5,left,4,guess_outcome,0,undefined,0,0,33,460156,284870
47,21,female,Belgian,1,2,ITC,win,5,left,4,ITC_start,1128,space,0,0,33,459027,285999
47,21,female,Belgian,1,2,ITC,win,5,left,4,ITC_choice,2200,f,0,0,33,456826,288200
47,21,female,Belgian,1,2,ITC,win,5,left,4,ITC_wait,0,undefined,0,0,33,451817,293209
47,21,female,Belgian,1,2,ITC,win,5,left,4,ITC_collect,1045,k,0,0,33,450770,294256
47,21,female,Belgian,1,2,ITC,win,5,left,4,ITC_outcome,0,undefined,0,0,53,449767,295259
47,21,female,Belgian,1,3,guess,win,5,right,7,guess_start,1082,space,0,0,53,448684,296342
47,21,female,Belgian,1,3,guess,win,5,right,7,guess_choice,1359,j,0,0,53,447323,297703
47,21,female,Belgian,1,3,guess,win,5,right,7,guess_outcome,0,undefined,0,0,73,445757,299269
47,21,female,Belgian,1,3,ITC,win,5,right,7,ITC_start,1885,space,0,0,73,443870,301156
47,21,female,Belgian,1,3,ITC,win,5,right,7,ITC_choice,1809,j,0,0,73,442060,302966
47,21,female,Belgian,1,3,ITC,win,5,right,7,ITC_wait,0,undefined,0,0,73,437050,307976
47,21,female,Belgian,1,3,ITC,win,5,right,7,ITC_collect,1203,k,0,0,73,435846,309180
47,21,female,Belgian,1,3,ITC,win,5,right,7,ITC_outcome,0,undefined,0,0,93,434827,310199
47,21,female,Belgian,1,4,guess,neutral,5,left,4,guess_start,883,space,0,0,93,433943,311083
47,21,female,Belgian,1,4,guess,neutral,5,left,4,guess_choice,806,f,0,0,93,433132,311894
47,21,female,Belgian,1,4,guess,neutral,5,left,4,guess_outcome,0,undefined,0,0,93,431577,313449
47,21,female,Belgian,1,4,ITC,neutral,5,left,4,ITC_start,1744,space,0,0,93,429830,315196
47,21,female,Belgian,1,4,ITC,neutral,5,left,4,ITC_choice,1603,f,0,0,93,428225,316801
47,21,female,Belgian,1,4,ITC,neutral,5,left,4,ITC_wait,0,undefined,0,0,93,423217,321809
47,21,female,Belgian,1,4,ITC,neutral,5,left,4,ITC_collect,1185,k,0,0,93,422030,322996
47,21,female,Belgian,1,4,ITC,neutral,5,left,4,ITC_outcome,0,undefined,0,0,113,421017,324009
47,21,female,Belgian,1,5,guess,loss,10,right,7,guess_start,1116,space,0,0,113,419895,325131
47,21,female,Belgian,1,5,guess,loss,10,right,7,guess_choice,873,j,0,0,113,419016,326010
47,21,female,Belgian,1,5,guess,loss,10,right,7,guess_outcome,0,undefined,0,0,98,417444,327582
47,21,female,Belgian,1,5,ITC,loss,10,right,7,ITC_start,1238,space,0,0,98,416204,328822
47,21,female,Belgian,1,5,ITC,loss,10,right,7,ITC_choice,2695,f,0,0,98,413507,331519
47,21,female,Belgian,1,5,ITC,loss,10,right,7,ITC_wait,0,undefined,0,0,98,413505,331521
47,21,female,Belgian,1,5,ITC,loss,10,right,7,ITC_collect,1324,k,0,0,98,412179,332847
47,21,female,Belgian,1,5,ITC,loss,10,right,7,ITC_outcome,0,undefined,0,0,105,411168,333858
47,21,female,Belgian,1,6,guess,loss,5,right,11,guess_start,1624,space,0,0,105,409543,335483
47,21,female,Belgian,1,6,guess,loss,5,right,11,guess_choice,1002,f,0,0,105,408538,336488
47,21,female,Belgian,1,6,guess,loss,5,right,11,guess_outcome,0,undefined,0,0,90,406973,338053
47,21,female,Belgian,1,6,ITC,loss,5,right,11,ITC_start,1423,space,0,0,90,405548,339478
47,21,female,Belgian,1,6,ITC,loss,5,right,11,ITC_choice,1907,j,0,0,90,403640,341386
47,21,female,Belgian,1,6,ITC,loss,5,right,11,ITC_wait,0,undefined,0,0,90,398624,346402
47,21,female,Belgian,1,6,ITC,loss,5,right,11,ITC_collect,943,k,0,0,90,397678,347348
47,21,female,Belgian,1,6,ITC,loss,5,right,11,ITC_outcome,0,undefined,0,0,110,396654,348372
47,21,female,Belgian,1,7,guess,neutral,10,right,3,guess_start,743,space,0,0,110,395909,349117
47,21,female,Belgian,1,7,guess,neutral,10,right,3,guess_choice,940,f,0,0,110,394965,350061
47,21,female,Belgian,1,7,guess,neutral,10,right,3,guess_outcome,0,undefined,0,0,110,393393,351633
47,21,female,Belgian,1,7,ITC,neutral,10,right,3,ITC_start,850,space,0,0,110,392541,352485
47,21,female,Belgian,1,7,ITC,neutral,10,right,3,ITC_choice,2045,f,0,0,110,390495,354531
47,21,female,Belgian,1,7,ITC,neutral,10,right,3,ITC_wait,0,undefined,0,0,110,390492,354534
47,21,female,Belgian,1,7,ITC,neutral,10,right,3,ITC_collect,1234,k,0,0,110,389257,355769
47,21,female,Belgian,1,7,ITC,neutral,10,right,3,ITC_outcome,0,undefined,0,0,113,388253,356773
47,21,female,Belgian,1,8,guess,win,5,left,3,guess_start,705,space,0,0,113,387548,357478
47,21,female,Belgian,1,8,guess,win,5,left,3,guess_choice,726,j,0,0,113,386818,358208
47,21,female,Belgian,1,8,guess,win,5,left,3,guess_outcome,0,undefined,0,0,133,385257,359769
47,21,female,Belgian,1,8,ITC,win,5,left,3,ITC_start,708,space,0,0,133,384547,360479
47,21,female,Belgian,1,8,ITC,win,5,left,3,ITC_choice,1275,f,0,0,133,383271,361755
47,21,female,Belgian,1,8,ITC,win,5,left,3,ITC_wait,0,undefined,0,0,133,378263,366763
47,21,female,Belgian,1,8,ITC,win,5,left,3,ITC_collect,893,k,0,0,133,377369,367657
47,21,female,Belgian,1,8,ITC,win,5,left,3,ITC_outcome,0,undefined,0,0,153,376356,368670
47,21,female,Belgian,1,9,guess,win,5,right,15,guess_start,959,space,0,0,153,375396,369630
47,21,female,Belgian,1,9,guess,win,5,right,15,guess_choice,815,j,0,0,153,374576,370450
47,21,female,Belgian,1,9,guess,win,5,right,15,guess_outcome,0,undefined,0,0,173,373017,372009
47,21,female,Belgian,1,9,ITC,win,5,right,15,ITC_start,873,space,0,0,173,372142,372884
47,21,female,Belgian,1,9,ITC,win,5,right,15,ITC_choice,1121,f,0,0,173,371020,374006
47,21,female,Belgian,1,9,ITC,win,5,right,15,ITC_wait,0,undefined,0,0,173,371018,374008
47,21,female,Belgian,1,9,ITC,win,5,right,15,ITC_collect,1318,k,0,0,173,369699,375327
47,21,female,Belgian,1,9,ITC,win,5,right,15,ITC_outcome,0,undefined,0,0,188,368693,376333
47,21,female,Belgian,1,10,guess,loss,10,left,1,guess_start,1940,space,0,0,188,366751,378275
47,21,female,Belgian,1,10,guess,loss,10,left,1,guess_choice,956,f,0,0,188,365792,379234
47,21,female,Belgian,1,10,guess,loss,10,left,1,guess_outcome,0,undefined,0,0,173,364223,380803
47,21,female,Belgian,1,10,ITC,loss,10,left,1,ITC_start,1041,space,0,0,173,363181,381845
47,21,female,Belgian,1,10,ITC,loss,10,left,1,ITC_choice,1504,f,0,0,173,361676,383350
47,21,female,Belgian,1,10,ITC,loss,10,left,1,ITC_wait,0,undefined,0,0,173,351650,393376
47,21,female,Belgian,1,10,ITC,loss,10,left,1,ITC_collect,485,k,0,0,173,351162,393864
47,21,female,Belgian,1,10,ITC,loss,10,left,1,ITC_outcome,0,undefined,0,0,193,350158,394868
47,21,female,Belgian,1,11,guess,win,5,left,13,guess_start,761,space,0,0,193,349395,395631
47,21,female,Belgian,1,11,guess,win,5,left,13,guess_choice,659,j,0,0,193,348734,396292
47,21,female,Belgian,1,11,guess,win,5,left,13,guess_outcome,0,undefined,0,0,213,347179,397847
47,21,female,Belgian,1,11,ITC,win,5,left,13,ITC_start,1071,space,0,0,213,346106,398920
47,21,female,Belgian,1,11,ITC,win,5,left,13,ITC_choice,1455,j,0,0,213,344648,400378
47,21,female,Belgian,1,11,ITC,win,5,left,13,ITC_wait,0,undefined,0,0,213,344644,400382
47,21,female,Belgian,1,11,ITC,win,5,left,13,ITC_collect,1265,k,0,0,213,343378,401648
47,21,female,Belgian,1,11,ITC,win,5,left,13,ITC_outcome,0,undefined,0,0,226,342359,402667
47,21,female,Belgian,1,12,guess,win,5,right,5,guess_start,747,space,0,0,226,341610,403416
47,21,female,Belgian,1,12,guess,win,5,right,5,guess_choice,670,f,0,0,226,340938,404088
47,21,female,Belgian,1,12,guess,win,5,right,5,guess_outcome,0,undefined,0,0,246,339369,405657
47,21,female,Belgian,1,12,ITC,win,5,right,5,ITC_start,863,space,0,0,246,338505,406521
47,21,female,Belgian,1,12,ITC,win,5,right,5,ITC_choice,1181,j,0,0,246,337322,407704
47,21,female,Belgian,1,12,ITC,win,5,right,5,ITC_wait,0,undefined,0,0,246,332299,412727
47,21,female,Belgian,1,12,ITC,win,5,right,5,ITC_collect,1099,k,0,0,246,331198,413828
47,21,female,Belgian,1,12,ITC,win,5,right,5,ITC_outcome,0,undefined,0,0,266,330190,414836
47,21,female,Belgian,1,13,guess,loss,5,right,13,guess_start,804,space,0,0,266,329384,415642
47,21,female,Belgian,1,13,guess,loss,5,right,13,guess_choice,689,j,0,0,266,328693,416333
47,21,female,Belgian,1,13,guess,loss,5,right,13,guess_outcome,0,undefined,0,0,251,327130,417896
47,21,female,Belgian,1,13,ITC,loss,5,right,13,ITC_start,1152,space,0,0,251,325976,419050
47,21,female,Belgian,1,13,ITC,loss,5,right,13,ITC_choice,1013,f,0,0,251,324963,420063
47,21,female,Belgian,1,13,ITC,loss,5,right,13,ITC_wait,0,undefined,0,0,251,324961,420065
47,21,female,Belgian,1,13,ITC,loss,5,right,13,ITC_collect,896,k,0,0,251,324064,420962
47,21,female,Belgian,1,13,ITC,loss,5,right,13,ITC_outcome,0,undefined,0,0,264,323054,421972
47,21,female,Belgian,1,14,guess,win,10,right,1,guess_start,918,space,0,0,264,322135,422891
47,21,female,Belgian,1,14,guess,win,10,right,1,guess_choice,886,j,0,0,264,321247,423779
47,21,female,Belgian,1,14,guess,win,10,right,1,guess_outcome,0,undefined,0,0,284,319692,425334
47,21,female,Belgian,1,14,ITC,win,10,right,1,ITC_start,775,space,0,0,284,318916,426110
47,21,female,Belgian,1,14,ITC,win,10,right,1,ITC_choice,3019,j,0,0,284,315896,429130
47,21,female,Belgian,1,14,ITC,win,10,right,1,ITC_wait,0,undefined,0,0,284,305880,439146
47,21,female,Belgian,1,14,ITC,win,10,right,1,ITC_collect,997,k,0,0,284,304881,440145
47,21,female,Belgian,1,14,ITC,win,10,right,1,ITC_outcome,0,undefined,0,0,304,303876,441150
47,21,female,Belgian,1,15,guess,neutral,5,right,7,guess_start,623,space,0,0,304,303252,441774
47,21,female,Belgian,1,15,guess,neutral,5,right,7,guess_choice,957,f,0,0,304,302294,442732
47,21,female,Belgian,1,15,guess,neutral,5,right,7,guess_outcome,0,undefined,0,0,304,300730,444296
47,21,female,Belgian,1,15,ITC,neutral,5,right,7,ITC_start,810,space,0,0,304,299918,445108
47,21,female,Belgian,1,15,ITC,neutral,5,right,7,ITC_choice,1628,j,0,0,304,298290,446736
47,21,female,Belgian,1,15,ITC,neutral,5,right,7,ITC_wait,0,undefined,0,0,304,293272,451754
47,21,female,Belgian,1,15,ITC,neutral,5,right,7,ITC_collect,1003,k,0,0,304,292268,452758
47,21,female,Belgian,1,15,ITC,neutral,5,right,7,ITC_outcome,0,undefined,0,0,324,291249,453777
47,21,female,Belgian,1,16,guess,neutral,10,left,5,guess_start,926,space,0,0,324,290321,454705
47,21,female,Belgian,1,16,guess,neutral,10,left,5,guess_choice,765,f,0,0,324,289554,455472
47,21,female,Belgian,1,16,guess,neutral,10,left,5,guess_outcome,0,undefined,0,0,324,287999,457027
47,21,female,Belgian,1,16,ITC,neutral,10,left,5,ITC_start,1567,space,0,0,324,286430,458596
47,21,female,Belgian,1,16,ITC,neutral,10,left,5,ITC_choice,1966,j,0,0,324,284463,460563
47,21,female,Belgian,1,16,ITC,neutral,10,left,5,ITC_wait,0,undefined,0,0,324,284459,460567
47,21,female,Belgian,1,16,ITC,neutral,10,left,5,ITC_collect,1043,k,0,0,324,283414,461612
47,21,female,Belgian,1,16,ITC,neutral,10,left,5,ITC_outcome,0,undefined,0,0,329,282409,462617
47,21,female,Belgian,1,17,guess,loss,5,left,9,guess_start,662,space,0,0,329,281745,463281
47,21,female,Belgian,1,17,guess,loss,5,left,9,guess_choice,1199,j,0,0,329,280542,464484
47,21,female,Belgian,1,17,guess,loss,5,left,9,guess_outcome,0,undefined,0,0,314,278969,466057
47,21,female,Belgian,1,17,ITC,loss,5,left,9,ITC_start,1058,space,0,0,314,277909,467117
47,21,female,Belgian,1,17,ITC,loss,5,left,9,ITC_choice,1846,j,0,0,314,276061,468965
47,21,female,Belgian,1,17,ITC,loss,5,left,9,ITC_wait,0,undefined,0,0,314,276057,468969
47,21,female,Belgian,1,17,ITC,loss,5,left,9,ITC_collect,809,k,0,0,314,275247,469779
47,21,female,Belgian,1,17,ITC,loss,5,left,9,ITC_outcome,0,undefined,0,0,323,274239,470787
47,21,female,Belgian,1,18,guess,win,5,right,9,guess_start,754,space,0,0,323,273483,471543
47,21,female,Belgian,1,18,guess,win,5,right,9,guess_choice,651,f,0,0,323,272827,472199
47,21,female,Belgian,1,18,guess,win,5,right,9,guess_outcome,0,undefined,0,0,343,271259,473767
47,21,female,Belgian,1,18,ITC,win,5,right,9,ITC_start,824,space,0,0,343,270433,474593
47,21,female,Belgian,1,18,ITC,win,5,right,9,ITC_choice,1484,f,0,0,343,268947,476079
47,21,female,Belgian,1,18,ITC,win,5,right,9,ITC_wait,0,undefined,0,0,343,268943,476083
47,21,female,Belgian,1,18,ITC,win,5,right,9,ITC_collect,829,k,0,0,343,268112,476914
47,21,female,Belgian,1,18,ITC,win,5,right,9,ITC_outcome,0,undefined,0,0,352,267090,477936
47,21,female,Belgian,1,19,guess,win,5,right,10,guess_start,1220,space,0,0,352,265868,479158
47,21,female,Belgian,1,19,guess,win,5,right,10,guess_choice,764,j,0,0,352,265103,479923
47,21,female,Belgian,1,19,guess,win,5,right,10,guess_outcome,0,undefined,0,0,372,263543,481483
47,21,female,Belgian,1,19,ITC,win,5,right,10,ITC_start,2075,space,0,0,372,261466,483560
47,21,female,Belgian,1,19,ITC,win,5,right,10,ITC_choice,1927,f,0,0,372,259539,485487
47,21,female,Belgian,1,19,ITC,win,5,right,10,ITC_wait,0,undefined,0,0,372,259536,485490
47,21,female,Belgian,1,19,ITC,win,5,right,10,ITC_collect,1378,k,0,0,372,258157,486869
47,21,female,Belgian,1,19,ITC,win,5,right,10,ITC_outcome,0,undefined,0,0,382,257152,487874
47,21,female,Belgian,1,20,guess,loss,5,left,5,guess_start,672,space,0,0,382,256479,488547
47,21,female,Belgian,1,20,guess,loss,5,left,5,guess_choice,654,j,0,0,382,255823,489203
47,21,female,Belgian,1,20,guess,loss,5,left,5,guess_outcome,0,undefined,0,0,367,254262,490764
47,21,female,Belgian,1,20,ITC,loss,5,left,5,ITC_start,688,space,0,0,367,253573,491453
47,21,female,Belgian,1,20,ITC,loss,5,left,5,ITC_choice,1436,f,0,0,367,252135,492891
47,21,female,Belgian,1,20,ITC,loss,5,left,5,ITC_wait,0,undefined,0,0,367,247129,497897
47,21,female,Belgian,1,20,ITC,loss,5,left,5,ITC_collect,501,k,0,0,367,246626,498400
47,21,female,Belgian,1,20,ITC,loss,5,left,5,ITC_outcome,0,undefined,0,0,387,245609,499417
47,21,female,Belgian,1,21,guess,loss,10,left,6,guess_start,635,space,0,0,387,244971,500055
47,21,female,Belgian,1,21,guess,loss,10,left,6,guess_choice,909,f,0,0,387,244058,500968
47,21,female,Belgian,1,21,guess,loss,10,left,6,guess_outcome,0,undefined,0,0,372,242499,502527
47,21,female,Belgian,1,21,ITC,loss,10,left,6,ITC_start,803,space,0,0,372,241694,503332
47,21,female,Belgian,1,21,ITC,loss,10,left,6,ITC_choice,1619,f,0,0,372,240073,504953
47,21,female,Belgian,1,21,ITC,loss,10,left,6,ITC_wait,0,undefined,0,0,372,230063,514963
47,21,female,Belgian,1,21,ITC,loss,10,left,6,ITC_collect,812,k,0,0,372,229249,515777
47,21,female,Belgian,1,21,ITC,loss,10,left,6,ITC_outcome,0,undefined,0,0,392,228244,516782
47,21,female,Belgian,1,22,guess,neutral,5,left,12,guess_start,724,space,0,0,392,227520,517506
47,21,female,Belgian,1,22,guess,neutral,5,left,12,guess_choice,614,j,0,0,392,226904,518122
47,21,female,Belgian,1,22,guess,neutral,5,left,12,guess_outcome,0,undefined,0,0,392,225349,519677
47,21,female,Belgian,1,22,ITC,neutral,5,left,12,ITC_start,773,space,0,0,392,224574,520452
47,21,female,Belgian,1,22,ITC,neutral,5,left,12,ITC_choice,1757,f,0,0,392,222815,522211
47,21,female,Belgian,1,22,ITC,neutral,5,left,12,ITC_wait,0,undefined,0,0,392,217805,527221
47,21,female,Belgian,1,22,ITC,neutral,5,left,12,ITC_collect,965,k,0,0,392,216838,528188
47,21,female,Belgian,1,22,ITC,neutral,5,left,12,ITC_outcome,0,undefined,0,0,412,215820,529206
47,21,female,Belgian,1,23,guess,loss,5,left,10,guess_start,1454,space,0,0,412,214365,530661
47,21,female,Belgian,1,23,guess,loss,5,left,10,guess_choice,972,j,0,0,412,213391,531635
47,21,female,Belgian,1,23,guess,loss,5,left,10,guess_outcome,0,undefined,0,0,397,211828,533198
47,21,female,Belgian,1,23,ITC,loss,5,left,10,ITC_start,652,space,0,0,397,211175,533851
47,21,female,Belgian,1,23,ITC,loss,5,left,10,ITC_choice,1559,j,0,0,397,209615,535411
47,21,female,Belgian,1,23,ITC,loss,5,left,10,ITC_wait,0,undefined,0,0,397,209612,535414
47,21,female,Belgian,1,23,ITC,loss,5,left,10,ITC_collect,1160,k,0,0,397,208451,536575
47,21,female,Belgian,1,23,ITC,loss,5,left,10,ITC_outcome,0,undefined,0,0,407,207429,537597
47,21,female,Belgian,1,24,guess,neutral,5,right,9,guess_start,844,space,0,0,407,206584,538442
47,21,female,Belgian,1,24,guess,neutral,5,right,9,guess_choice,687,f,0,0,407,205894,539132
47,21,female,Belgian,1,24,guess,neutral,5,right,9,guess_outcome,0,undefined,0,0,407,204334,540692
47,21,female,Belgian,1,24,ITC,neutral,5,right,9,ITC_start,979,space,0,0,407,203354,541672
47,21,female,Belgian,1,24,ITC,neutral,5,right,9,ITC_choice,1778,j,0,0,407,201574,543452
47,21,female,Belgian,1,24,ITC,neutral,5,right,9,ITC_wait,0,undefined,0,0,407,196569,548457
47,21,female,Belgian,1,24,ITC,neutral,5,right,9,ITC_collect,729,k,0,0,407,195837,549189
47,21,female,Belgian,1,24,ITC,neutral,5,right,9,ITC_outcome,0,undefined,0,0,427,194829,550197
47,21,female,Belgian,1,25,guess,loss,5,left,2,guess_start,665,space,0,0,427,194159,550867
47,21,female,Belgian,1,25,guess,loss,5,left,2,guess_choice,1483,f,0,0,427,192672,552354
47,21,female,Belgian,1,25,guess,loss,5,left,2,guess_outcome,0,undefined,0,0,412,191108,553918
47,21,female,Belgian,1,25,ITC,loss,5,left,2,ITC_start,843,space,0,0,412,190264,554762
47,21,female,Belgian,1,25,ITC,loss,5,left,2,ITC_choice,1593,f,0,0,412,188668,556358
47,21,female,Belgian,1,25,ITC,loss,5,left,2,ITC_wait,0,undefined,0,0,412,183663,561363
47,21,female,Belgian,1,25,ITC,loss,5,left,2,ITC_collect,676,k,0,0,412,182985,562041
47,21,female,Belgian,1,25,ITC,loss,5,left,2,ITC_outcome,0,undefined,0,0,432,181970,563056
47,21,female,Belgian,1,26,guess,neutral,10,right,1,guess_start,533,space,0,0,432,181436,563590
47,21,female,Belgian,1,26,guess,neutral,10,right,1,guess_choice,662,j,0,0,432,180769,564257
47,21,female,Belgian,1,26,guess,neutral,10,right,1,guess_outcome,0,undefined,0,0,432,179209,565817
47,21,female,Belgian,1,26,ITC,neutral,10,right,1,ITC_start,767,space,0,0,432,178440,566586
47,21,female,Belgian,1,26,ITC,neutral,10,right,1,ITC_choice,1890,j,0,0,432,176547,568479
47,21,female,Belgian,1,26,ITC,neutral,10,right,1,ITC_wait,0,undefined,0,0,432,166529,578497
47,21,female,Belgian,1,26,ITC,neutral,10,right,1,ITC_collect,517,k,0,0,432,166010,579016
47,21,female,Belgian,1,26,ITC,neutral,10,right,1,ITC_outcome,0,undefined,0,0,452,164986,580040
47,21,female,Belgian,1,27,guess,neutral,5,right,10,guess_start,676,space,0,0,452,164307,580719
47,21,female,Belgian,1,27,guess,neutral,5,right,10,guess_choice,649,j,0,0,452,163655,581371
47,21,female,Belgian,1,27,guess,neutral,5,right,10,guess_outcome,0,undefined,0,0,452,162086,582940
47,21,female,Belgian,1,27,ITC,neutral,5,right,10,ITC_start,899,space,0,0,452,161185,583841
47,21,female,Belgian,1,27,ITC,neutral,5,right,10,ITC_choice,1557,f,0,0,452,159626,585400
47,21,female,Belgian,1,27,ITC,neutral,5,right,10,ITC_wait,0,undefined,0,0,452,159623,585403
47,21,female,Belgian,1,27,ITC,neutral,5,right,10,ITC_collect,742,k,0,0,452,158880,586146
47,21,female,Belgian,1,27,ITC,neutral,5,right,10,ITC_outcome,0,undefined,0,0,462,157859,587167
47,21,female,Belgian,1,28,guess,neutral,5,left,11,guess_start,606,space,0,0,462,157252,587774
47,21,female,Belgian,1,28,guess,neutral,5,left,11,guess_choice,692,f,0,0,462,156555,588471
47,21,female,Belgian,1,28,guess,neutral,5,left,11,guess_outcome,0,undefined,0,0,462,155000,590026
47,21,female,Belgian,1,28,ITC,neutral,5,left,11,ITC_start,822,space,0,0,462,154176,590850
47,21,female,Belgian,1,28,ITC,neutral,5,left,11,ITC_choice,1756,j,0,0,462,152418,592608
47,21,female,Belgian,1,28,ITC,neutral,5,left,11,ITC_wait,0,undefined,0,0,462,152415,592611
47,21,female,Belgian,1,28,ITC,neutral,5,left,11,ITC_collect,676,k,0,0,462,151737,593289
47,21,female,Belgian,1,28,ITC,neutral,5,left,11,ITC_outcome,0,undefined,0,0,473,150729,594297
47,21,female,Belgian,1,29,guess,loss,5,right,12,guess_start,879,space,0,0,473,149848,595178
47,21,female,Belgian,1,29,guess,loss,5,right,12,guess_choice,861,j,0,0,473,148984,596042
47,21,female,Belgian,1,29,guess,loss,5,right,12,guess_outcome,0,undefined,0,0,458,147430,597596
47,21,female,Belgian,1,29,ITC,loss,5,right,12,ITC_start,669,space,0,0,458,146758,598268
47,21,female,Belgian,1,29,ITC,loss,5,right,12,ITC_choice,2208,j,0,0,458,144548,600478
47,21,female,Belgian,1,29,ITC,loss,5,right,12,ITC_wait,0,undefined,0,0,458,139539,605487
47,21,female,Belgian,1,29,ITC,loss,5,right,12,ITC_collect,862,k,0,0,458,138675,606351
47,21,female,Belgian,1,29,ITC,loss,5,right,12,ITC_outcome,0,undefined,0,0,478,137669,607357
47,21,female,Belgian,1,30,guess,win,10,left,7,guess_start,606,space,0,0,478,137061,607965
47,21,female,Belgian,1,30,guess,win,10,left,7,guess_choice,880,f,0,0,478,136177,608849
47,21,female,Belgian,1,30,guess,win,10,left,7,guess_outcome,0,undefined,0,0,498,134609,610417
47,21,female,Belgian,1,30,ITC,win,10,left,7,ITC_start,671,space,0,0,498,133936,611090
47,21,female,Belgian,1,30,ITC,win,10,left,7,ITC_choice,1912,f,0,0,498,132022,613004
47,21,female,Belgian,1,30,ITC,win,10,left,7,ITC_wait,0,undefined,0,0,498,122005,623021
47,21,female,Belgian,1,30,ITC,win,10,left,7,ITC_collect,581,k,0,0,498,121421,623605
47,21,female,Belgian,1,30,ITC,win,10,left,7,ITC_outcome,0,undefined,0,0,518,120412,624614
47,21,female,Belgian,1,31,guess,win,5,right,1,guess_start,587,space,0,0,518,119822,625204
47,21,female,Belgian,1,31,guess,win,5,right,1,guess_choice,707,f,0,0,518,119110,625916
47,21,female,Belgian,1,31,guess,win,5,right,1,guess_outcome,0,undefined,0,0,538,117547,627479
47,21,female,Belgian,1,31,ITC,win,5,right,1,ITC_start,848,space,0,0,538,116697,628329
47,21,female,Belgian,1,31,ITC,win,5,right,1,ITC_choice,1345,j,0,0,538,115350,629676
47,21,female,Belgian,1,31,ITC,win,5,right,1,ITC_wait,0,undefined,0,0,538,110343,634683
47,21,female,Belgian,1,31,ITC,win,5,right,1,ITC_collect,1230,k,0,0,538,109110,635916
47,21,female,Belgian,1,31,ITC,win,5,right,1,ITC_outcome,0,undefined,0,0,558,108092,636934
47,21,female,Belgian,1,32,guess,loss,5,left,16,guess_start,640,space,0,0,558,107450,637576
47,21,female,Belgian,1,32,guess,loss,5,left,16,guess_choice,632,j,0,0,558,106814,638212
47,21,female,Belgian,1,32,guess,loss,5,left,16,guess_outcome,0,undefined,0,0,543,105253,639773
47,21,female,Belgian,1,32,ITC,loss,5,left,16,ITC_start,727,space,0,0,543,104526,640500
47,21,female,Belgian,1,32,ITC,loss,5,left,16,ITC_choice,1375,j,0,0,543,103149,641877
47,21,female,Belgian,1,32,ITC,loss,5,left,16,ITC_wait,0,undefined,0,0,543,103148,641878
47,21,female,Belgian,1,32,ITC,loss,5,left,16,ITC_collect,798,k,0,0,543,102348,642678
47,21,female,Belgian,1,32,ITC,loss,5,left,16,ITC_outcome,0,undefined,0,0,559,101342,643684
47,21,female,Belgian,1,33,guess,neutral,5,left,6,guess_start,746,space,0,0,559,100594,644432
47,21,female,Belgian,1,33,guess,neutral,5,left,6,guess_choice,839,f,0,0,559,99750,645276
47,21,female,Belgian,1,33,guess,neutral,5,left,6,guess_outcome,0,undefined,0,0,559,98182,646844
47,21,female,Belgian,1,33,ITC,neutral,5,left,6,ITC_start,687,space,0,0,559,97494,647532
47,21,female,Belgian,1,33,ITC,neutral,5,left,6,ITC_choice,1211,f,0,0,559,96281,648745
47,21,female,Belgian,1,33,ITC,neutral,5,left,6,ITC_wait,0,undefined,0,0,559,91270,653756
47,21,female,Belgian,1,33,ITC,neutral,5,left,6,ITC_collect,784,k,0,0,559,90484,654542
47,21,female,Belgian,1,33,ITC,neutral,5,left,6,ITC_outcome,0,undefined,0,0,579,89473,655553
47,21,female,Belgian,1,34,guess,loss,5,right,4,guess_start,650,space,0,0,579,88820,656206
47,21,female,Belgian,1,34,guess,loss,5,right,4,guess_choice,641,j,0,0,579,88173,656853
47,21,female,Belgian,1,34,guess,loss,5,right,4,guess_outcome,0,undefined,0,0,564,86602,658424
47,21,female,Belgian,1,34,ITC,loss,5,right,4,ITC_start,663,space,0,0,564,85938,659088
47,21,female,Belgian,1,34,ITC,loss,5,right,4,ITC_choice,1314,j,0,0,564,84622,660404
47,21,female,Belgian,1,34,ITC,loss,5,right,4,ITC_wait,0,undefined,0,0,564,79602,665424
47,21,female,Belgian,1,34,ITC,loss,5,right,4,ITC_collect,940,k,0,0,564,78660,666366
47,21,female,Belgian,1,34,ITC,loss,5,right,4,ITC_outcome,0,undefined,0,0,584,77652,667374
47,21,female,Belgian,1,35,guess,neutral,5,right,3,guess_start,575,space,0,0,584,77076,667950
47,21,female,Belgian,1,35,guess,neutral,5,right,3,guess_choice,831,j,0,0,584,76241,668785
47,21,female,Belgian,1,35,guess,neutral,5,right,3,guess_outcome,0,undefined,0,0,584,74674,670352
47,21,female,Belgian,1,35,ITC,neutral,5,right,3,ITC_start,866,space,0,0,584,73807,671219
47,21,female,Belgian,1,35,ITC,neutral,5,right,3,ITC_choice,1191,j,0,0,584,72614,672412
47,21,female,Belgian,1,35,ITC,neutral,5,right,3,ITC_wait,0,undefined,0,0,584,67603,677423
47,21,female,Belgian,1,35,ITC,neutral,5,right,3,ITC_collect,1177,k,0,0,584,66423,678603
47,21,female,Belgian,1,35,ITC,neutral,5,right,3,ITC_outcome,0,undefined,0,0,604,65402,679624
47,21,female,Belgian,1,36,guess,win,10,left,3,guess_start,587,space,0,0,604,64813,680213
47,21,female,Belgian,1,36,guess,win,10,left,3,guess_choice,702,f,0,0,604,64108,680918
47,21,female,Belgian,1,36,guess,win,10,left,3,guess_outcome,0,undefined,0,0,624,62553,682473
47,21,female,Belgian,1,36,ITC,win,10,left,3,ITC_start,670,space,0,0,624,61882,683144
47,21,female,Belgian,1,36,ITC,win,10,left,3,ITC_choice,1518,f,0,0,624,60362,684664
47,21,female,Belgian,1,36,ITC,win,10,left,3,ITC_wait,0,undefined,0,0,624,50356,694670
47,21,female,Belgian,1,36,ITC,win,10,left,3,ITC_collect,571,k,0,0,624,49782,695244
47,21,female,Belgian,1,36,ITC,win,10,left,3,ITC_outcome,0,undefined,0,0,644,48776,696250
47,21,female,Belgian,1,37,guess,loss,10,right,4,guess_start,640,space,0,0,644,48135,696891
47,21,female,Belgian,1,37,guess,loss,10,right,4,guess_choice,914,f,0,0,644,47215,697811
47,21,female,Belgian,1,37,guess,loss,10,right,4,guess_outcome,0,undefined,0,0,629,45656,699370
47,21,female,Belgian,1,37,ITC,loss,10,right,4,ITC_start,819,space,0,0,629,44835,700191
47,21,female,Belgian,1,37,ITC,loss,10,right,4,ITC_choice,1102,j,0,0,629,43732,701294
47,21,female,Belgian,1,37,ITC,loss,10,right,4,ITC_wait,0,undefined,0,0,629,33719,711307
47,21,female,Belgian,1,37,ITC,loss,10,right,4,ITC_collect,514,k,0,0,629,33202,711824
47,21,female,Belgian,1,37,ITC,loss,10,right,4,ITC_outcome,0,undefined,0,0,649,32195,712831
47,21,female,Belgian,1,38,guess,neutral,5,right,14,guess_start,928,space,0,0,649,31265,713761
47,21,female,Belgian,1,38,guess,neutral,5,right,14,guess_choice,623,j,0,0,649,30638,714388
47,21,female,Belgian,1,38,guess,neutral,5,right,14,guess_outcome,0,undefined,0,0,649,29075,715951
47,21,female,Belgian,1,38,ITC,neutral,5,right,14,ITC_start,1132,space,0,0,649,27941,717085
47,21,female,Belgian,1,38,ITC,neutral,5,right,14,ITC_choice,1071,f,0,0,649,26868,718158
47,21,female,Belgian,1,38,ITC,neutral,5,right,14,ITC_wait,0,undefined,0,0,649,26864,718162
47,21,female,Belgian,1,38,ITC,neutral,5,right,14,ITC_collect,714,k,0,0,649,26148,718878
47,21,female,Belgian,1,38,ITC,neutral,5,right,14,ITC_outcome,0,undefined,0,0,663,25124,719902
47,21,female,Belgian,1,39,guess,loss,5,right,3,guess_start,619,space,0,0,663,24503,720523
47,21,female,Belgian,1,39,guess,loss,5,right,3,guess_choice,855,f,0,0,663,23643,721383
47,21,female,Belgian,1,39,guess,loss,5,right,3,guess_outcome,0,undefined,0,0,648,22085,722941
47,21,female,Belgian,1,39,ITC,loss,5,right,3,ITC_start,725,space,0,0,648,21358,723668
47,21,female,Belgian,1,39,ITC,loss,5,right,3,ITC_choice,997,j,0,0,648,20360,724666
47,21,female,Belgian,1,39,ITC,loss,5,right,3,ITC_wait,0,undefined,0,0,648,15345,729681
47,21,female,Belgian,1,39,ITC,loss,5,right,3,ITC_collect,1015,k,0,0,648,14327,730699
47,21,female,Belgian,1,39,ITC,loss,5,right,3,ITC_outcome,0,undefined,0,0,668,13314,731712
47,21,female,Belgian,1,40,guess,neutral,10,right,8,guess_start,560,space,0,0,668,12751,732275
47,21,female,Belgian,1,40,guess,neutral,10,right,8,guess_choice,547,j,0,0,668,12200,732826
47,21,female,Belgian,1,40,guess,neutral,10,right,8,guess_outcome,0,undefined,0,0,668,10635,734391
47,21,female,Belgian,1,40,ITC,neutral,10,right,8,ITC_start,714,space,0,0,668,9919,735107
47,21,female,Belgian,1,40,ITC,neutral,10,right,8,ITC_choice,1204,j,0,0,668,8713,736313
47,21,female,Belgian,1,40,ITC,neutral,10,right,8,ITC_wait,0,undefined,0,0,668,-8,745034
47,21,female,Belgian,2,41,guess,loss,10,left,2,guess_start,1453,space,0,0,0,478546,755180
47,21,female,Belgian,2,41,guess,loss,10,left,2,guess_choice,827,f,0,0,0,477715,756011
47,21,female,Belgian,2,41,guess,loss,10,left,2,guess_outcome,0,undefined,0,0,-15,476151,757575
47,21,female,Belgian,2,41,ITC,loss,10,left,2,ITC_start,1087,space,0,0,-15,475062,758664
47,21,female,Belgian,2,41,ITC,loss,10,left,2,ITC_choice,1215,f,0,0,-15,473852,759874
47,21,female,Belgian,2,41,ITC,loss,10,left,2,ITC_wait,0,undefined,0,0,-15,463834,769892
47,21,female,Belgian,2,41,ITC,loss,10,left,2,ITC_collect,743,k,0,0,-15,463088,770638
47,21,female,Belgian,2,41,ITC,loss,10,left,2,ITC_outcome,0,undefined,0,0,5,462070,771656
47,21,female,Belgian,2,42,guess,neutral,5,right,15,guess_start,698,space,0,0,5,461369,772357
47,21,female,Belgian,2,42,guess,neutral,5,right,15,guess_choice,613,f,0,0,5,460752,772974
47,21,female,Belgian,2,42,guess,neutral,5,right,15,guess_outcome,0,undefined,0,0,5,459180,774546
47,21,female,Belgian,2,42,ITC,neutral,5,right,15,ITC_start,675,space,0,0,5,458503,775223
47,21,female,Belgian,2,42,ITC,neutral,5,right,15,ITC_choice,1091,f,0,0,5,457409,776317
47,21,female,Belgian,2,42,ITC,neutral,5,right,15,ITC_wait,0,undefined,0,0,5,457406,776320
47,21,female,Belgian,2,42,ITC,neutral,5,right,15,ITC_collect,1257,k,0,0,5,456147,777579
47,21,female,Belgian,2,42,ITC,neutral,5,right,15,ITC_outcome,0,undefined,0,0,20,455139,778587
47,21,female,Belgian,2,43,guess,neutral,10,left,4,guess_start,500,space,0,0,20,454638,779088
47,21,female,Belgian,2,43,guess,neutral,10,left,4,guess_choice,609,j,0,0,20,454026,779700
47,21,female,Belgian,2,43,guess,neutral,10,left,4,guess_outcome,0,undefined,0,0,20,452457,781269
47,21,female,Belgian,2,43,ITC,neutral,10,left,4,ITC_start,939,space,0,0,20,451517,782209
47,21,female,Belgian,2,43,ITC,neutral,10,left,4,ITC_choice,1290,f,0,0,20,450225,783501
47,21,female,Belgian,2,43,ITC,neutral,10,left,4,ITC_wait,0,undefined,0,0,20,440210,793516
47,21,female,Belgian,2,43,ITC,neutral,10,left,4,ITC_collect,693,k,0,0,20,439515,794211
47,21,female,Belgian,2,43,ITC,neutral,10,left,4,ITC_outcome,0,undefined,0,0,40,438505,795221
47,21,female,Belgian,2,44,guess,neutral,5,right,1,guess_start,577,space,0,0,40,437925,795801
47,21,female,Belgian,2,44,guess,neutral,5,right,1,guess_choice,568,j,0,0,40,437354,796372
47,21,female,Belgian,2,44,guess,neutral,5,right,1,guess_outcome,0,undefined,0,0,40,435785,797941
47,21,female,Belgian,2,44,ITC,neutral,5,right,1,ITC_start,937,space,0,0,40,434846,798880
47,21,female,Belgian,2,44,ITC,neutral,5,right,1,ITC_choice,948,j,0,0,40,433896,799830
47,21,female,Belgian,2,44,ITC,neutral,5,right,1,ITC_wait,0,undefined,0,0,40,428887,804839
47,21,female,Belgian,2,44,ITC,neutral,5,right,1,ITC_collect,673,k,0,0,40,428212,805514
47,21,female,Belgian,2,44,ITC,neutral,5,right,1,ITC_outcome,0,undefined,0,0,60,427194,806532
47,21,female,Belgian,2,45,guess,loss,10,right,8,guess_start,476,space,0,0,60,426716,807010
47,21,female,Belgian,2,45,guess,loss,10,right,8,guess_choice,718,j,0,0,60,425994,807732
47,21,female,Belgian,2,45,guess,loss,10,right,8,guess_outcome,0,undefined,0,0,45,424434,809292
47,21,female,Belgian,2,45,ITC,loss,10,right,8,ITC_start,718,space,0,0,45,423714,810012
47,21,female,Belgian,2,45,ITC,loss,10,right,8,ITC_choice,962,j,0,0,45,422751,810975
47,21,female,Belgian,2,45,ITC,loss,10,right,8,ITC_wait,0,undefined,0,0,45,412729,820997
47,21,female,Belgian,2,45,ITC,loss,10,right,8,ITC_collect,583,k,0,0,45,412144,821582
47,21,female,Belgian,2,45,ITC,loss,10,right,8,ITC_outcome,0,undefined,0,0,65,411128,822598
47,21,female,Belgian,2,46,guess,neutral,5,right,8,guess_start,720,space,0,0,65,410406,823320
47,21,female,Belgian,2,46,guess,neutral,5,right,8,guess_choice,657,f,0,0,65,409744,823982
47,21,female,Belgian,2,46,guess,neutral,5,right,8,guess_outcome,0,undefined,0,0,65,408188,825538
47,21,female,Belgian,2,46,ITC,neutral,5,right,8,ITC_start,812,space,0,0,65,407373,826353
47,21,female,Belgian,2,46,ITC,neutral,5,right,8,ITC_choice,980,j,0,0,65,406390,827336
47,21,female,Belgian,2,46,ITC,neutral,5,right,8,ITC_wait,0,undefined,0,0,65,401368,832358
47,21,female,Belgian,2,46,ITC,neutral,5,right,8,ITC_collect,457,k,0,0,65,400909,832817
47,21,female,Belgian,2,46,ITC,neutral,5,right,8,ITC_outcome,0,undefined,0,0,85,399889,833837
47,21,female,Belgian,2,47,guess,win,10,left,4,guess_start,523,space,0,0,85,399363,834363
47,21,female,Belgian,2,47,guess,win,10,left,4,guess_choice,806,f,0,0,85,398553,835173
47,21,female,Belgian,2,47,guess,win,10,left,4,guess_outcome,0,undefined,0,0,105,396998,836728
47,21,female,Belgian,2,47,ITC,win,10,left,4,ITC_start,669,space,0,0,105,396327,837399
47,21,female,Belgian,2,47,ITC,win,10,left,4,ITC_choice,1052,f,0,0,105,395274,838452
47,21,female,Belgian,2,47,ITC,win,10,left,4,ITC_wait,0,undefined,0,0,105,385263,848463
47,21,female,Belgian,2,47,ITC,win,10,left,4,ITC_collect,1015,k,0,0,105,384245,849481
47,21,female,Belgian,2,47,ITC,win,10,left,4,ITC_outcome,0,undefined,0,0,125,383226,850500
47,21,female,Belgian,2,48,guess,loss,10,right,5,guess_start,1526,space,0,0,125,381698,852028
47,21,female,Belgian,2,48,guess,loss,10,right,5,guess_choice,607,j,0,0,125,381087,852639
47,21,female,Belgian,2,48,guess,loss,10,right,5,guess_outcome,0,undefined,0,0,110,379525,854201
47,21,female,Belgian,2,48,ITC,loss,10,right,5,ITC_start,638,space,0,0,110,378885,854841
47,21,female,Belgian,2,48,ITC,loss,10,right,5,ITC_choice,883,j,0,0,110,378001,855725
47,21,female,Belgian,2,48,ITC,loss,10,right,5,ITC_wait,0,undefined,0,0,110,367995,865731
47,21,female,Belgian,2,48,ITC,loss,10,right,5,ITC_collect,419,k,0,0,110,367574,866152
47,21,female,Belgian,2,48,ITC,loss,10,right,5,ITC_outcome,0,undefined,0,0,130,366554,867172
47,21,female,Belgian,2,49,guess,loss,5,right,14,guess_start,537,space,0,0,130,366015,867711
47,21,female,Belgian,2,49,guess,loss,5,right,14,guess_choice,663,f,0,0,130,365348,868378
47,21,female,Belgian,2,49,guess,loss,5,right,14,guess_outcome,0,undefined,0,0,115,363794,869932
47,21,female,Belgian,2,49,ITC,loss,5,right,14,ITC_start,739,space,0,0,115,363053,870673
47,21,female,Belgian,2,49,ITC,loss,5,right,14,ITC_choice,1046,f,0,0,115,362005,871721
47,21,female,Belgian,2,49,ITC,loss,5,right,14,ITC_wait,0,undefined,0,0,115,362001,871725
47,21,female,Belgian,2,49,ITC,loss,5,right,14,ITC_collect,681,k,0,0,115,361318,872408
47,21,female,Belgian,2,49,ITC,loss,5,right,14,ITC_outcome,0,undefined,0,0,129,360303,873423
47,21,female,Belgian,2,50,guess,loss,5,left,6,guess_start,419,space,0,0,129,359883,873843
47,21,female,Belgian,2,50,guess,loss,5,left,6,guess_choice,606,j,0,0,129,359272,874454
47,21,female,Belgian,2,50,guess,loss,5,left,6,guess_outcome,0,undefined,0,0,114,357704,876022
47,21,female,Belgian,2,50,ITC,loss,5,left,6,ITC_start,458,space,0,0,114,357244,876482
47,21,female,Belgian,2,50,ITC,loss,5,left,6,ITC_choice,1115,f,0,0,114,356126,877600
47,21,female,Belgian,2,50,ITC,loss,5,left,6,ITC_wait,0,undefined,0,0,114,351122,882604
47,21,female,Belgian,2,50,ITC,loss,5,left,6,ITC_collect,1095,k,0,0,114,350024,883702
47,21,female,Belgian,2,50,ITC,loss,5,left,6,ITC_outcome,0,undefined,0,0,134,349014,884712
47,21,female,Belgian,2,51,guess,win,10,right,2,guess_start,438,space,0,0,134,348573,885153
47,21,female,Belgian,2,51,guess,win,10,right,2,guess_choice,628,j,0,0,134,347942,885784
47,21,female,Belgian,2,51,guess,win,10,right,2,guess_outcome,0,undefined,0,0,154,346384,887342
47,21,female,Belgian,2,51,ITC,win,10,right,2,ITC_start,587,space,0,0,154,345795,887931
47,21,female,Belgian,2,51,ITC,win,10,right,2,ITC_choice,822,j,0,0,154,344971,888755
47,21,female,Belgian,2,51,ITC,win,10,right,2,ITC_wait,0,undefined,0,0,154,334956,898770
47,21,female,Belgian,2,51,ITC,win,10,right,2,ITC_collect,400,k,0,0,154,334553,899173
47,21,female,Belgian,2,51,ITC,win,10,right,2,ITC_outcome,0,undefined,0,0,174,333531,900195
47,21,female,Belgian,2,52,guess,loss,5,right,15,guess_start,797,space,0,0,174,332731,900995
47,21,female,Belgian,2,52,guess,loss,5,right,15,guess_choice,741,f,0,0,174,331986,901740
47,21,female,Belgian,2,52,guess,loss,5,right,15,guess_outcome,0,undefined,0,0,159,330431,903295
47,21,female,Belgian,2,52,ITC,loss,5,right,15,ITC_start,535,space,0,0,159,329894,903832
47,21,female,Belgian,2,52,ITC,loss,5,right,15,ITC_choice,972,f,0,0,159,328920,904806
47,21,female,Belgian,2,52,ITC,loss,5,right,15,ITC_wait,0,undefined,0,0,159,328917,904809
47,21,female,Belgian,2,52,ITC,loss,5,right,15,ITC_collect,647,k,0,0,159,328269,905457
47,21,female,Belgian,2,52,ITC,loss,5,right,15,ITC_outcome,0,undefined,0,0,174,327250,906476
47,21,female,Belgian,2,53,guess,neutral,10,left,7,guess_start,867,space,0,0,174,326381,907345
47,21,female,Belgian,2,53,guess,neutral,10,left,7,guess_choice,685,f,0,0,174,325690,908036
47,21,female,Belgian,2,53,guess,neutral,10,left,7,guess_outcome,0,undefined,0,0,174,324125,909601
47,21,female,Belgian,2,53,ITC,neutral,10,left,7,ITC_start,714,space,0,0,174,323409,910317
47,21,female,Belgian,2,53,ITC,neutral,10,left,7,ITC_choice,1131,f,0,0,174,322276,911450
47,21,female,Belgian,2,53,ITC,neutral,10,left,7,ITC_wait,0,undefined,0,0,174,312265,921461
47,21,female,Belgian,2,53,ITC,neutral,10,left,7,ITC_collect,583,k,0,0,174,311680,922046
47,21,female,Belgian,2,53,ITC,neutral,10,left,7,ITC_outcome,0,undefined,0,0,194,310658,923068
47,21,female,Belgian,2,54,guess,win,10,right,6,guess_start,534,space,0,0,194,310122,923604
47,21,female,Belgian,2,54,guess,win,10,right,6,guess_choice,607,j,0,0,194,309510,924216
47,21,female,Belgian,2,54,guess,win,10,right,6,guess_outcome,0,undefined,0,0,214,307948,925778
47,21,female,Belgian,2,54,ITC,win,10,right,6,ITC_start,613,space,0,0,214,307334,926392
47,21,female,Belgian,2,54,ITC,win,10,right,6,ITC_choice,903,j,0,0,214,306429,927297
47,21,female,Belgian,2,54,ITC,win,10,right,6,ITC_wait,0,undefined,0,0,214,296414,937312
47,21,female,Belgian,2,54,ITC,win,10,right,6,ITC_collect,478,k,0,0,214,295933,937793
47,21,female,Belgian,2,54,ITC,win,10,right,6,ITC_outcome,0,undefined,0,0,234,294915,938811
47,21,female,Belgian,2,55,guess,neutral,10,left,6,guess_start,528,space,0,0,234,294384,939342
47,21,female,Belgian,2,55,guess,neutral,10,left,6,guess_choice,618,f,0,0,234,293762,939964
47,21,female,Belgian,2,55,guess,neutral,10,left,6,guess_outcome,0,undefined,0,0,234,292205,941521
47,21,female,Belgian,2,55,ITC,neutral,10,left,6,ITC_start,612,space,0,0,234,291591,942135
47,21,female,Belgian,2,55,ITC,neutral,10,left,6,ITC_choice,1036,f,0,0,234,290556,943170
47,21,female,Belgian,2,55,ITC,neutral,10,left,6,ITC_wait,0,undefined,0,0,234,280542,953184
47,21,female,Belgian,2,55,ITC,neutral,10,left,6,ITC_collect,610,k,0,0,234,279930,953796
47,21,female,Belgian,2,55,ITC,neutral,10,left,6,ITC_outcome,0,undefined,0,0,254,278920,954806
47,21,female,Belgian,2,56,guess,neutral,10,left,2,guess_start,631,space,0,0,254,278286,955440
47,21,female,Belgian,2,56,guess,neutral,10,left,2,guess_choice,597,j,0,0,254,277685,956041
47,21,female,Belgian,2,56,guess,neutral,10,left,2,guess_outcome,0,undefined,0,0,254,276130,957596
47,21,female,Belgian,2,56,ITC,neutral,10,left,2,ITC_start,580,space,0,0,254,275548,958178
47,21,female,Belgian,2,56,ITC,neutral,10,left,2,ITC_choice,1156,f,0,0,254,274390,959336
47,21,female,Belgian,2,56,ITC,neutral,10,left,2,ITC_wait,0,undefined,0,0,254,264385,969341
47,21,female,Belgian,2,56,ITC,neutral,10,left,2,ITC_collect,454,k,0,0,254,263928,969798
47,21,female,Belgian,2,56,ITC,neutral,10,left,2,ITC_outcome,0,undefined,0,0,274,262905,970821
47,21,female,Belgian,2,57,guess,win,5,right,14,guess_start,533,space,0,0,274,262369,971357
47,21,female,Belgian,2,57,guess,win,5,right,14,guess_choice,702,j,0,0,274,261663,972063
47,21,female,Belgian,2,57,guess,win,5,right,14,guess_outcome,0,undefined,0,0,294,260095,973631
47,21,female,Belgian,2,57,ITC,win,5,right,14,ITC_start,577,space,0,0,294,259516,974210
47,21,female,Belgian,2,57,ITC,win,5,right,14,ITC_choice,991,f,0,0,294,258523,975203
47,21,female,Belgian,2,57,ITC,win,5,right,14,ITC_wait,0,undefined,0,0,294,258521,975205
47,21,female,Belgian,2,57,ITC,win,5,right,14,ITC_collect,657,k,0,0,294,257862,975864
47,21,female,Belgian,2,57,ITC,win,5,right,14,ITC_outcome,0,undefined,0,0,308,256845,976881
47,21,female,Belgian,2,58,guess,neutral,5,right,2,guess_start,477,space,0,0,308,256365,977361
47,21,female,Belgian,2,58,guess,neutral,5,right,2,guess_choice,607,f,0,0,308,255754,977972
47,21,female,Belgian,2,58,guess,neutral,5,right,2,guess_outcome,0,undefined,0,0,308,254185,979541
47,21,female,Belgian,2,58,ITC,neutral,5,right,2,ITC_start,535,space,0,0,308,253647,980079
47,21,female,Belgian,2,58,ITC,neutral,5,right,2,ITC_choice,947,j,0,0,308,252698,981028
47,21,female,Belgian,2,58,ITC,neutral,5,right,2,ITC_wait,0,undefined,0,0,308,247685,986041
47,21,female,Belgian,2,58,ITC,neutral,5,right,2,ITC_collect,883,k,0,0,308,246799,986927
47,21,female,Belgian,2,58,ITC,neutral,5,right,2,ITC_outcome,0,undefined,0,0,328,245792,987934
47,21,female,Belgian,2,59,guess,neutral,5,left,5,guess_start,451,space,0,0,328,245338,988388
47,21,female,Belgian,2,59,guess,neutral,5,left,5,guess_choice,583,f,0,0,328,244752,988974
47,21,female,Belgian,2,59,guess,neutral,5,left,5,guess_outcome,0,undefined,0,0,328,243185,990541
47,21,female,Belgian,2,59,ITC,neutral,5,left,5,ITC_start,459,space,0,0,328,242724,991002
47,21,female,Belgian,2,59,ITC,neutral,5,left,5,ITC_choice,808,f,0,0,328,241914,991812
47,21,female,Belgian,2,59,ITC,neutral,5,left,5,ITC_wait,0,undefined,0,0,328,236905,996821
47,21,female,Belgian,2,59,ITC,neutral,5,left,5,ITC_collect,599,k,0,0,328,236303,997423
47,21,female,Belgian,2,59,ITC,neutral,5,left,5,ITC_outcome,0,undefined,0,0,348,235295,998431
47,21,female,Belgian,2,60,guess,loss,5,right,1,guess_start,455,space,0,0,348,234837,998889
47,21,female,Belgian,2,60,guess,loss,5,right,1,guess_choice,658,j,0,0,348,234175,999551
47,21,female,Belgian,2,60,guess,loss,5,right,1,guess_outcome,0,undefined,0,0,333,232615,1001111
47,21,female,Belgian,2,60,ITC,loss,5,right,1,ITC_start,683,space,0,0,333,231930,1001796
47,21,female,Belgian,2,60,ITC,loss,5,right,1,ITC_choice,833,j,0,0,333,231095,1002631
47,21,female,Belgian,2,60,ITC,loss,5,right,1,ITC_wait,0,undefined,0,0,333,226082,1007644
47,21,female,Belgian,2,60,ITC,loss,5,right,1,ITC_collect,374,k,0,0,333,225705,1008021
47,21,female,Belgian,2,60,ITC,loss,5,right,1,ITC_outcome,0,undefined,0,0,353,224682,1009044
47,21,female,Belgian,2,61,guess,win,10,right,8,guess_start,409,space,0,0,353,224269,1009457
47,21,female,Belgian,2,61,guess,win,10,right,8,guess_choice,602,f,0,0,353,223663,1010063
47,21,female,Belgian,2,61,guess,win,10,right,8,guess_outcome,0,undefined,0,0,373,222102,1011624
47,21,female,Belgian,2,61,ITC,win,10,right,8,ITC_start,668,space,0,0,373,221431,1012295
47,21,female,Belgian,2,61,ITC,win,10,right,8,ITC_choice,1156,j,0,0,373,220273,1013453
47,21,female,Belgian,2,61,ITC,win,10,right,8,ITC_wait,0,undefined,0,0,373,210260,1023466
47,21,female,Belgian,2,61,ITC,win,10,right,8,ITC_collect,555,k,0,0,373,209702,1024024
47,21,female,Belgian,2,61,ITC,win,10,right,8,ITC_outcome,0,undefined,0,0,393,208680,1025046
47,21,female,Belgian,2,62,guess,win,10,left,5,guess_start,564,space,0,0,393,208113,1025613
47,21,female,Belgian,2,62,guess,win,10,left,5,guess_choice,753,j,0,0,393,207358,1026368
47,21,female,Belgian,2,62,guess,win,10,left,5,guess_outcome,0,undefined,0,0,413,205803,1027923
47,21,female,Belgian,2,62,ITC,win,10,left,5,ITC_start,890,space,0,0,413,204912,1028814
47,21,female,Belgian,2,62,ITC,win,10,left,5,ITC_choice,1375,f,0,0,413,203535,1030191
47,21,female,Belgian,2,62,ITC,win,10,left,5,ITC_wait,0,undefined,0,0,413,193525,1040201
47,21,female,Belgian,2,62,ITC,win,10,left,5,ITC_collect,474,k,0,0,413,193049,1040677
47,21,female,Belgian,2,62,ITC,win,10,left,5,ITC_outcome,0,undefined,0,0,433,192029,1041697
47,21,female,Belgian,2,63,guess,loss,10,right,3,guess_start,652,space,0,0,433,191374,1042352
47,21,female,Belgian,2,63,guess,loss,10,right,3,guess_choice,945,f,0,0,433,190424,1043302
47,21,female,Belgian,2,63,guess,loss,10,right,3,guess_outcome,0,undefined,0,0,418,188869,1044857
47,21,female,Belgian,2,63,ITC,loss,10,right,3,ITC_start,688,space,0,0,418,188179,1045547
47,21,female,Belgian,2,63,ITC,loss,10,right,3,ITC_choice,749,j,0,0,418,187428,1046298
47,21,female,Belgian,2,63,ITC,loss,10,right,3,ITC_wait,0,undefined,0,0,418,177424,1056302
47,21,female,Belgian,2,63,ITC,loss,10,right,3,ITC_collect,698,k,0,0,418,176724,1057002
47,21,female,Belgian,2,63,ITC,loss,10,right,3,ITC_outcome,0,undefined,0,0,438,175715,1058011
47,21,female,Belgian,2,64,guess,win,5,left,2,guess_start,574,space,0,0,438,175138,1058588
47,21,female,Belgian,2,64,guess,win,5,left,2,guess_choice,652,f,0,0,438,174482,1059244
47,21,female,Belgian,2,64,guess,win,5,left,2,guess_outcome,0,undefined,0,0,458,172916,1060810
47,21,female,Belgian,2,64,ITC,win,5,left,2,ITC_start,792,space,0,0,458,172122,1061604
47,21,female,Belgian,2,64,ITC,win,5,left,2,ITC_choice,1042,f,0,0,458,171078,1062648
47,21,female,Belgian,2,64,ITC,win,5,left,2,ITC_wait,0,undefined,0,0,458,166076,1067650
47,21,female,Belgian,2,64,ITC,win,5,left,2,ITC_collect,391,k,0,0,458,165682,1068044
47,21,female,Belgian,2,64,ITC,win,5,left,2,ITC_outcome,0,undefined,0,0,478,164665,1069061
47,21,female,Belgian,2,65,guess,win,5,right,11,guess_start,596,space,0,0,478,164066,1069660
47,21,female,Belgian,2,65,guess,win,5,right,11,guess_choice,666,j,0,0,478,163396,1070330
47,21,female,Belgian,2,65,guess,win,5,right,11,guess_outcome,0,undefined,0,0,498,161825,1071901
47,21,female,Belgian,2,65,ITC,win,5,right,11,ITC_start,852,space,0,0,498,160970,1072756
47,21,female,Belgian,2,65,ITC,win,5,right,11,ITC_choice,1106,f,0,0,498,159862,1073864
47,21,female,Belgian,2,65,ITC,win,5,right,11,ITC_wait,0,undefined,0,0,498,159859,1073867
47,21,female,Belgian,2,65,ITC,win,5,right,11,ITC_collect,675,k,0,0,498,159182,1074544
47,21,female,Belgian,2,65,ITC,win,5,right,11,ITC_outcome,0,undefined,0,0,509,158174,1075552
47,21,female,Belgian,2,66,guess,loss,5,left,7,guess_start,457,space,0,0,509,157714,1076012
47,21,female,Belgian,2,66,guess,loss,5,left,7,guess_choice,662,f,0,0,509,157049,1076677
47,21,female,Belgian,2,66,guess,loss,5,left,7,guess_outcome,0,undefined,0,0,494,155480,1078246
47,21,female,Belgian,2,66,ITC,loss,5,left,7,ITC_start,621,space,0,0,494,154857,1078869
47,21,female,Belgian,2,66,ITC,loss,5,left,7,ITC_choice,872,f,0,0,494,153983,1079743
47,21,female,Belgian,2,66,ITC,loss,5,left,7,ITC_wait,0,undefined,0,0,494,148966,1084760
47,21,female,Belgian,2,66,ITC,loss,5,left,7,ITC_collect,690,k,0,0,494,148273,1085453
47,21,female,Belgian,2,66,ITC,loss,5,left,7,ITC_outcome,0,undefined,0,0,514,147254,1086472
47,21,female,Belgian,2,67,guess,loss,5,right,8,guess_start,648,space,0,0,514,146603,1087123
47,21,female,Belgian,2,67,guess,loss,5,right,8,guess_choice,608,j,0,0,514,145992,1087734
47,21,female,Belgian,2,67,guess,loss,5,right,8,guess_outcome,0,undefined,0,0,499,144437,1089289
47,21,female,Belgian,2,67,ITC,loss,5,right,8,ITC_start,621,space,0,0,499,143814,1089912
47,21,female,Belgian,2,67,ITC,loss,5,right,8,ITC_choice,1106,j,0,0,499,142706,1091020
47,21,female,Belgian,2,67,ITC,loss,5,right,8,ITC_wait,0,undefined,0,0,499,137686,1096040
47,21,female,Belgian,2,67,ITC,loss,5,right,8,ITC_collect,468,k,0,0,499,137215,1096511
47,21,female,Belgian,2,67,ITC,loss,5,right,8,ITC_outcome,0,undefined,0,0,519,136195,1097531
47,21,female,Belgian,2,68,guess,win,5,left,6,guess_start,636,space,0,0,519,135556,1098170
47,21,female,Belgian,2,68,guess,win,5,left,6,guess_choice,448,f,0,0,519,135104,1098622
47,21,female,Belgian,2,68,guess,win,5,left,6,guess_outcome,0,undefined,0,0,539,133537,1100189
47,21,female,Belgian,2,68,ITC,win,5,left,6,ITC_start,504,space,0,0,539,133032,1100694
47,21,female,Belgian,2,68,ITC,win,5,left,6,ITC_choice,893,f,0,0,539,132137,1101589
47,21,female,Belgian,2,68,ITC,win,5,left,6,ITC_wait,0,undefined,0,0,539,127120,1106606
47,21,female,Belgian,2,68,ITC,win,5,left,6,ITC_collect,763,k,0,0,539,126355,1107371
47,21,female,Belgian,2,68,ITC,win,5,left,6,ITC_outcome,0,undefined,0,0,559,125350,1108376
47,21,female,Belgian,2,69,guess,win,5,left,8,guess_start,600,space,0,0,559,124749,1108977
47,21,female,Belgian,2,69,guess,win,5,left,8,guess_choice,478,j,0,0,559,124266,1109460
47,21,female,Belgian,2,69,guess,win,5,left,8,guess_outcome,0,undefined,0,0,579,122699,1111027
47,21,female,Belgian,2,69,ITC,win,5,left,8,ITC_start,513,space,0,0,579,122184,1111542
47,21,female,Belgian,2,69,ITC,win,5,left,8,ITC_choice,897,f,0,0,579,121285,1112441
47,21,female,Belgian,2,69,ITC,win,5,left,8,ITC_wait,0,undefined,0,0,579,116275,1117451
47,21,female,Belgian,2,69,ITC,win,5,left,8,ITC_collect,637,k,0,0,579,115636,1118090
47,21,female,Belgian,2,69,ITC,win,5,left,8,ITC_outcome,0,undefined,0,0,599,114615,1119111
47,21,female,Belgian,2,70,guess,win,5,left,12,guess_start,536,space,0,0,599,114076,1119650
47,21,female,Belgian,2,70,guess,win,5,left,12,guess_choice,462,f,0,0,599,113609,1120117
47,21,female,Belgian,2,70,guess,win,5,left,12,guess_outcome,0,undefined,0,0,619,112055,1121671
47,21,female,Belgian,2,70,ITC,win,5,left,12,ITC_start,725,space,0,0,619,111328,1122398
47,21,female,Belgian,2,70,ITC,win,5,left,12,ITC_choice,921,f,0,0,619,110404,1123322
47,21,female,Belgian,2,70,ITC,win,5,left,12,ITC_wait,0,undefined,0,0,619,105389,1128337
47,21,female,Belgian,2,70,ITC,win,5,left,12,ITC_collect,618,k,0,0,619,104769,1128957
47,21,female,Belgian,2,70,ITC,win,5,left,12,ITC_outcome,0,undefined,0,0,639,103755,1129971
47,21,female,Belgian,2,71,guess,neutral,5,left,16,guess_start,603,space,0,0,639,103149,1130577
47,21,female,Belgian,2,71,guess,neutral,5,left,16,guess_choice,737,j,0,0,639,102409,1131317
47,21,female,Belgian,2,71,guess,neutral,5,left,16,guess_outcome,0,undefined,0,0,639,100835,1132891
47,21,female,Belgian,2,71,ITC,neutral,5,left,16,ITC_start,536,space,0,0,639,100297,1133429
47,21,female,Belgian,2,71,ITC,neutral,5,left,16,ITC_choice,1300,j,0,0,639,98995,1134731
47,21,female,Belgian,2,71,ITC,neutral,5,left,16,ITC_wait,0,undefined,0,0,639,98991,1134735
47,21,female,Belgian,2,71,ITC,neutral,5,left,16,ITC_collect,730,k,0,0,639,98260,1135466
47,21,female,Belgian,2,71,ITC,neutral,5,left,16,ITC_outcome,0,undefined,0,0,655,97255,1136471
47,21,female,Belgian,2,72,guess,win,5,right,16,guess_start,601,space,0,0,655,96650,1137076
47,21,female,Belgian,2,72,guess,win,5,right,16,guess_choice,722,j,0,0,655,95925,1137801
47,21,female,Belgian,2,72,guess,win,5,right,16,guess_outcome,0,undefined,0,0,675,94355,1139371
47,21,female,Belgian,2,72,ITC,win,5,right,16,ITC_start,534,space,0,0,675,93819,1139907
47,21,female,Belgian,2,72,ITC,win,5,right,16,ITC_choice,1315,f,0,0,675,92502,1141224
47,21,female,Belgian,2,72,ITC,win,5,right,16,ITC_wait,0,undefined,0,0,675,92499,1141227
47,21,female,Belgian,2,72,ITC,win,5,right,16,ITC_collect,591,k,0,0,675,91906,1141820
47,21,female,Belgian,2,72,ITC,win,5,right,16,ITC_outcome,0,undefined,0,0,691,90885,1142841
47,21,female,Belgian,2,73,guess,loss,5,left,1,guess_start,630,space,0,0,691,90251,1143475
47,21,female,Belgian,2,73,guess,loss,5,left,1,guess_choice,568,f,0,0,691,89680,1144046
47,21,female,Belgian,2,73,guess,loss,5,left,1,guess_outcome,0,undefined,0,0,676,88114,1145612
47,21,female,Belgian,2,73,ITC,loss,5,left,1,ITC_start,529,space,0,0,676,87583,1146143
47,21,female,Belgian,2,73,ITC,loss,5,left,1,ITC_choice,1275,f,0,0,676,86306,1147420
47,21,female,Belgian,2,73,ITC,loss,5,left,1,ITC_wait,0,undefined,0,0,676,81285,1152441
47,21,female,Belgian,2,73,ITC,loss,5,left,1,ITC_collect,565,k,0,0,676,80717,1153009
47,21,female,Belgian,2,73,ITC,loss,5,left,1,ITC_outcome,0,undefined,0,0,696,79705,1154021
47,21,female,Belgian,2,74,guess,loss,5,left,10,guess_start,685,space,0,0,696,79018,1154708
47,21,female,Belgian,2,74,guess,loss,5,left,10,guess_choice,748,j,0,0,696,78267,1155459
47,21,female,Belgian,2,74,guess,loss,5,left,10,guess_outcome,0,undefined,0,0,681,76705,1157021
47,21,female,Belgian,2,74,ITC,loss,5,left,10,ITC_start,543,space,0,0,681,76159,1157567
47,21,female,Belgian,2,74,ITC,loss,5,left,10,ITC_choice,1492,f,0,0,681,74666,1159060
47,21,female,Belgian,2,74,ITC,loss,5,left,10,ITC_wait,0,undefined,0,0,681,69655,1164071
47,21,female,Belgian,2,74,ITC,loss,5,left,10,ITC_collect,701,k,0,0,681,68951,1164775
47,21,female,Belgian,2,74,ITC,loss,5,left,10,ITC_outcome,0,undefined,0,0,701,67944,1165782
47,21,female,Belgian,2,75,guess,neutral,5,left,2,guess_start,670,space,0,0,701,67273,1166453
47,21,female,Belgian,2,75,guess,neutral,5,left,2,guess_choice,732,f,0,0,701,66536,1167190
47,21,female,Belgian,2,75,guess,neutral,5,left,2,guess_outcome,0,undefined,0,0,701,64964,1168762
47,21,female,Belgian,2,75,ITC,neutral,5,left,2,ITC_start,622,space,0,0,701,64340,1169386
47,21,female,Belgian,2,75,ITC,neutral,5,left,2,ITC_choice,935,f,0,0,701,63402,1170324
47,21,female,Belgian,2,75,ITC,neutral,5,left,2,ITC_wait,0,undefined,0,0,701,58385,1175341
47,21,female,Belgian,2,75,ITC,neutral,5,left,2,ITC_collect,576,k,0,0,701,57806,1175920
47,21,female,Belgian,2,75,ITC,neutral,5,left,2,ITC_outcome,0,undefined,0,0,721,56797,1176929
47,21,female,Belgian,2,76,guess,win,10,left,2,guess_start,761,space,0,0,721,56034,1177692
47,21,female,Belgian,2,76,guess,win,10,left,2,guess_choice,988,j,0,0,721,55044,1178682
47,21,female,Belgian,2,76,guess,win,10,left,2,guess_outcome,0,undefined,0,0,741,53485,1180241
47,21,female,Belgian,2,76,ITC,win,10,left,2,ITC_start,694,space,0,0,741,52789,1180937
47,21,female,Belgian,2,76,ITC,win,10,left,2,ITC_choice,946,f,0,0,741,51840,1181886
47,21,female,Belgian,2,76,ITC,win,10,left,2,ITC_wait,0,undefined,0,0,741,41834,1191892
47,21,female,Belgian,2,76,ITC,win,10,left,2,ITC_collect,468,k,0,0,741,41364,1192362
47,21,female,Belgian,2,76,ITC,win,10,left,2,ITC_outcome,0,undefined,0,0,761,40359,1193367
47,21,female,Belgian,2,77,guess,neutral,5,right,12,guess_start,551,space,0,0,761,39806,1193920
47,21,female,Belgian,2,77,guess,neutral,5,right,12,guess_choice,662,f,0,0,761,39140,1194586
47,21,female,Belgian,2,77,guess,neutral,5,right,12,guess_outcome,0,undefined,0,0,761,37579,1196147
47,21,female,Belgian,2,77,ITC,neutral,5,right,12,ITC_start,708,space,0,0,761,36869,1196857
47,21,female,Belgian,2,77,ITC,neutral,5,right,12,ITC_choice,1255,f,0,0,761,35612,1198114
47,21,female,Belgian,2,77,ITC,neutral,5,right,12,ITC_wait,0,undefined,0,0,761,35609,1198117
47,21,female,Belgian,2,77,ITC,neutral,5,right,12,ITC_collect,581,k,0,0,761,35025,1198701
47,21,female,Belgian,2,77,ITC,neutral,5,right,12,ITC_outcome,0,undefined,0,0,773,34017,1199709
47,21,female,Belgian,2,78,guess,neutral,10,left,6,guess_start,479,space,0,0,773,33535,1200191
47,21,female,Belgian,2,78,guess,neutral,10,left,6,guess_choice,548,f,0,0,773,32984,1200742
47,21,female,Belgian,2,78,guess,neutral,10,left,6,guess_outcome,0,undefined,0,0,773,31429,1202297
47,21,female,Belgian,2,78,ITC,neutral,10,left,6,ITC_start,635,space,0,0,773,30792,1202934
47,21,female,Belgian,2,78,ITC,neutral,10,left,6,ITC_choice,1225,f,0,0,773,29565,1204161
47,21,female,Belgian,2,78,ITC,neutral,10,left,6,ITC_wait,0,undefined,0,0,773,19551,1214175
47,21,female,Belgian,2,78,ITC,neutral,10,left,6,ITC_collect,494,k,0,0,773,19055,1214671
47,21,female,Belgian,2,78,ITC,neutral,10,left,6,ITC_outcome,0,undefined,0,0,793,18043,1215683
47,21,female,Belgian,2,79,guess,win,5,left,6,guess_start,903,space,0,0,793,17137,1216589
47,21,female,Belgian,2,79,guess,win,5,left,6,guess_choice,755,j,0,0,793,16378,1217348
47,21,female,Belgian,2,79,guess,win,5,left,6,guess_outcome,0,undefined,0,0,813,14811,1218915
47,21,female,Belgian,2,79,ITC,win,5,left,6,ITC_start,747,space,0,0,813,14062,1219664
47,21,female,Belgian,2,79,ITC,win,5,left,6,ITC_choice,928,f,0,0,813,13132,1220594
47,21,female,Belgian,2,79,ITC,win,5,left,6,ITC_wait,0,undefined,0,0,813,8123,1225603
47,21,female,Belgian,2,79,ITC,win,5,left,6,ITC_collect,812,k,0,0,813,7309,1226417
47,21,female,Belgian,2,79,ITC,win,5,left,6,ITC_outcome,0,undefined,0,0,833,6291,1227435
47,21,female,Belgian,2,80,guess,neutral,5,left,3,guess_start,730,space,0,0,833,5558,1228168
47,21,female,Belgian,2,80,guess,neutral,5,left,3,guess_choice,710,j,0,0,833,4844,1228882
47,21,female,Belgian,2,80,guess,neutral,5,left,3,guess_outcome,0,undefined,0,0,833,3283,1230443
47,21,female,Belgian,2,80,ITC,neutral,5,left,3,ITC_start,821,space,0,0,833,2460,1231266
47,21,female,Belgian,2,80,ITC,neutral,5,left,3,ITC_choice,880,f,0,0,833,1579,1232147
47,21,female,Belgian,2,80,ITC,neutral,5,left,3,ITC_wait,0,undefined,0,0,833,-18,1233744
47,21,female,Belgian,3,81,guess,neutral,10,right,4,guess_start,1360,space,0,0,0,478638,1257954
47,21,female,Belgian,3,81,guess,neutral,10,right,4,guess_choice,662,j,0,0,0,477972,1258620
47,21,female,Belgian,3,81,guess,neutral,10,right,4,guess_outcome,0,undefined,0,0,0,476401,1260191
47,21,female,Belgian,3,81,ITC,neutral,10,right,4,ITC_start,673,space,0,0,0,475726,1260866
47,21,female,Belgian,3,81,ITC,neutral,10,right,4,ITC_choice,922,j,0,0,0,474802,1261790
47,21,female,Belgian,3,81,ITC,neutral,10,right,4,ITC_wait,0,undefined,0,0,0,464785,1271807
47,21,female,Belgian,3,81,ITC,neutral,10,right,4,ITC_collect,864,k,0,0,0,463918,1272674
47,21,female,Belgian,3,81,ITC,neutral,10,right,4,ITC_outcome,0,undefined,0,0,20,462914,1273678
47,21,female,Belgian,3,82,guess,neutral,10,left,3,guess_start,488,space,0,0,20,462424,1274168
47,21,female,Belgian,3,82,guess,neutral,10,left,3,guess_choice,583,f,0,0,20,461837,1274755
47,21,female,Belgian,3,82,guess,neutral,10,left,3,guess_outcome,0,undefined,0,0,20,460273,1276319
47,21,female,Belgian,3,82,ITC,neutral,10,left,3,ITC_start,670,space,0,0,20,459602,1276990
47,21,female,Belgian,3,82,ITC,neutral,10,left,3,ITC_choice,1037,f,0,0,20,458563,1278029
47,21,female,Belgian,3,82,ITC,neutral,10,left,3,ITC_wait,0,undefined,0,0,20,448559,1288033
47,21,female,Belgian,3,82,ITC,neutral,10,left,3,ITC_collect,555,k,0,0,20,448002,1288590
47,21,female,Belgian,3,82,ITC,neutral,10,left,3,ITC_outcome,0,undefined,0,0,40,446998,1289594
47,21,female,Belgian,3,83,guess,loss,5,left,6,guess_start,542,space,0,0,40,446453,1290139
47,21,female,Belgian,3,83,guess,loss,5,left,6,guess_choice,693,j,0,0,40,445757,1290835
47,21,female,Belgian,3,83,guess,loss,5,left,6,guess_outcome,0,undefined,0,0,25,444200,1292392
47,21,female,Belgian,3,83,ITC,loss,5,left,6,ITC_start,582,space,0,0,25,443617,1292975
47,21,female,Belgian,3,83,ITC,loss,5,left,6,ITC_choice,730,f,0,0,25,442885,1293707
47,21,female,Belgian,3,83,ITC,loss,5,left,6,ITC_wait,0,undefined,0,0,25,437880,1298712
47,21,female,Belgian,3,83,ITC,loss,5,left,6,ITC_collect,1986,k,0,0,25,435892,1300700
47,21,female,Belgian,3,83,ITC,loss,5,left,6,ITC_outcome,0,undefined,0,0,45,434877,1301715
47,21,female,Belgian,3,84,guess,win,10,left,3,guess_start,497,space,0,0,45,434378,1302214
47,21,female,Belgian,3,84,guess,win,10,left,3,guess_choice,658,f,0,0,45,433717,1302875
47,21,female,Belgian,3,84,guess,win,10,left,3,guess_outcome,0,undefined,0,0,65,432150,1304442
47,21,female,Belgian,3,84,ITC,win,10,left,3,ITC_start,668,space,0,0,65,431480,1305112
47,21,female,Belgian,3,84,ITC,win,10,left,3,ITC_choice,1175,f,0,0,65,430302,1306290
47,21,female,Belgian,3,84,ITC,win,10,left,3,ITC_wait,0,undefined,0,0,65,420285,1316307
47,21,female,Belgian,3,84,ITC,win,10,left,3,ITC_collect,452,k,0,0,65,419842,1316750
47,21,female,Belgian,3,84,ITC,win,10,left,3,ITC_outcome,0,undefined,0,0,85,418832,1317760
47,21,female,Belgian,3,85,guess,loss,10,left,8,guess_start,588,space,0,0,85,418242,1318350
47,21,female,Belgian,3,85,guess,loss,10,left,8,guess_choice,751,j,0,0,85,417487,1319105
47,21,female,Belgian,3,85,guess,loss,10,left,8,guess_outcome,0,undefined,0,0,70,415922,1320670
47,21,female,Belgian,3,85,ITC,loss,10,left,8,ITC_start,894,space,0,0,70,415026,1321566
47,21,female,Belgian,3,85,ITC,loss,10,left,8,ITC_choice,1300,f,0,0,70,413725,1322867
47,21,female,Belgian,3,85,ITC,loss,10,left,8,ITC_wait,0,undefined,0,0,70,403716,1332876
47,21,female,Belgian,3,85,ITC,loss,10,left,8,ITC_collect,545,k,0,0,70,403169,1333423
47,21,female,Belgian,3,85,ITC,loss,10,left,8,ITC_outcome,0,undefined,0,0,90,402153,1334439
47,21,female,Belgian,3,86,guess,loss,5,left,2,guess_start,884,space,0,0,90,401266,1335326
47,21,female,Belgian,3,86,guess,loss,5,left,2,guess_choice,609,j,0,0,90,400654,1335938
47,21,female,Belgian,3,86,guess,loss,5,left,2,guess_outcome,0,undefined,0,0,75,399083,1337509
47,21,female,Belgian,3,86,ITC,loss,5,left,2,ITC_start,747,space,0,0,75,398334,1338258
47,21,female,Belgian,3,86,ITC,loss,5,left,2,ITC_choice,1221,f,0,0,75,397111,1339481
47,21,female,Belgian,3,86,ITC,loss,5,left,2,ITC_wait,0,undefined,0,0,75,392093,1344499
47,21,female,Belgian,3,86,ITC,loss,5,left,2,ITC_collect,392,k,0,0,75,391699,1344893
47,21,female,Belgian,3,86,ITC,loss,5,left,2,ITC_outcome,0,undefined,0,0,95,390683,1345909
47,21,female,Belgian,3,87,guess,loss,5,left,3,guess_start,283,space,0,0,95,390398,1346194
47,21,female,Belgian,3,87,guess,loss,5,left,3,guess_choice,687,j,0,0,95,389707,1346885
47,21,female,Belgian,3,87,guess,loss,5,left,3,guess_outcome,0,undefined,0,0,80,388144,1348448
47,21,female,Belgian,3,87,ITC,loss,5,left,3,ITC_start,636,space,0,0,80,387505,1349087
47,21,female,Belgian,3,87,ITC,loss,5,left,3,ITC_choice,753,f,0,0,80,386750,1349842
47,21,female,Belgian,3,87,ITC,loss,5,left,3,ITC_wait,0,undefined,0,0,80,381733,1354859
47,21,female,Belgian,3,87,ITC,loss,5,left,3,ITC_collect,804,k,0,0,80,380926,1355666
47,21,female,Belgian,3,87,ITC,loss,5,left,3,ITC_outcome,0,undefined,0,0,100,379916,1356676
47,21,female,Belgian,3,88,guess,loss,5,left,5,guess_start,551,space,0,0,100,379361,1357231
47,21,female,Belgian,3,88,guess,loss,5,left,5,guess_choice,543,f,0,0,100,378814,1357778
47,21,female,Belgian,3,88,guess,loss,5,left,5,guess_outcome,0,undefined,0,0,85,377243,1359349
47,21,female,Belgian,3,88,ITC,loss,5,left,5,ITC_start,419,space,0,0,85,376822,1359770
47,21,female,Belgian,3,88,ITC,loss,5,left,5,ITC_choice,659,f,0,0,85,376161,1360431
47,21,female,Belgian,3,88,ITC,loss,5,left,5,ITC_wait,0,undefined,0,0,85,371153,1365439
47,21,female,Belgian,3,88,ITC,loss,5,left,5,ITC_collect,929,k,0,0,85,370222,1366370
47,21,female,Belgian,3,88,ITC,loss,5,left,5,ITC_outcome,0,undefined,0,0,105,369217,1367375
47,21,female,Belgian,3,89,guess,neutral,10,right,2,guess_start,394,space,0,0,105,368821,1367771
47,21,female,Belgian,3,89,guess,neutral,10,right,2,guess_choice,504,f,0,0,105,368313,1368279
47,21,female,Belgian,3,89,guess,neutral,10,right,2,guess_outcome,0,undefined,0,0,105,366748,1369844
47,21,female,Belgian,3,89,ITC,neutral,10,right,2,ITC_start,500,space,0,0,105,366246,1370346
47,21,female,Belgian,3,89,ITC,neutral,10,right,2,ITC_choice,987,j,0,0,105,365257,1371335
47,21,female,Belgian,3,89,ITC,neutral,10,right,2,ITC_wait,0,undefined,0,0,105,355227,1381365
47,21,female,Belgian,3,89,ITC,neutral,10,right,2,ITC_collect,492,k,0,0,105,354732,1381860
47,21,female,Belgian,3,89,ITC,neutral,10,right,2,ITC_outcome,0,undefined,0,0,125,353723,1382869
47,21,female,Belgian,3,90,guess,win,5,left,5,guess_start,508,space,0,0,125,353213,1383379
47,21,female,Belgian,3,90,guess,win,5,left,5,guess_choice,798,f,0,0,125,352411,1384181
47,21,female,Belgian,3,90,guess,win,5,left,5,guess_outcome,0,undefined,0,0,145,350844,1385748
47,21,female,Belgian,3,90,ITC,win,5,left,5,ITC_start,706,space,0,0,145,350136,1386456
47,21,female,Belgian,3,90,ITC,win,5,left,5,ITC_choice,1086,f,0,0,145,349048,1387544
47,21,female,Belgian,3,90,ITC,win,5,left,5,ITC_wait,0,undefined,0,0,145,344044,1392548
47,21,female,Belgian,3,90,ITC,win,5,left,5,ITC_collect,560,k,0,0,145,343482,1393110
47,21,female,Belgian,3,90,ITC,win,5,left,5,ITC_outcome,0,undefined,0,0,165,342464,1394128
47,21,female,Belgian,3,91,guess,neutral,10,right,1,guess_start,385,space,0,0,165,342076,1394516
47,21,female,Belgian,3,91,guess,neutral,10,right,1,guess_choice,463,j,0,0,165,341609,1394983
47,21,female,Belgian,3,91,guess,neutral,10,right,1,guess_outcome,0,undefined,0,0,165,340044,1396548
47,21,female,Belgian,3,91,ITC,neutral,10,right,1,ITC_start,411,space,0,0,165,339631,1396961
47,21,female,Belgian,3,91,ITC,neutral,10,right,1,ITC_choice,912,j,0,0,165,338717,1397875
47,21,female,Belgian,3,91,ITC,neutral,10,right,1,ITC_wait,0,undefined,0,0,165,328706,1407886
47,21,female,Belgian,3,91,ITC,neutral,10,right,1,ITC_collect,1327,k,0,0,165,327376,1409216
47,21,female,Belgian,3,91,ITC,neutral,10,right,1,ITC_outcome,0,undefined,0,0,185,326362,1410230
47,21,female,Belgian,3,92,guess,loss,5,left,12,guess_start,678,space,0,0,185,325682,1410910
47,21,female,Belgian,3,92,guess,loss,5,left,12,guess_choice,617,f,0,0,185,325061,1411531
47,21,female,Belgian,3,92,guess,loss,5,left,12,guess_outcome,0,undefined,0,0,170,323502,1413090
47,21,female,Belgian,3,92,ITC,loss,5,left,12,ITC_start,845,space,0,0,170,322655,1413937
47,21,female,Belgian,3,92,ITC,loss,5,left,12,ITC_choice,962,f,0,0,170,321691,1414901
47,21,female,Belgian,3,92,ITC,loss,5,left,12,ITC_wait,0,undefined,0,0,170,316682,1419910
47,21,female,Belgian,3,92,ITC,loss,5,left,12,ITC_collect,690,k,0,0,170,315991,1420601
47,21,female,Belgian,3,92,ITC,loss,5,left,12,ITC_outcome,0,undefined,0,0,190,314973,1421619
47,21,female,Belgian,3,93,guess,win,5,right,3,guess_start,594,space,0,0,190,314376,1422216
47,21,female,Belgian,3,93,guess,win,5,right,3,guess_choice,598,j,0,0,190,313775,1422817
47,21,female,Belgian,3,93,guess,win,5,right,3,guess_outcome,0,undefined,0,0,210,312213,1424379
47,21,female,Belgian,3,93,ITC,win,5,right,3,ITC_start,439,space,0,0,210,311772,1424820
47,21,female,Belgian,3,93,ITC,win,5,right,3,ITC_choice,738,j,0,0,210,311032,1425560
47,21,female,Belgian,3,93,ITC,win,5,right,3,ITC_wait,0,undefined,0,0,210,306015,1430577
47,21,female,Belgian,3,93,ITC,win,5,right,3,ITC_collect,866,k,0,0,210,305147,1431445
47,21,female,Belgian,3,93,ITC,win,5,right,3,ITC_outcome,0,undefined,0,0,230,304143,1432449
47,21,female,Belgian,3,94,guess,win,5,left,7,guess_start,394,space,0,0,230,303746,1432846
47,21,female,Belgian,3,94,guess,win,5,left,7,guess_choice,613,f,0,0,230,303130,1433462
47,21,female,Belgian,3,94,guess,win,5,left,7,guess_outcome,0,undefined,0,0,250,301563,1435029
47,21,female,Belgian,3,94,ITC,win,5,left,7,ITC_start,737,space,0,0,250,300824,1435768
47,21,female,Belgian,3,94,ITC,win,5,left,7,ITC_choice,946,f,0,0,250,299875,1436717
47,21,female,Belgian,3,94,ITC,win,5,left,7,ITC_wait,0,undefined,0,0,250,294863,1441729
47,21,female,Belgian,3,94,ITC,win,5,left,7,ITC_collect,1095,k,0,0,250,293766,1442826
47,21,female,Belgian,3,94,ITC,win,5,left,7,ITC_outcome,0,undefined,0,0,270,292758,1443834
47,21,female,Belgian,3,95,guess,loss,10,left,3,guess_start,594,space,0,0,270,292162,1444430
47,21,female,Belgian,3,95,guess,loss,10,left,3,guess_choice,582,j,0,0,270,291575,1445017
47,21,female,Belgian,3,95,guess,loss,10,left,3,guess_outcome,0,undefined,0,0,255,290002,1446590
47,21,female,Belgian,3,95,ITC,loss,10,left,3,ITC_start,725,space,0,0,255,289275,1447317
47,21,female,Belgian,3,95,ITC,loss,10,left,3,ITC_choice,803,f,0,0,255,288470,1448122
47,21,female,Belgian,3,95,ITC,loss,10,left,3,ITC_wait,0,undefined,0,0,255,278467,1458125
47,21,female,Belgian,3,95,ITC,loss,10,left,3,ITC_collect,1406,k,0,0,255,277058,1459534
47,21,female,Belgian,3,95,ITC,loss,10,left,3,ITC_outcome,0,undefined,0,0,275,276046,1460546
47,21,female,Belgian,3,96,guess,neutral,10,right,8,guess_start,629,space,0,0,275,275415,1461177
47,21,female,Belgian,3,96,guess,neutral,10,right,8,guess_choice,574,f,0,0,275,274837,1461755
47,21,female,Belgian,3,96,guess,neutral,10,right,8,guess_outcome,0,undefined,0,0,275,273267,1463325
47,21,female,Belgian,3,96,ITC,neutral,10,right,8,ITC_start,510,space,0,0,275,272755,1463837
47,21,female,Belgian,3,96,ITC,neutral,10,right,8,ITC_choice,1012,j,0,0,275,271741,1464851
47,21,female,Belgian,3,96,ITC,neutral,10,right,8,ITC_wait,0,undefined,0,0,275,261739,1474853
47,21,female,Belgian,3,96,ITC,neutral,10,right,8,ITC_collect,451,k,0,0,275,261285,1475307
47,21,female,Belgian,3,96,ITC,neutral,10,right,8,ITC_outcome,0,undefined,0,0,295,260268,1476324
47,21,female,Belgian,3,97,guess,neutral,5,right,14,guess_start,664,space,0,0,295,259600,1476992
47,21,female,Belgian,3,97,guess,neutral,5,right,14,guess_choice,538,f,0,0,295,259058,1477534
47,21,female,Belgian,3,97,guess,neutral,5,right,14,guess_outcome,0,undefined,0,0,295,257488,1479104
47,21,female,Belgian,3,97,ITC,neutral,5,right,14,ITC_start,1047,space,0,0,295,256439,1480153
47,21,female,Belgian,3,97,ITC,neutral,5,right,14,ITC_choice,1121,f,0,0,295,255316,1481276
47,21,female,Belgian,3,97,ITC,neutral,5,right,14,ITC_wait,0,undefined,0,0,295,255313,1481279
47,21,female,Belgian,3,97,ITC,neutral,5,right,14,ITC_collect,775,k,0,0,295,254536,1482056
47,21,female,Belgian,3,97,ITC,neutral,5,right,14,ITC_outcome,0,undefined,0,0,309,253527,1483065
47,21,female,Belgian,3,98,guess,win,10,left,1,guess_start,1539,space,0,0,309,251986,1484606
47,21,female,Belgian,3,98,guess,win,10,left,1,guess_choice,602,j,0,0,309,251380,1485212
47,21,female,Belgian,3,98,guess,win,10,left,1,guess_outcome,0,undefined,0,0,329,249808,1486784
47,21,female,Belgian,3,98,ITC,win,10,left,1,ITC_start,1149,space,0,0,329,248656,1487936
47,21,female,Belgian,3,98,ITC,win,10,left,1,ITC_choice,907,f,0,0,329,247747,1488845
47,21,female,Belgian,3,98,ITC,win,10,left,1,ITC_wait,0,undefined,0,0,329,237741,1498851
47,21,female,Belgian,3,98,ITC,win,10,left,1,ITC_collect,723,k,0,0,329,237016,1499576
47,21,female,Belgian,3,98,ITC,win,10,left,1,ITC_outcome,0,undefined,0,0,349,236001,1500591
47,21,female,Belgian,3,99,guess,neutral,5,right,7,guess_start,2068,space,0,0,349,233932,1502660
47,21,female,Belgian,3,99,guess,neutral,5,right,7,guess_choice,635,j,0,0,349,233291,1503301
47,21,female,Belgian,3,99,guess,neutral,5,right,7,guess_outcome,0,undefined,0,0,349,231723,1504869
47,21,female,Belgian,3,99,ITC,neutral,5,right,7,ITC_start,1337,space,0,0,349,230383,1506209
47,21,female,Belgian,3,99,ITC,neutral,5,right,7,ITC_choice,1017,j,0,0,349,229365,1507227
47,21,female,Belgian,3,99,ITC,neutral,5,right,7,ITC_wait,0,undefined,0,0,349,224353,1512239
47,21,female,Belgian,3,99,ITC,neutral,5,right,7,ITC_collect,562,k,0,0,349,223789,1512803
47,21,female,Belgian,3,99,ITC,neutral,5,right,7,ITC_outcome,0,undefined,0,0,369,222782,1513810
47,21,female,Belgian,3,100,guess,neutral,5,left,1,guess_start,736,space,0,0,369,222044,1514548
47,21,female,Belgian,3,100,guess,neutral,5,left,1,guess_choice,770,j,0,0,369,221269,1515323
47,21,female,Belgian,3,100,guess,neutral,5,left,1,guess_outcome,0,undefined,0,0,369,219703,1516889
47,21,female,Belgian,3,100,ITC,neutral,5,left,1,ITC_start,1020,space,0,0,369,218680,1517912
47,21,female,Belgian,3,100,ITC,neutral,5,left,1,ITC_choice,1097,f,0,0,369,217582,1519010
47,21,female,Belgian,3,100,ITC,neutral,5,left,1,ITC_wait,0,undefined,0,0,369,212566,1524026
47,21,female,Belgian,3,100,ITC,neutral,5,left,1,ITC_collect,838,k,0,0,369,211727,1524865
47,21,female,Belgian,3,100,ITC,neutral,5,left,1,ITC_outcome,0,undefined,0,0,389,210722,1525870
47,21,female,Belgian,3,101,guess,neutral,5,right,5,guess_start,871,space,0,0,389,209848,1526744
47,21,female,Belgian,3,101,guess,neutral,5,right,5,guess_choice,599,f,0,0,389,209246,1527346
47,21,female,Belgian,3,101,guess,neutral,5,right,5,guess_outcome,0,undefined,0,0,389,207686,1528906
47,21,female,Belgian,3,101,ITC,neutral,5,right,5,ITC_start,752,space,0,0,389,206932,1529660
47,21,female,Belgian,3,101,ITC,neutral,5,right,5,ITC_choice,798,j,0,0,389,206132,1530460
47,21,female,Belgian,3,101,ITC,neutral,5,right,5,ITC_wait,0,undefined,0,0,389,201113,1535479
47,21,female,Belgian,3,101,ITC,neutral,5,right,5,ITC_collect,855,k,0,0,389,200257,1536335
47,21,female,Belgian,3,101,ITC,neutral,5,right,5,ITC_outcome,0,undefined,0,0,409,199252,1537340
47,21,female,Belgian,3,102,guess,neutral,5,left,10,guess_start,673,space,0,0,409,198577,1538015
47,21,female,Belgian,3,102,guess,neutral,5,left,10,guess_choice,577,j,0,0,409,197996,1538596
47,21,female,Belgian,3,102,guess,neutral,5,left,10,guess_outcome,0,undefined,0,0,409,196423,1540169
47,21,female,Belgian,3,102,ITC,neutral,5,left,10,ITC_start,796,space,0,0,409,195625,1540967
47,21,female,Belgian,3,102,ITC,neutral,5,left,10,ITC_choice,713,f,0,0,409,194909,1541683
47,21,female,Belgian,3,102,ITC,neutral,5,left,10,ITC_wait,0,undefined,0,0,409,189892,1546700
47,21,female,Belgian,3,102,ITC,neutral,5,left,10,ITC_collect,504,k,0,0,409,189386,1547206
47,21,female,Belgian,3,102,ITC,neutral,5,left,10,ITC_outcome,0,undefined,0,0,429,188373,1548219
47,21,female,Belgian,3,103,guess,neutral,5,left,8,guess_start,857,space,0,0,429,187514,1549078
47,21,female,Belgian,3,103,guess,neutral,5,left,8,guess_choice,598,j,0,0,429,186912,1549680
47,21,female,Belgian,3,103,guess,neutral,5,left,8,guess_outcome,0,undefined,0,0,429,185342,1551250
47,21,female,Belgian,3,103,ITC,neutral,5,left,8,ITC_start,894,space,0,0,429,184447,1552145
47,21,female,Belgian,3,103,ITC,neutral,5,left,8,ITC_choice,982,f,0,0,429,183462,1553130
47,21,female,Belgian,3,103,ITC,neutral,5,left,8,ITC_wait,0,undefined,0,0,429,178442,1558150
47,21,female,Belgian,3,103,ITC,neutral,5,left,8,ITC_collect,778,k,0,0,429,177662,1558930
47,21,female,Belgian,3,103,ITC,neutral,5,left,8,ITC_outcome,0,undefined,0,0,449,176652,1559940
47,21,female,Belgian,3,104,guess,neutral,5,left,11,guess_start,571,space,0,0,449,176078,1560514
47,21,female,Belgian,3,104,guess,neutral,5,left,11,guess_choice,558,f,0,0,449,175516,1561076
47,21,female,Belgian,3,104,guess,neutral,5,left,11,guess_outcome,0,undefined,0,0,449,173952,1562640
47,21,female,Belgian,3,104,ITC,neutral,5,left,11,ITC_start,679,space,0,0,449,173269,1563323
47,21,female,Belgian,3,104,ITC,neutral,5,left,11,ITC_choice,943,f,0,0,449,172324,1564268
47,21,female,Belgian,3,104,ITC,neutral,5,left,11,ITC_wait,0,undefined,0,0,449,167301,1569291
47,21,female,Belgian,3,104,ITC,neutral,5,left,11,ITC_collect,437,k,0,0,449,166862,1569730
47,21,female,Belgian,3,104,ITC,neutral,5,left,11,ITC_outcome,0,undefined,0,0,469,165851,1570741
47,21,female,Belgian,3,105,guess,win,5,right,14,guess_start,572,space,0,0,469,165278,1571314
47,21,female,Belgian,3,105,guess,win,5,right,14,guess_choice,638,j,0,0,469,164635,1571957
47,21,female,Belgian,3,105,guess,win,5,right,14,guess_outcome,0,undefined,0,0,489,163061,1573531
47,21,female,Belgian,3,105,ITC,win,5,right,14,ITC_start,764,space,0,0,489,162295,1574297
47,21,female,Belgian,3,105,ITC,win,5,right,14,ITC_choice,1062,f,0,0,489,161231,1575361
47,21,female,Belgian,3,105,ITC,win,5,right,14,ITC_wait,0,undefined,0,0,489,161228,1575364
47,21,female,Belgian,3,105,ITC,win,5,right,14,ITC_collect,909,k,0,0,489,160317,1576275
47,21,female,Belgian,3,105,ITC,win,5,right,14,ITC_outcome,0,undefined,0,0,503,159311,1577281
47,21,female,Belgian,3,106,guess,neutral,5,right,16,guess_start,512,space,0,0,503,158796,1577796
47,21,female,Belgian,3,106,guess,neutral,5,right,16,guess_choice,553,j,0,0,503,158240,1578352
47,21,female,Belgian,3,106,guess,neutral,5,right,16,guess_outcome,0,undefined,0,0,503,156671,1579921
47,21,female,Belgian,3,106,ITC,neutral,5,right,16,ITC_start,746,space,0,0,503,155923,1580669
47,21,female,Belgian,3,106,ITC,neutral,5,right,16,ITC_choice,1007,f,0,0,503,154914,1581678
47,21,female,Belgian,3,106,ITC,neutral,5,right,16,ITC_wait,0,undefined,0,0,503,154912,1581680
47,21,female,Belgian,3,106,ITC,neutral,5,right,16,ITC_collect,844,k,0,0,503,154065,1582527
47,21,female,Belgian,3,106,ITC,neutral,5,right,16,ITC_outcome,0,undefined,0,0,519,153041,1583551
47,21,female,Belgian,3,107,guess,win,5,left,2,guess_start,569,space,0,0,519,152470,1584122
47,21,female,Belgian,3,107,guess,win,5,left,2,guess_choice,524,f,0,0,519,151942,1584650
47,21,female,Belgian,3,107,guess,win,5,left,2,guess_outcome,0,undefined,0,0,539,150382,1586210
47,21,female,Belgian,3,107,ITC,win,5,left,2,ITC_start,464,space,0,0,539,149915,1586677
47,21,female,Belgian,3,107,ITC,win,5,left,2,ITC_choice,729,f,0,0,539,149184,1587408
47,21,female,Belgian,3,107,ITC,win,5,left,2,ITC_wait,0,undefined,0,0,539,144182,1592410
47,21,female,Belgian,3,107,ITC,win,5,left,2,ITC_collect,542,k,0,0,539,143637,1592955
47,21,female,Belgian,3,107,ITC,win,5,left,2,ITC_outcome,0,undefined,0,0,559,142631,1593961
47,21,female,Belgian,3,108,guess,loss,5,right,4,guess_start,576,space,0,0,559,142053,1594539
47,21,female,Belgian,3,108,guess,loss,5,right,4,guess_choice,537,j,0,0,559,141511,1595081
47,21,female,Belgian,3,108,guess,loss,5,right,4,guess_outcome,0,undefined,0,0,544,139941,1596651
47,21,female,Belgian,3,108,ITC,loss,5,right,4,ITC_start,480,space,0,0,544,139459,1597133
47,21,female,Belgian,3,108,ITC,loss,5,right,4,ITC_choice,1256,j,0,0,544,138201,1598391
47,21,female,Belgian,3,108,ITC,loss,5,right,4,ITC_wait,0,undefined,0,0,544,133191,1603401
47,21,female,Belgian,3,108,ITC,loss,5,right,4,ITC_collect,475,k,0,0,544,132713,1603879
47,21,female,Belgian,3,108,ITC,loss,5,right,4,ITC_outcome,0,undefined,0,0,564,131691,1604901
47,21,female,Belgian,3,109,guess,loss,5,right,15,guess_start,608,space,0,0,564,131080,1605512
47,21,female,Belgian,3,109,guess,loss,5,right,15,guess_choice,613,f,0,0,564,130463,1606129
47,21,female,Belgian,3,109,guess,loss,5,right,15,guess_outcome,0,undefined,0,0,549,128891,1607701
47,21,female,Belgian,3,109,ITC,loss,5,right,15,ITC_start,1135,space,0,0,549,127753,1608839
47,21,female,Belgian,3,109,ITC,loss,5,right,15,ITC_choice,1040,f,0,0,549,126710,1609882
47,21,female,Belgian,3,109,ITC,loss,5,right,15,ITC_wait,0,undefined,0,0,549,126706,1609886
47,21,female,Belgian,3,109,ITC,loss,5,right,15,ITC_collect,604,k,0,0,549,126100,1610492
47,21,female,Belgian,3,109,ITC,loss,5,right,15,ITC_outcome,0,undefined,0,0,564,125091,1611501
47,21,female,Belgian,3,110,guess,win,10,right,6,guess_start,352,space,0,0,564,124737,1611855
47,21,female,Belgian,3,110,guess,win,10,right,6,guess_choice,592,j,0,0,564,124141,1612451
47,21,female,Belgian,3,110,guess,win,10,right,6,guess_outcome,0,undefined,0,0,584,122571,1614021
47,21,female,Belgian,3,110,ITC,win,10,right,6,ITC_start,366,space,0,0,584,122203,1614389
47,21,female,Belgian,3,110,ITC,win,10,right,6,ITC_choice,1041,j,0,0,584,121160,1615432
47,21,female,Belgian,3,110,ITC,win,10,right,6,ITC_wait,0,undefined,0,0,584,111147,1625445
47,21,female,Belgian,3,110,ITC,win,10,right,6,ITC_collect,462,k,0,0,584,110682,1625910
47,21,female,Belgian,3,110,ITC,win,10,right,6,ITC_outcome,0,undefined,0,0,604,109661,1626931
47,21,female,Belgian,3,111,guess,loss,10,left,1,guess_start,610,space,0,0,604,109048,1627544
47,21,female,Belgian,3,111,guess,loss,10,left,1,guess_choice,658,f,0,0,604,108387,1628205
47,21,female,Belgian,3,111,guess,loss,10,left,1,guess_outcome,0,undefined,0,0,589,106811,1629781
47,21,female,Belgian,3,111,ITC,loss,10,left,1,ITC_start,719,space,0,0,589,106090,1630502
47,21,female,Belgian,3,111,ITC,loss,10,left,1,ITC_choice,853,f,0,0,589,105236,1631356
47,21,female,Belgian,3,111,ITC,loss,10,left,1,ITC_wait,0,undefined,0,0,589,95225,1641367
47,21,female,Belgian,3,111,ITC,loss,10,left,1,ITC_collect,1007,k,0,0,589,94217,1642375
47,21,female,Belgian,3,111,ITC,loss,10,left,1,ITC_outcome,0,undefined,0,0,609,93198,1643394
47,21,female,Belgian,3,112,guess,win,5,right,11,guess_start,1245,space,0,0,609,91950,1644642
47,21,female,Belgian,3,112,guess,win,5,right,11,guess_choice,566,j,0,0,609,91380,1645212
47,21,female,Belgian,3,112,guess,win,5,right,11,guess_outcome,0,undefined,0,0,629,89808,1646784
47,21,female,Belgian,3,112,ITC,win,5,right,11,ITC_start,703,space,0,0,629,89103,1647489
47,21,female,Belgian,3,112,ITC,win,5,right,11,ITC_choice,1087,j,0,0,629,88014,1648578
47,21,female,Belgian,3,112,ITC,win,5,right,11,ITC_wait,0,undefined,0,0,629,83007,1653585
47,21,female,Belgian,3,112,ITC,win,5,right,11,ITC_collect,700,k,0,0,629,82305,1654287
47,21,female,Belgian,3,112,ITC,win,5,right,11,ITC_outcome,0,undefined,0,0,649,81298,1655294
47,21,female,Belgian,3,113,guess,neutral,5,right,4,guess_start,745,space,0,0,649,80550,1656042
47,21,female,Belgian,3,113,guess,neutral,5,right,4,guess_choice,549,j,0,0,649,79997,1656595
47,21,female,Belgian,3,113,guess,neutral,5,right,4,guess_outcome,0,undefined,0,0,649,78428,1658164
47,21,female,Belgian,3,113,ITC,neutral,5,right,4,ITC_start,689,space,0,0,649,77737,1658855
47,21,female,Belgian,3,113,ITC,neutral,5,right,4,ITC_choice,738,j,0,0,649,76997,1659595
47,21,female,Belgian,3,113,ITC,neutral,5,right,4,ITC_wait,0,undefined,0,0,649,71982,1664610
47,21,female,Belgian,3,113,ITC,neutral,5,right,4,ITC_collect,540,k,0,0,649,71442,1665150
47,21,female,Belgian,3,113,ITC,neutral,5,right,4,ITC_outcome,0,undefined,0,0,669,70432,1666160
47,21,female,Belgian,3,114,guess,win,5,left,15,guess_start,486,space,0,0,669,69944,1666648
47,21,female,Belgian,3,114,guess,win,5,left,15,guess_choice,682,f,0,0,669,69258,1667334
47,21,female,Belgian,3,114,guess,win,5,left,15,guess_outcome,0,undefined,0,0,689,67688,1668904
47,21,female,Belgian,3,114,ITC,win,5,left,15,ITC_start,654,space,0,0,689,67032,1669560
47,21,female,Belgian,3,114,ITC,win,5,left,15,ITC_choice,898,f,0,0,689,66133,1670459
47,21,female,Belgian,3,114,ITC,win,5,left,15,ITC_wait,0,undefined,0,0,689,61119,1675473
47,21,female,Belgian,3,114,ITC,win,5,left,15,ITC_collect,770,k,0,0,689,60347,1676245
47,21,female,Belgian,3,114,ITC,win,5,left,15,ITC_outcome,0,undefined,0,0,709,59339,1677253
47,21,female,Belgian,3,115,guess,win,5,left,4,guess_start,429,space,0,0,709,58906,1677686
47,21,female,Belgian,3,115,guess,win,5,left,4,guess_choice,573,j,0,0,709,58329,1678263
47,21,female,Belgian,3,115,guess,win,5,left,4,guess_outcome,0,undefined,0,0,729,56768,1679824
47,21,female,Belgian,3,115,ITC,win,5,left,4,ITC_start,610,space,0,0,729,56157,1680435
47,21,female,Belgian,3,115,ITC,win,5,left,4,ITC_choice,788,f,0,0,729,55367,1681225
47,21,female,Belgian,3,115,ITC,win,5,left,4,ITC_wait,0,undefined,0,0,729,50358,1686234
47,21,female,Belgian,3,115,ITC,win,5,left,4,ITC_collect,724,k,0,0,729,49631,1686961
47,21,female,Belgian,3,115,ITC,win,5,left,4,ITC_outcome,0,undefined,0,0,749,48617,1687975
47,21,female,Belgian,3,116,guess,loss,5,left,8,guess_start,662,space,0,0,749,47952,1688640
47,21,female,Belgian,3,116,guess,loss,5,left,8,guess_choice,623,j,0,0,749,47325,1689267
47,21,female,Belgian,3,116,guess,loss,5,left,8,guess_outcome,0,undefined,0,0,734,45758,1690834
47,21,female,Belgian,3,116,ITC,loss,5,left,8,ITC_start,433,space,0,0,734,45323,1691269
47,21,female,Belgian,3,116,ITC,loss,5,left,8,ITC_choice,1315,f,0,0,734,44006,1692586
47,21,female,Belgian,3,116,ITC,loss,5,left,8,ITC_wait,0,undefined,0,0,734,38998,1697594
47,21,female,Belgian,3,116,ITC,loss,5,left,8,ITC_collect,530,k,0,0,734,38465,1698127
47,21,female,Belgian,3,116,ITC,loss,5,left,8,ITC_outcome,0,undefined,0,0,754,37454,1699138
47,21,female,Belgian,3,117,guess,neutral,5,right,13,guess_start,642,space,0,0,754,36810,1699782
47,21,female,Belgian,3,117,guess,neutral,5,right,13,guess_choice,751,f,0,0,754,36055,1700537
47,21,female,Belgian,3,117,guess,neutral,5,right,13,guess_outcome,0,undefined,0,0,754,34498,1702094
47,21,female,Belgian,3,117,ITC,neutral,5,right,13,ITC_start,648,space,0,0,754,33848,1702744
47,21,female,Belgian,3,117,ITC,neutral,5,right,13,ITC_choice,1319,f,0,0,754,32527,1704065
47,21,female,Belgian,3,117,ITC,neutral,5,right,13,ITC_wait,0,undefined,0,0,754,32523,1704069
47,21,female,Belgian,3,117,ITC,neutral,5,right,13,ITC_collect,502,k,0,0,754,32019,1704573
47,21,female,Belgian,3,117,ITC,neutral,5,right,13,ITC_outcome,0,undefined,0,0,767,30998,1705594
47,21,female,Belgian,3,118,guess,win,5,right,8,guess_start,461,space,0,0,767,30534,1706058
47,21,female,Belgian,3,118,guess,win,5,right,8,guess_choice,677,f,0,0,767,29853,1706739
47,21,female,Belgian,3,118,guess,win,5,right,8,guess_outcome,0,undefined,0,0,787,28288,1708304
47,21,female,Belgian,3,118,ITC,win,5,right,8,ITC_start,723,space,0,0,787,27562,1709030
47,21,female,Belgian,3,118,ITC,win,5,right,8,ITC_choice,1061,j,0,0,787,26499,1710093
47,21,female,Belgian,3,118,ITC,win,5,right,8,ITC_wait,0,undefined,0,0,787,21478,1715114
47,21,female,Belgian,3,118,ITC,win,5,right,8,ITC_collect,586,k,0,0,787,20889,1715703
47,21,female,Belgian,3,118,ITC,win,5,right,8,ITC_outcome,0,undefined,0,0,807,19884,1716708
47,21,female,Belgian,3,119,guess,win,5,right,12,guess_start,970,space,0,0,807,18912,1717680
47,21,female,Belgian,3,119,guess,win,5,right,12,guess_choice,628,j,0,0,807,18281,1718311
47,21,female,Belgian,3,119,guess,win,5,right,12,guess_outcome,0,undefined,0,0,827,16718,1719874
47,21,female,Belgian,3,119,ITC,win,5,right,12,ITC_start,592,space,0,0,827,16125,1720467
47,21,female,Belgian,3,119,ITC,win,5,right,12,ITC_choice,1360,f,0,0,827,14763,1721829
47,21,female,Belgian,3,119,ITC,win,5,right,12,ITC_wait,0,undefined,0,0,827,14760,1721832
47,21,female,Belgian,3,119,ITC,win,5,right,12,ITC_collect,805,k,0,0,827,13953,1722639
47,21,female,Belgian,3,119,ITC,win,5,right,12,ITC_outcome,0,undefined,0,0,839,12939,1723653
47,21,female,Belgian,3,120,guess,win,10,right,4,guess_start,499,space,0,0,839,12437,1724155
47,21,female,Belgian,3,120,guess,win,10,right,4,guess_choice,541,j,0,0,839,11891,1724701
47,21,female,Belgian,3,120,guess,win,10,right,4,guess_outcome,0,undefined,0,0,859,10318,1726274
47,21,female,Belgian,3,120,ITC,win,10,right,4,ITC_start,1068,space,0,0,859,9248,1727344
47,21,female,Belgian,3,120,ITC,win,10,right,4,ITC_choice,863,j,0,0,859,8383,1728209
47,21,female,Belgian,3,120,ITC,win,10,right,4,ITC_wait,0,undefined,0,0,859,-5,1736597
47,21,female,Belgian,4,121,guess,win,5,right,16,guess_start,999,space,0,0,0,479000,1745809
47,21,female,Belgian,4,121,guess,win,5,right,16,guess_choice,915,f,0,0,0,478081,1746728
47,21,female,Belgian,4,121,guess,win,5,right,16,guess_outcome,0,undefined,0,0,20,476510,1748299
47,21,female,Belgian,4,121,ITC,win,5,right,16,ITC_start,866,space,0,0,20,475642,1749167
47,21,female,Belgian,4,121,ITC,win,5,right,16,ITC_choice,1006,f,0,0,20,474634,1750175
47,21,female,Belgian,4,121,ITC,win,5,right,16,ITC_wait,0,undefined,0,0,20,474629,1750180
47,21,female,Belgian,4,121,ITC,win,5,right,16,ITC_collect,765,k,0,0,20,473863,1750946
47,21,female,Belgian,4,121,ITC,win,5,right,16,ITC_outcome,0,undefined,0,0,36,472841,1751968
47,21,female,Belgian,4,122,guess,loss,5,left,9,guess_start,480,space,0,0,36,472358,1752451
47,21,female,Belgian,4,122,guess,loss,5,left,9,guess_choice,588,f,0,0,36,471766,1753043
47,21,female,Belgian,4,122,guess,loss,5,left,9,guess_outcome,0,undefined,0,0,21,470211,1754598
47,21,female,Belgian,4,122,ITC,loss,5,left,9,ITC_start,430,space,0,0,21,469779,1755030
47,21,female,Belgian,4,122,ITC,loss,5,left,9,ITC_choice,1225,f,0,0,21,468552,1756257
47,21,female,Belgian,4,122,ITC,loss,5,left,9,ITC_wait,0,undefined,0,0,21,463541,1761268
47,21,female,Belgian,4,122,ITC,loss,5,left,9,ITC_collect,869,k,0,0,21,462670,1762139
47,21,female,Belgian,4,122,ITC,loss,5,left,9,ITC_outcome,0,undefined,0,0,41,461651,1763158
47,21,female,Belgian,4,123,guess,loss,5,right,16,guess_start,465,space,0,0,41,461184,1763625
47,21,female,Belgian,4,123,guess,loss,5,right,16,guess_choice,528,j,0,0,41,460652,1764157
47,21,female,Belgian,4,123,guess,loss,5,right,16,guess_outcome,0,undefined,0,0,26,459081,1765728
47,21,female,Belgian,4,123,ITC,loss,5,right,16,ITC_start,678,space,0,0,26,458401,1766408
47,21,female,Belgian,4,123,ITC,loss,5,right,16,ITC_choice,1130,f,0,0,26,457269,1767540
47,21,female,Belgian,4,123,ITC,loss,5,right,16,ITC_wait,0,undefined,0,0,26,457266,1767543
47,21,female,Belgian,4,123,ITC,loss,5,right,16,ITC_collect,636,k,0,0,26,456628,1768181
47,21,female,Belgian,4,123,ITC,loss,5,right,16,ITC_outcome,0,undefined,0,0,42,455621,1769188
47,21,female,Belgian,4,124,guess,win,10,left,7,guess_start,556,space,0,0,42,455062,1769747
47,21,female,Belgian,4,124,guess,win,10,left,7,guess_choice,478,f,0,0,42,454580,1770229
47,21,female,Belgian,4,124,guess,win,10,left,7,guess_outcome,0,undefined,0,0,62,453010,1771799
47,21,female,Belgian,4,124,ITC,win,10,left,7,ITC_start,923,space,0,0,62,452086,1772723
47,21,female,Belgian,4,124,ITC,win,10,left,7,ITC_choice,1528,f,0,0,62,450556,1774253
47,21,female,Belgian,4,124,ITC,win,10,left,7,ITC_wait,0,undefined,0,0,62,440546,1784263
47,21,female,Belgian,4,124,ITC,win,10,left,7,ITC_collect,630,k,0,0,62,439914,1784895
47,21,female,Belgian,4,124,ITC,win,10,left,7,ITC_outcome,0,undefined,0,0,82,438906,1785903
47,21,female,Belgian,4,125,guess,win,5,left,13,guess_start,898,space,0,0,82,438005,1786804
47,21,female,Belgian,4,125,guess,win,5,left,13,guess_choice,553,j,0,0,82,437449,1787360
47,21,female,Belgian,4,125,guess,win,5,left,13,guess_outcome,0,undefined,0,0,102,435876,1788933
47,21,female,Belgian,4,125,ITC,win,5,left,13,ITC_start,790,space,0,0,102,435084,1789725
47,21,female,Belgian,4,125,ITC,win,5,left,13,ITC_choice,1254,j,0,0,102,433827,1790982
47,21,female,Belgian,4,125,ITC,win,5,left,13,ITC_wait,0,undefined,0,0,102,433824,1790985
47,21,female,Belgian,4,125,ITC,win,5,left,13,ITC_collect,616,k,0,0,102,433206,1791603
47,21,female,Belgian,4,125,ITC,win,5,left,13,ITC_outcome,0,undefined,0,0,115,432196,1792613
47,21,female,Belgian,4,126,guess,loss,10,right,2,guess_start,424,space,0,0,115,431770,1793039
47,21,female,Belgian,4,126,guess,loss,10,right,2,guess_choice,623,f,0,0,115,431143,1793666
47,21,female,Belgian,4,126,guess,loss,10,right,2,guess_outcome,0,undefined,0,0,100,429576,1795233
47,21,female,Belgian,4,126,ITC,loss,10,right,2,ITC_start,850,space,0,0,100,428724,1796085
47,21,female,Belgian,4,126,ITC,loss,10,right,2,ITC_choice,1086,j,0,0,100,427636,1797173
47,21,female,Belgian,4,126,ITC,loss,10,right,2,ITC_wait,0,undefined,0,0,100,417621,1807188
47,21,female,Belgian,4,126,ITC,loss,10,right,2,ITC_collect,550,k,0,0,100,417067,1807742
47,21,female,Belgian,4,126,ITC,loss,10,right,2,ITC_outcome,0,undefined,0,0,120,416062,1808747
47,21,female,Belgian,4,127,guess,neutral,5,left,15,guess_start,596,space,0,0,120,415463,1809346
47,21,female,Belgian,4,127,guess,neutral,5,left,15,guess_choice,578,f,0,0,120,414882,1809927
47,21,female,Belgian,4,127,guess,neutral,5,left,15,guess_outcome,0,undefined,0,0,120,413322,1811487
47,21,female,Belgian,4,127,ITC,neutral,5,left,15,ITC_start,903,space,0,0,120,412417,1812392
47,21,female,Belgian,4,127,ITC,neutral,5,left,15,ITC_choice,1369,j,0,0,120,411046,1813763
47,21,female,Belgian,4,127,ITC,neutral,5,left,15,ITC_wait,0,undefined,0,0,120,411043,1813766
47,21,female,Belgian,4,127,ITC,neutral,5,left,15,ITC_collect,646,k,0,0,120,410395,1814414
47,21,female,Belgian,4,127,ITC,neutral,5,left,15,ITC_outcome,0,undefined,0,0,135,409382,1815427
47,21,female,Belgian,4,128,guess,loss,5,right,7,guess_start,604,space,0,0,135,408775,1816034
47,21,female,Belgian,4,128,guess,loss,5,right,7,guess_choice,770,f,0,0,135,408001,1816808
47,21,female,Belgian,4,128,guess,loss,5,right,7,guess_outcome,0,undefined,0,0,120,406441,1818368
47,21,female,Belgian,4,128,ITC,loss,5,right,7,ITC_start,507,space,0,0,120,405933,1818876
47,21,female,Belgian,4,128,ITC,loss,5,right,7,ITC_choice,1095,j,0,0,120,404835,1819974
47,21,female,Belgian,4,128,ITC,loss,5,right,7,ITC_wait,0,undefined,0,0,120,399822,1824987
47,21,female,Belgian,4,128,ITC,loss,5,right,7,ITC_collect,579,k,0,0,120,399240,1825569
47,21,female,Belgian,4,128,ITC,loss,5,right,7,ITC_outcome,0,undefined,0,0,140,398223,1826586
47,21,female,Belgian,4,129,guess,win,10,right,8,guess_start,957,space,0,0,140,397263,1827546
47,21,female,Belgian,4,129,guess,win,10,right,8,guess_choice,569,f,0,0,140,396691,1828118
47,21,female,Belgian,4,129,guess,win,10,right,8,guess_outcome,0,undefined,0,0,160,395132,1829677
47,21,female,Belgian,4,129,ITC,win,10,right,8,ITC_start,870,space,0,0,160,394261,1830548
47,21,female,Belgian,4,129,ITC,win,10,right,8,ITC_choice,838,j,0,0,160,393421,1831388
47,21,female,Belgian,4,129,ITC,win,10,right,8,ITC_wait,0,undefined,0,0,160,383412,1841397
47,21,female,Belgian,4,129,ITC,win,10,right,8,ITC_collect,384,k,0,0,160,383026,1841783
47,21,female,Belgian,4,129,ITC,win,10,right,8,ITC_outcome,0,undefined,0,0,180,382016,1842793
47,21,female,Belgian,4,130,guess,loss,5,right,11,guess_start,498,space,0,0,180,381515,1843294
47,21,female,Belgian,4,130,guess,loss,5,right,11,guess_choice,587,f,0,0,180,380924,1843885
47,21,female,Belgian,4,130,guess,loss,5,right,11,guess_outcome,0,undefined,0,0,165,379356,1845453
47,21,female,Belgian,4,130,ITC,loss,5,right,11,ITC_start,591,space,0,0,165,378763,1846046
47,21,female,Belgian,4,130,ITC,loss,5,right,11,ITC_choice,848,j,0,0,165,377914,1846895
47,21,female,Belgian,4,130,ITC,loss,5,right,11,ITC_wait,0,undefined,0,0,165,372906,1851903
47,21,female,Belgian,4,130,ITC,loss,5,right,11,ITC_collect,1158,k,0,0,165,371746,1853063
47,21,female,Belgian,4,130,ITC,loss,5,right,11,ITC_outcome,0,undefined,0,0,185,370734,1854075
47,21,female,Belgian,4,131,guess,loss,10,right,5,guess_start,526,space,0,0,185,370206,1854603
47,21,female,Belgian,4,131,guess,loss,10,right,5,guess_choice,509,f,0,0,185,369694,1855115
47,21,female,Belgian,4,131,guess,loss,10,right,5,guess_outcome,0,undefined,0,0,170,368134,1856675
47,21,female,Belgian,4,131,ITC,loss,10,right,5,ITC_start,455,space,0,0,170,367676,1857133
47,21,female,Belgian,4,131,ITC,loss,10,right,5,ITC_choice,763,j,0,0,170,366911,1857898
47,21,female,Belgian,4,131,ITC,loss,10,right,5,ITC_wait,0,undefined,0,0,170,356906,1867903
47,21,female,Belgian,4,131,ITC,loss,10,right,5,ITC_collect,856,k,0,0,170,356047,1868762
47,21,female,Belgian,4,131,ITC,loss,10,right,5,ITC_outcome,0,undefined,0,0,190,355037,1869772
47,21,female,Belgian,4,132,guess,neutral,5,left,6,guess_start,414,space,0,0,190,354621,1870188
47,21,female,Belgian,4,132,guess,neutral,5,left,6,guess_choice,601,f,0,0,190,354016,1870793
47,21,female,Belgian,4,132,guess,neutral,5,left,6,guess_outcome,0,undefined,0,0,190,352457,1872352
47,21,female,Belgian,4,132,ITC,neutral,5,left,6,ITC_start,938,space,0,0,190,351517,1873292
47,21,female,Belgian,4,132,ITC,neutral,5,left,6,ITC_choice,748,f,0,0,190,350766,1874043
47,21,female,Belgian,4,132,ITC,neutral,5,left,6,ITC_wait,0,undefined,0,0,190,345748,1879061
47,21,female,Belgian,4,132,ITC,neutral,5,left,6,ITC_collect,888,k,0,0,190,344857,1879952
47,21,female,Belgian,4,132,ITC,neutral,5,left,6,ITC_outcome,0,undefined,0,0,210,343841,1880968
47,21,female,Belgian,4,133,guess,win,5,right,9,guess_start,337,space,0,0,210,343501,1881308
47,21,female,Belgian,4,133,guess,win,5,right,9,guess_choice,612,j,0,0,210,342885,1881924
47,21,female,Belgian,4,133,guess,win,5,right,9,guess_outcome,0,undefined,0,0,230,341328,1883481
47,21,female,Belgian,4,133,ITC,win,5,right,9,ITC_start,538,space,0,0,230,340788,1884021
47,21,female,Belgian,4,133,ITC,win,5,right,9,ITC_choice,842,j,0,0,230,339943,1884866
47,21,female,Belgian,4,133,ITC,win,5,right,9,ITC_wait,0,undefined,0,0,230,334937,1889872
47,21,female,Belgian,4,133,ITC,win,5,right,9,ITC_collect,419,k,0,0,230,334516,1890293
47,21,female,Belgian,4,133,ITC,win,5,right,9,ITC_outcome,0,undefined,0,0,250,333507,1891302
47,21,female,Belgian,4,134,guess,neutral,10,right,5,guess_start,335,space,0,0,250,333170,1891639
47,21,female,Belgian,4,134,guess,neutral,10,right,5,guess_choice,593,j,0,0,250,332573,1892236
47,21,female,Belgian,4,134,guess,neutral,10,right,5,guess_outcome,0,undefined,0,0,250,331008,1893801
47,21,female,Belgian,4,134,ITC,neutral,10,right,5,ITC_start,559,space,0,0,250,330447,1894362
47,21,female,Belgian,4,134,ITC,neutral,10,right,5,ITC_choice,803,j,0,0,250,329642,1895167
47,21,female,Belgian,4,134,ITC,neutral,10,right,5,ITC_wait,0,undefined,0,0,250,319630,1905179
47,21,female,Belgian,4,134,ITC,neutral,10,right,5,ITC_collect,930,k,0,0,250,318697,1906112
47,21,female,Belgian,4,134,ITC,neutral,10,right,5,ITC_outcome,0,undefined,0,0,270,317674,1907135
47,21,female,Belgian,4,135,guess,neutral,5,right,9,guess_start,519,space,0,0,270,317153,1907656
47,21,female,Belgian,4,135,guess,neutral,5,right,9,guess_choice,558,j,0,0,270,316591,1908218
47,21,female,Belgian,4,135,guess,neutral,5,right,9,guess_outcome,0,undefined,0,0,270,315023,1909786
47,21,female,Belgian,4,135,ITC,neutral,5,right,9,ITC_start,850,space,0,0,270,314171,1910638
47,21,female,Belgian,4,135,ITC,neutral,5,right,9,ITC_choice,1087,j,0,0,270,313083,1911726
47,21,female,Belgian,4,135,ITC,neutral,5,right,9,ITC_wait,0,undefined,0,0,270,308065,1916744
47,21,female,Belgian,4,135,ITC,neutral,5,right,9,ITC_collect,799,k,0,0,270,307263,1917546
47,21,female,Belgian,4,135,ITC,neutral,5,right,9,ITC_outcome,0,undefined,0,0,290,306244,1918565
47,21,female,Belgian,4,136,guess,loss,10,right,6,guess_start,1017,space,0,0,290,305225,1919584
47,21,female,Belgian,4,136,guess,loss,10,right,6,guess_choice,672,f,0,0,290,304548,1920261
47,21,female,Belgian,4,136,guess,loss,10,right,6,guess_outcome,0,undefined,0,0,275,302989,1921820
47,21,female,Belgian,4,136,ITC,loss,10,right,6,ITC_start,450,space,0,0,275,302537,1922272
47,21,female,Belgian,4,136,ITC,loss,10,right,6,ITC_choice,789,j,0,0,275,301747,1923062
47,21,female,Belgian,4,136,ITC,loss,10,right,6,ITC_wait,0,undefined,0,0,275,291729,1933080
47,21,female,Belgian,4,136,ITC,loss,10,right,6,ITC_collect,970,k,0,0,275,290757,1934052
47,21,female,Belgian,4,136,ITC,loss,10,right,6,ITC_outcome,0,undefined,0,0,295,289741,1935068
47,21,female,Belgian,4,137,guess,neutral,10,right,7,guess_start,1740,space,0,0,295,287999,1936810
47,21,female,Belgian,4,137,guess,neutral,10,right,7,guess_choice,663,f,0,0,295,287333,1937476
47,21,female,Belgian,4,137,guess,neutral,10,right,7,guess_outcome,0,undefined,0,0,295,285761,1939048
47,21,female,Belgian,4,137,ITC,neutral,10,right,7,ITC_start,692,space,0,0,295,285067,1939742
47,21,female,Belgian,4,137,ITC,neutral,10,right,7,ITC_choice,912,j,0,0,295,284153,1940656
47,21,female,Belgian,4,137,ITC,neutral,10,right,7,ITC_wait,0,undefined,0,0,295,274143,1950666
47,21,female,Belgian,4,137,ITC,neutral,10,right,7,ITC_collect,659,k,0,0,295,273482,1951327
47,21,female,Belgian,4,137,ITC,neutral,10,right,7,ITC_outcome,0,undefined,0,0,315,272473,1952336
47,21,female,Belgian,4,138,guess,loss,5,right,14,guess_start,1159,space,0,0,315,271312,1953497
47,21,female,Belgian,4,138,guess,loss,5,right,14,guess_choice,608,f,0,0,315,270700,1954109
47,21,female,Belgian,4,138,guess,loss,5,right,14,guess_outcome,0,undefined,0,0,300,269134,1955675
47,21,female,Belgian,4,138,ITC,loss,5,right,14,ITC_start,1962,space,0,0,300,267170,1957639
47,21,female,Belgian,4,138,ITC,loss,5,right,14,ITC_choice,1418,j,0,0,300,265750,1959059
47,21,female,Belgian,4,138,ITC,loss,5,right,14,ITC_wait,0,undefined,0,0,300,260737,1964072
47,21,female,Belgian,4,138,ITC,loss,5,right,14,ITC_collect,457,k,0,0,300,260279,1964530
47,21,female,Belgian,4,138,ITC,loss,5,right,14,ITC_outcome,0,undefined,0,0,320,259273,1965536
47,21,female,Belgian,4,139,guess,win,5,left,1,guess_start,722,space,0,0,320,258548,1966261
47,21,female,Belgian,4,139,guess,win,5,left,1,guess_choice,503,f,0,0,320,258041,1966768
47,21,female,Belgian,4,139,guess,win,5,left,1,guess_outcome,0,undefined,0,0,340,256473,1968336
47,21,female,Belgian,4,139,ITC,win,5,left,1,ITC_start,4050,space,0,0,340,252421,1972388
47,21,female,Belgian,4,139,ITC,win,5,left,1,ITC_choice,669,f,0,0,340,251749,1973060
47,21,female,Belgian,4,139,ITC,win,5,left,1,ITC_wait,0,undefined,0,0,340,246734,1978075
47,21,female,Belgian,4,139,ITC,win,5,left,1,ITC_collect,732,k,0,0,340,246000,1978809
47,21,female,Belgian,4,139,ITC,win,5,left,1,ITC_outcome,0,undefined,0,0,360,244979,1979830
47,21,female,Belgian,4,140,guess,loss,5,right,13,guess_start,588,space,0,0,360,244389,1980420
47,21,female,Belgian,4,140,guess,loss,5,right,13,guess_choice,458,j,0,0,360,243928,1980881
