subjectID,age,gender,nationality,block_number,trial_number,trial_type,guess_outcome,delay_time,delay_pos,immediate_amount,stage,respRT,respKey,blur_count,focus_count,total_points,remaining_duration,time_elapsed
16,18,female,Nederlands,1,1,guess,win,5,left,10,guess_start,3477,space,0,0,0,476520,269857
16,18,female,Nederlands,1,1,guess,win,5,left,10,guess_choice,2160,j,0,0,0,474340,272037
16,18,female,Nederlands,1,1,guess,win,5,left,10,guess_outcome,0,undefined,0,0,20,472771,273606
16,18,female,Nederlands,1,1,ITC,win,5,left,10,ITC_start,2086,space,0,0,20,470680,275697
16,18,female,Nederlands,1,1,ITC,win,5,left,10,ITC_choice,2826,f,0,0,20,467849,278528
16,18,female,Nederlands,1,1,ITC,win,5,left,10,ITC_wait,0,undefined,0,0,20,462841,283536
16,18,female,Nederlands,1,1,ITC,win,5,left,10,ITC_collect,1736,k,0,0,20,461098,285279
16,18,female,Nederlands,1,1,ITC,win,5,left,10,ITC_outcome,0,undefined,0,0,40,460081,286296
16,18,female,Nederlands,1,2,guess,neutral,5,right,13,guess_start,1583,space,0,0,40,458489,287888
16,18,female,Nederlands,1,2,guess,neutral,5,right,13,guess_choice,834,f,0,0,40,457639,288738
16,18,female,Nederlands,1,2,guess,neutral,5,right,13,guess_outcome,0,undefined,0,0,40,456071,290306
16,18,female,Nederlands,1,2,ITC,neutral,5,right,13,ITC_start,1319,space,0,0,40,454749,291628
16,18,female,Nederlands,1,2,ITC,neutral,5,right,13,ITC_choice,2115,j,0,0,40,452629,293748
16,18,female,Nederlands,1,2,ITC,neutral,5,right,13,ITC_wait,0,undefined,0,0,40,447623,298754
16,18,female,Nederlands,1,2,ITC,neutral,5,right,13,ITC_collect,1551,k,0,0,40,446068,300309
16,18,female,Nederlands,1,2,ITC,neutral,5,right,13,ITC_outcome,0,undefined,0,0,60,445051,301326
16,18,female,Nederlands,1,3,guess,win,5,right,1,guess_start,798,space,0,0,60,444247,302130
16,18,female,Nederlands,1,3,guess,win,5,right,1,guess_choice,1446,f,0,0,60,442790,303587
16,18,female,Nederlands,1,3,guess,win,5,right,1,guess_outcome,0,undefined,0,0,80,441226,305151
16,18,female,Nederlands,1,3,ITC,win,5,right,1,ITC_start,1574,space,0,0,80,439650,306727
16,18,female,Nederlands,1,3,ITC,win,5,right,1,ITC_choice,1428,f,0,0,80,438218,308159
16,18,female,Nederlands,1,3,ITC,win,5,right,1,ITC_wait,0,undefined,0,0,80,438211,308166
16,18,female,Nederlands,1,3,ITC,win,5,right,1,ITC_collect,1884,k,0,0,80,436318,310059
16,18,female,Nederlands,1,3,ITC,win,5,right,1,ITC_outcome,0,undefined,0,0,81,435307,311070
16,18,female,Nederlands,1,4,guess,loss,5,right,14,guess_start,1165,space,0,0,81,434139,312238
16,18,female,Nederlands,1,4,guess,loss,5,right,14,guess_choice,1790,j,0,0,81,432339,314038
16,18,female,Nederlands,1,4,guess,loss,5,right,14,guess_outcome,0,undefined,0,0,66,430776,315601
16,18,female,Nederlands,1,4,ITC,loss,5,right,14,ITC_start,1033,space,0,0,66,429739,316638
16,18,female,Nederlands,1,4,ITC,loss,5,right,14,ITC_choice,1816,f,0,0,66,427918,318459
16,18,female,Nederlands,1,4,ITC,loss,5,right,14,ITC_wait,0,undefined,0,0,66,427913,318464
16,18,female,Nederlands,1,4,ITC,loss,5,right,14,ITC_collect,3689,k,0,0,66,424219,322158
16,18,female,Nederlands,1,4,ITC,loss,5,right,14,ITC_outcome,0,undefined,0,0,80,423206,323171
16,18,female,Nederlands,1,5,guess,win,10,left,2,guess_start,633,space,0,0,80,422568,323809
16,18,female,Nederlands,1,5,guess,win,10,left,2,guess_choice,881,f,0,0,80,421679,324698
16,18,female,Nederlands,1,5,guess,win,10,left,2,guess_outcome,0,undefined,0,0,100,420116,326261
16,18,female,Nederlands,1,5,ITC,win,10,left,2,ITC_start,1524,space,0,0,100,418589,327788
16,18,female,Nederlands,1,5,ITC,win,10,left,2,ITC_choice,1865,f,0,0,100,416719,329658
16,18,female,Nederlands,1,5,ITC,win,10,left,2,ITC_wait,0,undefined,0,0,100,406708,339669
16,18,female,Nederlands,1,5,ITC,win,10,left,2,ITC_collect,1786,k,0,0,100,404918,341459
16,18,female,Nederlands,1,5,ITC,win,10,left,2,ITC_outcome,0,undefined,0,0,120,403907,342470
16,18,female,Nederlands,1,6,guess,neutral,5,left,2,guess_start,1063,space,0,0,120,402839,343538
16,18,female,Nederlands,1,6,guess,neutral,5,left,2,guess_choice,1150,f,0,0,120,401679,344698
16,18,female,Nederlands,1,6,guess,neutral,5,left,2,guess_outcome,0,undefined,0,0,120,400116,346261
16,18,female,Nederlands,1,6,ITC,neutral,5,left,2,ITC_start,4534,space,0,0,120,395577,350800
16,18,female,Nederlands,1,6,ITC,neutral,5,left,2,ITC_choice,1044,f,0,0,120,394528,351849
16,18,female,Nederlands,1,6,ITC,neutral,5,left,2,ITC_wait,0,undefined,0,0,120,389522,356855
16,18,female,Nederlands,1,6,ITC,neutral,5,left,2,ITC_collect,1031,k,0,0,120,388487,357890
16,18,female,Nederlands,1,6,ITC,neutral,5,left,2,ITC_outcome,0,undefined,0,0,140,387479,358898
16,18,female,Nederlands,1,7,guess,neutral,5,right,11,guess_start,729,space,0,0,140,386747,359630
16,18,female,Nederlands,1,7,guess,neutral,5,right,11,guess_choice,1030,f,0,0,140,385708,360669
16,18,female,Nederlands,1,7,guess,neutral,5,right,11,guess_outcome,0,undefined,0,0,140,384149,362228
16,18,female,Nederlands,1,7,ITC,neutral,5,right,11,ITC_start,1649,space,0,0,140,382497,363880
16,18,female,Nederlands,1,7,ITC,neutral,5,right,11,ITC_choice,1529,j,0,0,140,380957,365420
16,18,female,Nederlands,1,7,ITC,neutral,5,right,11,ITC_wait,0,undefined,0,0,140,375949,370428
16,18,female,Nederlands,1,7,ITC,neutral,5,right,11,ITC_collect,1119,k,0,0,140,374827,371550
16,18,female,Nederlands,1,7,ITC,neutral,5,right,11,ITC_outcome,0,undefined,0,0,160,373819,372558
16,18,female,Nederlands,1,8,guess,win,10,left,3,guess_start,2767,space,0,0,160,371047,375330
16,18,female,Nederlands,1,8,guess,win,10,left,3,guess_choice,743,f,0,0,160,370297,376080
16,18,female,Nederlands,1,8,guess,win,10,left,3,guess_outcome,0,undefined,0,0,180,368730,377647
16,18,female,Nederlands,1,8,ITC,win,10,left,3,ITC_start,3079,space,0,0,180,365647,380730
16,18,female,Nederlands,1,8,ITC,win,10,left,3,ITC_choice,844,f,0,0,180,364797,381580
16,18,female,Nederlands,1,8,ITC,win,10,left,3,ITC_wait,0,undefined,0,0,180,354783,391594
16,18,female,Nederlands,1,8,ITC,win,10,left,3,ITC_collect,1191,k,0,0,180,353587,392790
16,18,female,Nederlands,1,8,ITC,win,10,left,3,ITC_outcome,0,undefined,0,0,200,352573,393804
16,18,female,Nederlands,1,9,guess,neutral,5,right,14,guess_start,990,space,0,0,200,351578,394799
16,18,female,Nederlands,1,9,guess,neutral,5,right,14,guess_choice,1072,f,0,0,200,350496,395881
16,18,female,Nederlands,1,9,guess,neutral,5,right,14,guess_outcome,0,undefined,0,0,200,348933,397444
16,18,female,Nederlands,1,9,ITC,neutral,5,right,14,ITC_start,1302,space,0,0,200,347627,398750
16,18,female,Nederlands,1,9,ITC,neutral,5,right,14,ITC_choice,1634,f,0,0,200,345988,400389
16,18,female,Nederlands,1,9,ITC,neutral,5,right,14,ITC_wait,0,undefined,0,0,200,345980,400397
16,18,female,Nederlands,1,9,ITC,neutral,5,right,14,ITC_collect,5778,k,0,0,200,340197,406180
16,18,female,Nederlands,1,9,ITC,neutral,5,right,14,ITC_outcome,0,undefined,0,0,214,339182,407195
16,18,female,Nederlands,1,10,guess,win,5,right,7,guess_start,850,space,0,0,214,338329,408048
16,18,female,Nederlands,1,10,guess,win,5,right,7,guess_choice,1213,j,0,0,214,337107,409270
16,18,female,Nederlands,1,10,guess,win,5,right,7,guess_outcome,0,undefined,0,0,234,335543,410834
16,18,female,Nederlands,1,10,ITC,win,5,right,7,ITC_start,2382,space,0,0,234,333158,413219
16,18,female,Nederlands,1,10,ITC,win,5,right,7,ITC_choice,1276,j,0,0,234,331877,414500
16,18,female,Nederlands,1,10,ITC,win,5,right,7,ITC_wait,0,undefined,0,0,234,326856,419521
16,18,female,Nederlands,1,10,ITC,win,5,right,7,ITC_collect,704,k,0,0,234,326148,420229
16,18,female,Nederlands,1,10,ITC,win,5,right,7,ITC_outcome,0,undefined,0,0,254,325133,421244
16,18,female,Nederlands,1,11,guess,loss,5,left,5,guess_start,789,space,0,0,254,324339,422038
16,18,female,Nederlands,1,11,guess,loss,5,left,5,guess_choice,957,f,0,0,254,323376,423001
16,18,female,Nederlands,1,11,guess,loss,5,left,5,guess_outcome,0,undefined,0,0,239,321812,424565
16,18,female,Nederlands,1,11,ITC,loss,5,left,5,ITC_start,818,space,0,0,239,320988,425389
16,18,female,Nederlands,1,11,ITC,loss,5,left,5,ITC_choice,1017,f,0,0,239,319967,426410
16,18,female,Nederlands,1,11,ITC,loss,5,left,5,ITC_wait,0,undefined,0,0,239,314964,431413
16,18,female,Nederlands,1,11,ITC,loss,5,left,5,ITC_collect,1792,k,0,0,239,313166,433211
16,18,female,Nederlands,1,11,ITC,loss,5,left,5,ITC_outcome,0,undefined,0,0,259,312153,434224
16,18,female,Nederlands,1,12,guess,neutral,5,left,15,guess_start,962,space,0,0,259,311187,435190
16,18,female,Nederlands,1,12,guess,neutral,5,left,15,guess_choice,1602,j,0,0,259,309577,436800
16,18,female,Nederlands,1,12,guess,neutral,5,left,15,guess_outcome,0,undefined,0,0,259,308012,438365
16,18,female,Nederlands,1,12,ITC,neutral,5,left,15,ITC_start,952,space,0,0,259,307056,439321
16,18,female,Nederlands,1,12,ITC,neutral,5,left,15,ITC_choice,1905,j,0,0,259,305148,441229
16,18,female,Nederlands,1,12,ITC,neutral,5,left,15,ITC_wait,0,undefined,0,0,259,305140,441237
16,18,female,Nederlands,1,12,ITC,neutral,5,left,15,ITC_collect,1047,k,0,0,259,304086,442291
16,18,female,Nederlands,1,12,ITC,neutral,5,left,15,ITC_outcome,0,undefined,0,0,274,303073,443304
16,18,female,Nederlands,1,13,guess,neutral,10,right,2,guess_start,792,space,0,0,274,302276,444101
16,18,female,Nederlands,1,13,guess,neutral,10,right,2,guess_choice,1990,f,0,0,274,300277,446100
16,18,female,Nederlands,1,13,guess,neutral,10,right,2,guess_outcome,0,undefined,0,0,274,298711,447666
16,18,female,Nederlands,1,13,ITC,neutral,10,right,2,ITC_start,801,space,0,0,274,297907,448470
16,18,female,Nederlands,1,13,ITC,neutral,10,right,2,ITC_choice,1402,j,0,0,274,296497,449880
16,18,female,Nederlands,1,13,ITC,neutral,10,right,2,ITC_wait,0,undefined,0,0,274,286493,459884
16,18,female,Nederlands,1,13,ITC,neutral,10,right,2,ITC_collect,2182,k,0,0,274,284307,462070
16,18,female,Nederlands,1,13,ITC,neutral,10,right,2,ITC_outcome,0,undefined,0,0,294,283290,463087
16,18,female,Nederlands,1,14,guess,win,10,right,4,guess_start,4749,space,0,0,294,278537,467840
16,18,female,Nederlands,1,14,guess,win,10,right,4,guess_choice,1206,f,0,0,294,277318,469059
16,18,female,Nederlands,1,14,guess,win,10,right,4,guess_outcome,0,undefined,0,0,314,275760,470617
16,18,female,Nederlands,1,14,ITC,win,10,right,4,ITC_start,1069,space,0,0,314,274687,471690
16,18,female,Nederlands,1,14,ITC,win,10,right,4,ITC_choice,1027,j,0,0,314,273658,472719
16,18,female,Nederlands,1,14,ITC,win,10,right,4,ITC_wait,0,undefined,0,0,314,263652,482725
16,18,female,Nederlands,1,14,ITC,win,10,right,4,ITC_collect,1452,k,0,0,314,262197,484180
16,18,female,Nederlands,1,14,ITC,win,10,right,4,ITC_outcome,0,undefined,0,0,334,261183,485194
16,18,female,Nederlands,1,15,guess,win,5,right,6,guess_start,8099,space,0,0,334,253078,493299
16,18,female,Nederlands,1,15,guess,win,5,right,6,guess_choice,2026,f,0,0,334,251045,495332
16,18,female,Nederlands,1,15,guess,win,5,right,6,guess_outcome,0,undefined,0,0,354,249471,496906
16,18,female,Nederlands,1,15,ITC,win,5,right,6,ITC_start,2791,space,0,0,354,246676,499701
16,18,female,Nederlands,1,15,ITC,win,5,right,6,ITC_choice,812,j,0,0,354,245856,500521
16,18,female,Nederlands,1,15,ITC,win,5,right,6,ITC_wait,0,undefined,0,0,354,240841,505536
16,18,female,Nederlands,1,15,ITC,win,5,right,6,ITC_collect,1171,k,0,0,354,239666,506711
16,18,female,Nederlands,1,15,ITC,win,5,right,6,ITC_outcome,0,undefined,0,0,374,238656,507721
16,18,female,Nederlands,1,16,guess,neutral,5,left,6,guess_start,607,space,0,0,374,238046,508331
16,18,female,Nederlands,1,16,guess,neutral,5,left,6,guess_choice,811,f,0,0,374,237227,509150
16,18,female,Nederlands,1,16,guess,neutral,5,left,6,guess_outcome,0,undefined,0,0,374,235666,510711
16,18,female,Nederlands,1,16,ITC,neutral,5,left,6,ITC_start,1036,space,0,0,374,234625,511752
16,18,female,Nederlands,1,16,ITC,neutral,5,left,6,ITC_choice,1725,f,0,0,374,232896,513481
16,18,female,Nederlands,1,16,ITC,neutral,5,left,6,ITC_wait,0,undefined,0,0,374,227886,518491
16,18,female,Nederlands,1,16,ITC,neutral,5,left,6,ITC_collect,898,k,0,0,374,226984,519393
16,18,female,Nederlands,1,16,ITC,neutral,5,left,6,ITC_outcome,0,undefined,0,0,394,225975,520402
16,18,female,Nederlands,1,17,guess,loss,10,left,3,guess_start,666,space,0,0,394,225305,521072
16,18,female,Nederlands,1,17,guess,loss,10,left,3,guess_choice,1353,j,0,0,394,223944,522433
16,18,female,Nederlands,1,17,guess,loss,10,left,3,guess_outcome,0,undefined,0,0,379,222376,524001
16,18,female,Nederlands,1,17,ITC,loss,10,left,3,ITC_start,2119,space,0,0,379,220255,526122
16,18,female,Nederlands,1,17,ITC,loss,10,left,3,ITC_choice,732,f,0,0,379,219515,526862
16,18,female,Nederlands,1,17,ITC,loss,10,left,3,ITC_wait,0,undefined,0,0,379,209509,536868
16,18,female,Nederlands,1,17,ITC,loss,10,left,3,ITC_collect,1590,k,0,0,379,207916,538461
16,18,female,Nederlands,1,17,ITC,loss,10,left,3,ITC_outcome,0,undefined,0,0,399,206900,539477
16,18,female,Nederlands,1,18,guess,win,5,left,16,guess_start,740,space,0,0,399,206156,540221
16,18,female,Nederlands,1,18,guess,win,5,left,16,guess_choice,952,j,0,0,399,205196,541181
16,18,female,Nederlands,1,18,guess,win,5,left,16,guess_outcome,0,undefined,0,0,419,203630,542747
16,18,female,Nederlands,1,18,ITC,win,5,left,16,ITC_start,1100,space,0,0,419,202526,543851
16,18,female,Nederlands,1,18,ITC,win,5,left,16,ITC_choice,1337,f,0,0,419,201186,545191
16,18,female,Nederlands,1,18,ITC,win,5,left,16,ITC_wait,0,undefined,0,0,419,196181,550196
16,18,female,Nederlands,1,18,ITC,win,5,left,16,ITC_collect,1751,k,0,0,419,194425,551952
16,18,female,Nederlands,1,18,ITC,win,5,left,16,ITC_outcome,0,undefined,0,0,439,193410,552967
16,18,female,Nederlands,1,19,guess,neutral,10,right,3,guess_start,3111,space,0,0,439,190296,556081
16,18,female,Nederlands,1,19,guess,neutral,10,right,3,guess_choice,1530,j,0,0,439,188756,557621
16,18,female,Nederlands,1,19,guess,neutral,10,right,3,guess_outcome,0,undefined,0,0,439,187190,559187
16,18,female,Nederlands,1,19,ITC,neutral,10,right,3,ITC_start,2608,space,0,0,439,184576,561801
16,18,female,Nederlands,1,19,ITC,neutral,10,right,3,ITC_choice,686,j,0,0,439,183885,562492
16,18,female,Nederlands,1,19,ITC,neutral,10,right,3,ITC_wait,0,undefined,0,0,439,173870,572507
16,18,female,Nederlands,1,19,ITC,neutral,10,right,3,ITC_collect,1131,k,0,0,439,172735,573642
16,18,female,Nederlands,1,19,ITC,neutral,10,right,3,ITC_outcome,0,undefined,0,0,459,171729,574648
16,18,female,Nederlands,1,20,guess,win,5,right,11,guess_start,729,space,0,0,459,170995,575382
16,18,female,Nederlands,1,20,guess,win,5,right,11,guess_choice,754,f,0,0,459,170234,576143
16,18,female,Nederlands,1,20,guess,win,5,right,11,guess_outcome,0,undefined,0,0,479,168669,577708
16,18,female,Nederlands,1,20,ITC,win,5,right,11,ITC_start,1030,space,0,0,479,167635,578742
16,18,female,Nederlands,1,20,ITC,win,5,right,11,ITC_choice,1705,j,0,0,479,165925,580452
16,18,female,Nederlands,1,20,ITC,win,5,right,11,ITC_wait,0,undefined,0,0,479,160920,585457
16,18,female,Nederlands,1,20,ITC,win,5,right,11,ITC_collect,9219,k,0,0,479,151695,594682
16,18,female,Nederlands,1,20,ITC,win,5,right,11,ITC_outcome,0,undefined,0,0,499,150682,595695
16,18,female,Nederlands,1,21,guess,neutral,10,right,5,guess_start,1072,space,0,0,499,149606,596771
16,18,female,Nederlands,1,21,guess,neutral,10,right,5,guess_choice,1166,j,0,0,499,148435,597942
16,18,female,Nederlands,1,21,guess,neutral,10,right,5,guess_outcome,0,undefined,0,0,499,146872,599505
16,18,female,Nederlands,1,21,ITC,neutral,10,right,5,ITC_start,2914,space,0,0,499,143954,602423
16,18,female,Nederlands,1,21,ITC,neutral,10,right,5,ITC_choice,1235,j,0,0,499,142716,603661
16,18,female,Nederlands,1,21,ITC,neutral,10,right,5,ITC_wait,0,undefined,0,0,499,132707,613670
16,18,female,Nederlands,1,21,ITC,neutral,10,right,5,ITC_collect,7179,k,0,0,499,125525,620852
16,18,female,Nederlands,1,21,ITC,neutral,10,right,5,ITC_outcome,0,undefined,0,0,519,124515,621862
16,18,female,Nederlands,1,22,guess,neutral,5,left,16,guess_start,706,space,0,0,519,123807,622570
16,18,female,Nederlands,1,22,guess,neutral,5,left,16,guess_choice,929,j,0,0,519,122874,623503
16,18,female,Nederlands,1,22,guess,neutral,5,left,16,guess_outcome,0,undefined,0,0,519,121315,625062
16,18,female,Nederlands,1,22,ITC,neutral,5,left,16,ITC_start,3468,space,0,0,519,117845,628532
16,18,female,Nederlands,1,22,ITC,neutral,5,left,16,ITC_choice,1265,f,0,0,519,116575,629802
16,18,female,Nederlands,1,22,ITC,neutral,5,left,16,ITC_wait,0,undefined,0,0,519,111571,634806
16,18,female,Nederlands,1,22,ITC,neutral,5,left,16,ITC_collect,1003,k,0,0,519,110565,635812
16,18,female,Nederlands,1,22,ITC,neutral,5,left,16,ITC_outcome,0,undefined,0,0,539,109550,636827
16,18,female,Nederlands,1,23,guess,win,5,left,9,guess_start,701,space,0,0,539,108846,637531
16,18,female,Nederlands,1,23,guess,win,5,left,9,guess_choice,955,f,0,0,539,107885,638492
16,18,female,Nederlands,1,23,guess,win,5,left,9,guess_outcome,0,undefined,0,0,559,106320,640057
16,18,female,Nederlands,1,23,ITC,win,5,left,9,ITC_start,662,space,0,0,559,105656,640721
16,18,female,Nederlands,1,23,ITC,win,5,left,9,ITC_choice,1168,f,0,0,559,104485,641892
16,18,female,Nederlands,1,23,ITC,win,5,left,9,ITC_wait,0,undefined,0,0,559,99481,646896
16,18,female,Nederlands,1,23,ITC,win,5,left,9,ITC_collect,1472,k,0,0,559,98005,648372
16,18,female,Nederlands,1,23,ITC,win,5,left,9,ITC_outcome,0,undefined,0,0,579,97000,649377
16,18,female,Nederlands,1,24,guess,win,5,right,5,guess_start,983,space,0,0,579,96015,650362
16,18,female,Nederlands,1,24,guess,win,5,right,5,guess_choice,965,j,0,0,579,95045,651332
16,18,female,Nederlands,1,24,guess,win,5,right,5,guess_outcome,0,undefined,0,0,599,93480,652897
16,18,female,Nederlands,1,24,ITC,win,5,right,5,ITC_start,973,space,0,0,599,92505,653872
16,18,female,Nederlands,1,24,ITC,win,5,right,5,ITC_choice,1288,j,0,0,599,91216,655161
16,18,female,Nederlands,1,24,ITC,win,5,right,5,ITC_wait,0,undefined,0,0,599,86211,660166
16,18,female,Nederlands,1,24,ITC,win,5,right,5,ITC_collect,1193,k,0,0,599,85015,661362
16,18,female,Nederlands,1,24,ITC,win,5,right,5,ITC_outcome,0,undefined,0,0,619,84010,662367
16,18,female,Nederlands,1,25,guess,neutral,10,left,1,guess_start,1352,space,0,0,619,82655,663722
16,18,female,Nederlands,1,25,guess,neutral,10,left,1,guess_choice,765,f,0,0,619,81885,664492
16,18,female,Nederlands,1,25,guess,neutral,10,left,1,guess_outcome,0,undefined,0,0,619,80319,666058
16,18,female,Nederlands,1,25,ITC,neutral,10,left,1,ITC_start,1142,space,0,0,619,79175,667202
16,18,female,Nederlands,1,25,ITC,neutral,10,left,1,ITC_choice,1357,j,0,0,619,77816,668561
16,18,female,Nederlands,1,25,ITC,neutral,10,left,1,ITC_wait,0,undefined,0,0,619,77813,668564
16,18,female,Nederlands,1,25,ITC,neutral,10,left,1,ITC_collect,2127,k,0,0,619,75683,670694
16,18,female,Nederlands,1,25,ITC,neutral,10,left,1,ITC_outcome,0,undefined,0,0,620,74670,671707
16,18,female,Nederlands,1,26,guess,loss,5,left,3,guess_start,762,space,0,0,620,73894,672483
16,18,female,Nederlands,1,26,guess,loss,5,left,3,guess_choice,793,f,0,0,620,73094,673283
16,18,female,Nederlands,1,26,guess,loss,5,left,3,guess_outcome,0,undefined,0,0,605,71530,674847
16,18,female,Nederlands,1,26,ITC,loss,5,left,3,ITC_start,1282,space,0,0,605,70244,676133
16,18,female,Nederlands,1,26,ITC,loss,5,left,3,ITC_choice,1165,f,0,0,605,69074,677303
16,18,female,Nederlands,1,26,ITC,loss,5,left,3,ITC_wait,0,undefined,0,0,605,64060,682317
16,18,female,Nederlands,1,26,ITC,loss,5,left,3,ITC_collect,712,k,0,0,605,63343,683034
16,18,female,Nederlands,1,26,ITC,loss,5,left,3,ITC_outcome,0,undefined,0,0,625,62331,684046
16,18,female,Nederlands,1,27,guess,loss,10,right,8,guess_start,873,space,0,0,625,61454,684923
16,18,female,Nederlands,1,27,guess,loss,10,right,8,guess_choice,832,f,0,0,625,60614,685763
16,18,female,Nederlands,1,27,guess,loss,10,right,8,guess_outcome,0,undefined,0,0,610,59050,687327
16,18,female,Nederlands,1,27,ITC,loss,10,right,8,ITC_start,1403,space,0,0,610,57644,688733
16,18,female,Nederlands,1,27,ITC,loss,10,right,8,ITC_choice,1955,j,0,0,610,55684,690693
16,18,female,Nederlands,1,27,ITC,loss,10,right,8,ITC_wait,0,undefined,0,0,610,45672,700705
16,18,female,Nederlands,1,27,ITC,loss,10,right,8,ITC_collect,1273,k,0,0,610,44394,701983
16,18,female,Nederlands,1,27,ITC,loss,10,right,8,ITC_outcome,0,undefined,0,0,630,43380,702997
16,18,female,Nederlands,1,28,guess,loss,10,right,2,guess_start,558,space,0,0,630,42813,703564
16,18,female,Nederlands,1,28,guess,loss,10,right,2,guess_choice,932,j,0,0,630,41873,704504
16,18,female,Nederlands,1,28,guess,loss,10,right,2,guess_outcome,0,undefined,0,0,615,40309,706068
16,18,female,Nederlands,1,28,ITC,loss,10,right,2,ITC_start,1403,space,0,0,615,38904,707473
16,18,female,Nederlands,1,28,ITC,loss,10,right,2,ITC_choice,1545,f,0,0,615,37355,709022
16,18,female,Nederlands,1,28,ITC,loss,10,right,2,ITC_wait,0,undefined,0,0,615,37348,709029
16,18,female,Nederlands,1,28,ITC,loss,10,right,2,ITC_collect,1512,k,0,0,615,35834,710543
16,18,female,Nederlands,1,28,ITC,loss,10,right,2,ITC_outcome,0,undefined,0,0,617,34819,711558
16,18,female,Nederlands,1,29,guess,loss,10,right,1,guess_start,519,space,0,0,617,34294,712083
16,18,female,Nederlands,1,29,guess,loss,10,right,1,guess_choice,695,f,0,0,617,33593,712784
16,18,female,Nederlands,1,29,guess,loss,10,right,1,guess_outcome,0,undefined,0,0,602,32029,714348
16,18,female,Nederlands,1,29,ITC,loss,10,right,1,ITC_start,1743,space,0,0,602,30284,716093
16,18,female,Nederlands,1,29,ITC,loss,10,right,1,ITC_choice,1126,j,0,0,602,29154,717223
16,18,female,Nederlands,1,29,ITC,loss,10,right,1,ITC_wait,0,undefined,0,0,602,19148,727229
16,18,female,Nederlands,1,29,ITC,loss,10,right,1,ITC_collect,5252,k,0,0,602,13892,732485
16,18,female,Nederlands,1,29,ITC,loss,10,right,1,ITC_outcome,0,undefined,0,0,622,12882,733495
16,18,female,Nederlands,1,30,guess,loss,5,left,8,guess_start,786,space,0,0,622,12093,734284
16,18,female,Nederlands,1,30,guess,loss,5,left,8,guess_choice,690,f,0,0,622,11392,734985
16,18,female,Nederlands,1,30,guess,loss,5,left,8,guess_outcome,0,undefined,0,0,607,9831,736546
16,18,female,Nederlands,1,30,ITC,loss,5,left,8,ITC_start,1855,space,0,0,607,7972,738405
16,18,female,Nederlands,1,30,ITC,loss,5,left,8,ITC_choice,2256,f,0,0,607,5712,740665
16,18,female,Nederlands,1,30,ITC,loss,5,left,8,ITC_wait,0,undefined,0,0,607,702,745675
16,18,female,Nederlands,1,30,ITC,loss,5,left,8,ITC_collect,0,undefined,0,0,607,-8,746385
16,18,female,Nederlands,2,31,guess,win,10,right,6,guess_start,912,space,0,0,0,479087,761313
16,18,female,Nederlands,2,31,guess,win,10,right,6,guess_choice,1693,f,0,0,0,477385,763015
16,18,female,Nederlands,2,31,guess,win,10,right,6,guess_outcome,0,undefined,0,0,20,475814,764586
16,18,female,Nederlands,2,31,ITC,win,10,right,6,ITC_start,625,space,0,0,20,475186,765214
16,18,female,Nederlands,2,31,ITC,win,10,right,6,ITC_choice,756,j,0,0,20,474426,765974
16,18,female,Nederlands,2,31,ITC,win,10,right,6,ITC_wait,0,undefined,0,0,20,464414,775986
16,18,female,Nederlands,2,31,ITC,win,10,right,6,ITC_collect,1354,k,0,0,20,463056,777344
16,18,female,Nederlands,2,31,ITC,win,10,right,6,ITC_outcome,0,undefined,0,0,40,462039,778361
16,18,female,Nederlands,2,32,guess,win,10,left,7,guess_start,707,space,0,0,40,461326,779074
16,18,female,Nederlands,2,32,guess,win,10,left,7,guess_choice,824,f,0,0,40,460496,779904
16,18,female,Nederlands,2,32,guess,win,10,left,7,guess_outcome,0,undefined,0,0,60,458930,781470
16,18,female,Nederlands,2,32,ITC,win,10,left,7,ITC_start,1031,space,0,0,60,457894,782506
16,18,female,Nederlands,2,32,ITC,win,10,left,7,ITC_choice,944,j,0,0,60,456946,783454
16,18,female,Nederlands,2,32,ITC,win,10,left,7,ITC_wait,0,undefined,0,0,60,456939,783461
16,18,female,Nederlands,2,32,ITC,win,10,left,7,ITC_collect,1127,k,0,0,60,455807,784593
16,18,female,Nederlands,2,32,ITC,win,10,left,7,ITC_outcome,0,undefined,0,0,67,454799,785601
16,18,female,Nederlands,2,33,guess,win,5,right,14,guess_start,410,space,0,0,67,454385,786015
16,18,female,Nederlands,2,33,guess,win,5,right,14,guess_choice,679,f,0,0,67,453695,786705
16,18,female,Nederlands,2,33,guess,win,5,right,14,guess_outcome,0,undefined,0,0,87,452129,788271
16,18,female,Nederlands,2,33,ITC,win,5,right,14,ITC_start,510,space,0,0,87,451616,788784
16,18,female,Nederlands,2,33,ITC,win,5,right,14,ITC_wait,0,undefined,0,0,87,450459,789941
16,18,female,Nederlands,2,33,ITC,win,5,right,14,ITC_choice,1146,f,0,0,87,450466,789934
16,18,female,Nederlands,2,33,ITC,win,5,right,14,ITC_collect,1359,k,0,0,87,449096,791304
16,18,female,Nederlands,2,33,ITC,win,5,right,14,ITC_outcome,0,undefined,0,0,101,448081,792319
16,18,female,Nederlands,2,34,guess,neutral,10,left,4,guess_start,581,space,0,0,101,447496,792904
16,18,female,Nederlands,2,34,guess,neutral,10,left,4,guess_choice,681,f,0,0,101,446806,793594
16,18,female,Nederlands,2,34,guess,neutral,10,left,4,guess_outcome,0,undefined,0,0,101,445239,795161
16,18,female,Nederlands,2,34,ITC,neutral,10,left,4,ITC_start,1011,space,0,0,101,444225,796175
16,18,female,Nederlands,2,34,ITC,neutral,10,left,4,ITC_choice,1125,j,0,0,101,443095,797305
16,18,female,Nederlands,2,34,ITC,neutral,10,left,4,ITC_wait,0,undefined,0,0,101,443086,797314
16,18,female,Nederlands,2,34,ITC,neutral,10,left,4,ITC_collect,1407,k,0,0,101,441675,798725
16,18,female,Nederlands,2,34,ITC,neutral,10,left,4,ITC_outcome,0,undefined,0,0,105,440659,799741
16,18,female,Nederlands,2,35,guess,neutral,5,left,3,guess_start,641,space,0,0,105,440014,800386
16,18,female,Nederlands,2,35,guess,neutral,5,left,3,guess_choice,710,f,0,0,105,439295,801105
16,18,female,Nederlands,2,35,guess,neutral,5,left,3,guess_outcome,0,undefined,0,0,105,437730,802670
16,18,female,Nederlands,2,35,ITC,neutral,5,left,3,ITC_start,320,space,0,0,105,437405,802995
16,18,female,Nederlands,2,35,ITC,neutral,5,left,3,ITC_choice,1056,j,0,0,105,436346,804054
16,18,female,Nederlands,2,35,ITC,neutral,5,left,3,ITC_wait,0,undefined,0,0,105,436343,804057
16,18,female,Nederlands,2,35,ITC,neutral,5,left,3,ITC_collect,1075,k,0,0,105,435265,805135
16,18,female,Nederlands,2,35,ITC,neutral,5,left,3,ITC_outcome,0,undefined,0,0,108,434250,806150
16,18,female,Nederlands,2,36,guess,loss,5,left,11,guess_start,410,space,0,0,108,433835,806565
16,18,female,Nederlands,2,36,guess,loss,5,left,11,guess_choice,1259,j,0,0,108,432565,807835
16,18,female,Nederlands,2,36,guess,loss,5,left,11,guess_outcome,0,undefined,0,0,93,431004,809396
16,18,female,Nederlands,2,36,ITC,loss,5,left,11,ITC_start,706,space,0,0,93,430294,810106
16,18,female,Nederlands,2,36,ITC,loss,5,left,11,ITC_choice,1675,f,0,0,93,428614,811786
16,18,female,Nederlands,2,36,ITC,loss,5,left,11,ITC_wait,0,undefined,0,0,93,423610,816790
16,18,female,Nederlands,2,36,ITC,loss,5,left,11,ITC_collect,1582,k,0,0,93,422024,818376
16,18,female,Nederlands,2,36,ITC,loss,5,left,11,ITC_outcome,0,undefined,0,0,113,421015,819385
16,18,female,Nederlands,2,37,guess,win,5,right,12,guess_start,1196,space,0,0,113,419814,820586
16,18,female,Nederlands,2,37,guess,win,5,right,12,guess_choice,1180,j,0,0,113,418624,821776
16,18,female,Nederlands,2,37,guess,win,5,right,12,guess_outcome,0,undefined,0,0,133,417065,823335
16,18,female,Nederlands,2,37,ITC,win,5,right,12,ITC_start,606,space,0,0,133,416456,823944
16,18,female,Nederlands,2,37,ITC,win,5,right,12,ITC_choice,1145,f,0,0,133,415305,825095
16,18,female,Nederlands,2,37,ITC,win,5,right,12,ITC_wait,0,undefined,0,0,133,415299,825101
16,18,female,Nederlands,2,37,ITC,win,5,right,12,ITC_collect,4969,k,0,0,133,410325,830075
16,18,female,Nederlands,2,37,ITC,win,5,right,12,ITC_outcome,0,undefined,0,0,145,409315,831085
16,18,female,Nederlands,2,38,guess,win,5,left,13,guess_start,566,space,0,0,145,408744,831656
16,18,female,Nederlands,2,38,guess,win,5,left,13,guess_choice,681,f,0,0,145,408055,832345
16,18,female,Nederlands,2,38,guess,win,5,left,13,guess_outcome,0,undefined,0,0,165,406496,833904
16,18,female,Nederlands,2,38,ITC,win,5,left,13,ITC_start,907,space,0,0,165,405586,834814
16,18,female,Nederlands,2,38,ITC,win,5,left,13,ITC_choice,1847,j,0,0,165,403735,836665
16,18,female,Nederlands,2,38,ITC,win,5,left,13,ITC_wait,0,undefined,0,0,165,403726,836674
16,18,female,Nederlands,2,38,ITC,win,5,left,13,ITC_collect,1016,k,0,0,165,402705,837695
16,18,female,Nederlands,2,38,ITC,win,5,left,13,ITC_outcome,0,undefined,0,0,178,401696,838704
16,18,female,Nederlands,2,39,guess,neutral,10,left,6,guess_start,556,space,0,0,178,401135,839265
16,18,female,Nederlands,2,39,guess,neutral,10,left,6,guess_choice,1044,j,0,0,178,400084,840316
16,18,female,Nederlands,2,39,guess,neutral,10,left,6,guess_outcome,0,undefined,0,0,178,398525,841875
16,18,female,Nederlands,2,39,ITC,neutral,10,left,6,ITC_start,988,space,0,0,178,397535,842865
16,18,female,Nederlands,2,39,ITC,neutral,10,left,6,ITC_choice,1186,f,0,0,178,396344,844056
16,18,female,Nederlands,2,39,ITC,neutral,10,left,6,ITC_wait,0,undefined,0,0,178,386339,854061
16,18,female,Nederlands,2,39,ITC,neutral,10,left,6,ITC_collect,1290,k,0,0,178,385045,855355
16,18,female,Nederlands,2,39,ITC,neutral,10,left,6,ITC_outcome,0,undefined,0,0,198,384031,856369
16,18,female,Nederlands,2,40,guess,loss,5,right,16,guess_start,729,space,0,0,198,383295,857105
16,18,female,Nederlands,2,40,guess,loss,5,right,16,guess_choice,1063,f,0,0,198,382225,858175
16,18,female,Nederlands,2,40,guess,loss,5,right,16,guess_outcome,0,undefined,0,0,183,380661,859739
16,18,female,Nederlands,2,40,ITC,loss,5,right,16,ITC_start,743,space,0,0,183,379915,860485
16,18,female,Nederlands,2,40,ITC,loss,5,right,16,ITC_choice,795,f,0,0,183,379115,861285
16,18,female,Nederlands,2,40,ITC,loss,5,right,16,ITC_wait,0,undefined,0,0,183,379110,861290
16,18,female,Nederlands,2,40,ITC,loss,5,right,16,ITC_collect,2041,k,0,0,183,377065,863335
16,18,female,Nederlands,2,40,ITC,loss,5,right,16,ITC_outcome,0,undefined,0,0,199,376054,864346
16,18,female,Nederlands,2,41,guess,neutral,5,left,4,guess_start,523,space,0,0,199,375526,864874
16,18,female,Nederlands,2,41,guess,neutral,5,left,4,guess_choice,953,f,0,0,199,374565,865835
16,18,female,Nederlands,2,41,guess,neutral,5,left,4,guess_outcome,0,undefined,0,0,199,373002,867398
16,18,female,Nederlands,2,41,ITC,neutral,5,left,4,ITC_start,1031,space,0,0,199,371966,868434
16,18,female,Nederlands,2,41,ITC,neutral,5,left,4,ITC_choice,1425,f,0,0,199,370536,869864
16,18,female,Nederlands,2,41,ITC,neutral,5,left,4,ITC_wait,0,undefined,0,0,199,365522,874878
16,18,female,Nederlands,2,41,ITC,neutral,5,left,4,ITC_collect,914,k,0,0,199,364604,875796
16,18,female,Nederlands,2,41,ITC,neutral,5,left,4,ITC_outcome,0,undefined,0,0,219,363591,876809
16,18,female,Nederlands,2,42,guess,neutral,5,right,1,guess_start,573,space,0,0,219,363013,877387
16,18,female,Nederlands,2,42,guess,neutral,5,right,1,guess_choice,623,f,0,0,219,362383,878017
16,18,female,Nederlands,2,42,guess,neutral,5,right,1,guess_outcome,0,undefined,0,0,219,360824,879576
16,18,female,Nederlands,2,42,ITC,neutral,5,right,1,ITC_start,543,space,0,0,219,360274,880126
16,18,female,Nederlands,2,42,ITC,neutral,5,right,1,ITC_choice,2034,j,0,0,219,358235,882165
16,18,female,Nederlands,2,42,ITC,neutral,5,right,1,ITC_wait,0,undefined,0,0,219,353222,887178
16,18,female,Nederlands,2,42,ITC,neutral,5,right,1,ITC_collect,1264,k,0,0,219,351955,888445
16,18,female,Nederlands,2,42,ITC,neutral,5,right,1,ITC_outcome,0,undefined,0,0,239,350942,889458
16,18,female,Nederlands,2,43,guess,neutral,10,left,8,guess_start,561,space,0,0,239,350375,890025
16,18,female,Nederlands,2,43,guess,neutral,10,left,8,guess_choice,682,f,0,0,239,349684,890716
16,18,female,Nederlands,2,43,guess,neutral,10,left,8,guess_outcome,0,undefined,0,0,239,348122,892278
16,18,female,Nederlands,2,43,ITC,neutral,10,left,8,ITC_start,324,space,0,0,239,347795,892605
16,18,female,Nederlands,2,43,ITC,neutral,10,left,8,ITC_choice,1637,j,0,0,239,346155,894245
16,18,female,Nederlands,2,43,ITC,neutral,10,left,8,ITC_wait,0,undefined,0,0,239,346150,894250
16,18,female,Nederlands,2,43,ITC,neutral,10,left,8,ITC_collect,1018,k,0,0,239,345125,895275
16,18,female,Nederlands,2,43,ITC,neutral,10,left,8,ITC_outcome,0,undefined,0,0,247,344112,896288
16,18,female,Nederlands,2,44,guess,neutral,5,right,12,guess_start,632,space,0,0,247,343476,896924
16,18,female,Nederlands,2,44,guess,neutral,5,right,12,guess_choice,897,j,0,0,247,342576,897824
16,18,female,Nederlands,2,44,guess,neutral,5,right,12,guess_outcome,0,undefined,0,0,247,341013,899387
16,18,female,Nederlands,2,44,ITC,neutral,5,right,12,ITC_start,654,space,0,0,247,340356,900044
16,18,female,Nederlands,2,44,ITC,neutral,5,right,12,ITC_choice,1488,f,0,0,247,338866,901534
16,18,female,Nederlands,2,44,ITC,neutral,5,right,12,ITC_wait,0,undefined,0,0,247,338863,901537
16,18,female,Nederlands,2,44,ITC,neutral,5,right,12,ITC_collect,1086,k,0,0,247,337775,902625
16,18,female,Nederlands,2,44,ITC,neutral,5,right,12,ITC_outcome,0,undefined,0,0,259,336762,903638
16,18,female,Nederlands,2,45,guess,loss,10,left,5,guess_start,594,space,0,0,259,336164,904236
16,18,female,Nederlands,2,45,guess,loss,10,left,5,guess_choice,1038,f,0,0,259,335110,905290
16,18,female,Nederlands,2,45,guess,loss,10,left,5,guess_outcome,0,undefined,0,0,244,333541,906859
16,18,female,Nederlands,2,45,ITC,loss,10,left,5,ITC_start,713,space,0,0,244,332824,907576
16,18,female,Nederlands,2,45,ITC,loss,10,left,5,ITC_choice,1064,f,0,0,244,331755,908645
16,18,female,Nederlands,2,45,ITC,loss,10,left,5,ITC_wait,0,undefined,0,0,244,321744,918656
16,18,female,Nederlands,2,45,ITC,loss,10,left,5,ITC_collect,1544,k,0,0,244,320195,920205
16,18,female,Nederlands,2,45,ITC,loss,10,left,5,ITC_outcome,0,undefined,0,0,264,319180,921220
16,18,female,Nederlands,2,46,guess,win,5,right,2,guess_start,670,space,0,0,264,318505,921895
16,18,female,Nederlands,2,46,guess,win,5,right,2,guess_choice,740,f,0,0,264,317754,922646
16,18,female,Nederlands,2,46,guess,win,5,right,2,guess_outcome,0,undefined,0,0,284,316190,924210
16,18,female,Nederlands,2,46,ITC,win,5,right,2,ITC_start,1091,space,0,0,284,315094,925306
16,18,female,Nederlands,2,46,ITC,win,5,right,2,ITC_choice,1365,f,0,0,284,313725,926675
16,18,female,Nederlands,2,46,ITC,win,5,right,2,ITC_wait,0,undefined,0,0,284,313717,926683
16,18,female,Nederlands,2,46,ITC,win,5,right,2,ITC_collect,2328,k,0,0,284,311385,929015
16,18,female,Nederlands,2,46,ITC,win,5,right,2,ITC_outcome,0,undefined,0,0,286,310371,930029
16,18,female,Nederlands,2,47,guess,win,5,right,15,guess_start,611,space,0,0,286,309754,930646
16,18,female,Nederlands,2,47,guess,win,5,right,15,guess_choice,890,f,0,0,286,308854,931546
16,18,female,Nederlands,2,47,guess,win,5,right,15,guess_outcome,0,undefined,0,0,306,307290,933110
16,18,female,Nederlands,2,47,ITC,win,5,right,15,ITC_start,1,space,0,0,306,307284,933116
16,18,female,Nederlands,2,47,ITC,win,5,right,15,ITC_choice,1526,f,0,0,306,305754,934646
16,18,female,Nederlands,2,47,ITC,win,5,right,15,ITC_wait,0,undefined,0,0,306,305743,934657
16,18,female,Nederlands,2,47,ITC,win,5,right,15,ITC_collect,1063,k,0,0,306,304674,935726
16,18,female,Nederlands,2,47,ITC,win,5,right,15,ITC_outcome,0,undefined,0,0,321,303660,936740
16,18,female,Nederlands,2,48,guess,loss,5,left,2,guess_start,591,space,0,0,321,303064,937336
16,18,female,Nederlands,2,48,guess,loss,5,left,2,guess_choice,1351,j,0,0,321,301705,938695
16,18,female,Nederlands,2,48,guess,loss,5,left,2,guess_outcome,0,undefined,0,0,306,300140,940260
16,18,female,Nederlands,2,48,ITC,loss,5,left,2,ITC_start,641,space,0,0,306,299495,940905
16,18,female,Nederlands,2,48,ITC,loss,5,left,2,ITC_choice,1016,f,0,0,306,298475,941925
16,18,female,Nederlands,2,48,ITC,loss,5,left,2,ITC_wait,0,undefined,0,0,306,293470,946930
16,18,female,Nederlands,2,48,ITC,loss,5,left,2,ITC_collect,3412,k,0,0,306,290053,950347
16,18,female,Nederlands,2,48,ITC,loss,5,left,2,ITC_outcome,0,undefined,0,0,326,289043,951357
16,18,female,Nederlands,2,49,guess,neutral,5,left,10,guess_start,645,space,0,0,326,288392,952008
16,18,female,Nederlands,2,49,guess,neutral,5,left,10,guess_choice,1073,j,0,0,326,287311,953089
16,18,female,Nederlands,2,49,guess,neutral,5,left,10,guess_outcome,0,undefined,0,0,326,285742,954658
16,18,female,Nederlands,2,49,ITC,neutral,5,left,10,ITC_start,1367,space,0,0,326,284371,956029
16,18,female,Nederlands,2,49,ITC,neutral,5,left,10,ITC_choice,1911,j,0,0,326,282453,957947
16,18,female,Nederlands,2,49,ITC,neutral,5,left,10,ITC_wait,0,undefined,0,0,326,282448,957952
16,18,female,Nederlands,2,49,ITC,neutral,5,left,10,ITC_collect,1146,k,0,0,326,281295,959105
16,18,female,Nederlands,2,49,ITC,neutral,5,left,10,ITC_outcome,0,undefined,0,0,336,280283,960117
16,18,female,Nederlands,2,50,guess,neutral,5,left,7,guess_start,665,space,0,0,336,279612,960788
16,18,female,Nederlands,2,50,guess,neutral,5,left,7,guess_choice,650,f,0,0,336,278952,961448
16,18,female,Nederlands,2,50,guess,neutral,5,left,7,guess_outcome,0,undefined,0,0,336,277382,963018
16,18,female,Nederlands,2,50,ITC,neutral,5,left,7,ITC_start,746,space,0,0,336,276632,963768
16,18,female,Nederlands,2,50,ITC,neutral,5,left,7,ITC_choice,916,f,0,0,336,275712,964688
16,18,female,Nederlands,2,50,ITC,neutral,5,left,7,ITC_wait,0,undefined,0,0,336,270703,969697
16,18,female,Nederlands,2,50,ITC,neutral,5,left,7,ITC_collect,1196,k,0,0,336,269503,970897
16,18,female,Nederlands,2,50,ITC,neutral,5,left,7,ITC_outcome,0,undefined,0,0,356,268492,971908
16,18,female,Nederlands,2,51,guess,win,5,right,8,guess_start,645,space,0,0,356,267843,972557
16,18,female,Nederlands,2,51,guess,win,5,right,8,guess_choice,672,f,0,0,356,267162,973238
16,18,female,Nederlands,2,51,guess,win,5,right,8,guess_outcome,0,undefined,0,0,376,265602,974798
16,18,female,Nederlands,2,51,ITC,win,5,right,8,ITC_start,506,space,0,0,376,265093,975307
16,18,female,Nederlands,2,51,ITC,win,5,right,8,ITC_choice,1376,j,0,0,376,263713,976687
16,18,female,Nederlands,2,51,ITC,win,5,right,8,ITC_wait,0,undefined,0,0,376,258708,981692
16,18,female,Nederlands,2,51,ITC,win,5,right,8,ITC_collect,781,k,0,0,376,257923,982477
16,18,female,Nederlands,2,51,ITC,win,5,right,8,ITC_outcome,0,undefined,0,0,396,256912,983488
16,18,female,Nederlands,2,52,guess,win,5,left,3,guess_start,555,space,0,0,396,256352,984048
16,18,female,Nederlands,2,52,guess,win,5,left,3,guess_choice,630,f,0,0,396,255712,984688
16,18,female,Nederlands,2,52,guess,win,5,left,3,guess_outcome,0,undefined,0,0,416,254152,986248
16,18,female,Nederlands,2,52,ITC,win,5,left,3,ITC_start,816,space,0,0,416,253332,987068
16,18,female,Nederlands,2,52,ITC,win,5,left,3,ITC_choice,1743,f,0,0,416,251584,988816
16,18,female,Nederlands,2,52,ITC,win,5,left,3,ITC_wait,0,undefined,0,0,416,246573,993827
16,18,female,Nederlands,2,52,ITC,win,5,left,3,ITC_collect,1227,k,0,0,416,245342,995058
16,18,female,Nederlands,2,52,ITC,win,5,left,3,ITC_outcome,0,undefined,0,0,436,244333,996067
16,18,female,Nederlands,2,53,guess,neutral,10,left,7,guess_start,595,space,0,0,436,243733,996667
16,18,female,Nederlands,2,53,guess,neutral,10,left,7,guess_choice,562,f,0,0,436,243161,997239
16,18,female,Nederlands,2,53,guess,neutral,10,left,7,guess_outcome,0,undefined,0,0,436,241592,998808
16,18,female,Nederlands,2,53,ITC,neutral,10,left,7,ITC_start,706,space,0,0,436,240883,999517
16,18,female,Nederlands,2,53,ITC,neutral,10,left,7,ITC_choice,854,f,0,0,436,240023,1000377
16,18,female,Nederlands,2,53,ITC,neutral,10,left,7,ITC_wait,0,undefined,0,0,436,230009,1010391
16,18,female,Nederlands,2,53,ITC,neutral,10,left,7,ITC_collect,1423,k,0,0,436,228583,1011817
16,18,female,Nederlands,2,53,ITC,neutral,10,left,7,ITC_outcome,0,undefined,0,0,456,227573,1012827
16,18,female,Nederlands,2,54,guess,loss,10,right,7,guess_start,656,space,0,0,456,226913,1013487
16,18,female,Nederlands,2,54,guess,loss,10,right,7,guess_choice,789,f,0,0,456,226112,1014288
16,18,female,Nederlands,2,54,guess,loss,10,right,7,guess_outcome,0,undefined,0,0,441,224547,1015853
16,18,female,Nederlands,2,54,ITC,loss,10,right,7,ITC_start,870,space,0,0,441,223673,1016727
16,18,female,Nederlands,2,54,ITC,loss,10,right,7,ITC_choice,1706,f,0,0,441,221963,1018437
16,18,female,Nederlands,2,54,ITC,loss,10,right,7,ITC_wait,0,undefined,0,0,441,221958,1018442
16,18,female,Nederlands,2,54,ITC,loss,10,right,7,ITC_collect,2158,k,0,0,441,219794,1020606
16,18,female,Nederlands,2,54,ITC,loss,10,right,7,ITC_outcome,0,undefined,0,0,448,218777,1021623
16,18,female,Nederlands,2,55,guess,loss,10,right,4,guess_start,551,space,0,0,448,218222,1022178
16,18,female,Nederlands,2,55,guess,loss,10,right,4,guess_choice,1179,j,0,0,448,217033,1023367
16,18,female,Nederlands,2,55,guess,loss,10,right,4,guess_outcome,0,undefined,0,0,433,215467,1024933
16,18,female,Nederlands,2,55,ITC,loss,10,right,4,ITC_start,552,space,0,0,433,214912,1025488
16,18,female,Nederlands,2,55,ITC,loss,10,right,4,ITC_choice,814,f,0,0,433,214093,1026307
16,18,female,Nederlands,2,55,ITC,loss,10,right,4,ITC_wait,0,undefined,0,0,433,214087,1026313
16,18,female,Nederlands,2,55,ITC,loss,10,right,4,ITC_collect,1560,k,0,0,433,212522,1027878
16,18,female,Nederlands,2,55,ITC,loss,10,right,4,ITC_outcome,0,undefined,0,0,437,211507,1028893
16,18,female,Nederlands,2,56,guess,win,5,right,4,guess_start,518,space,0,0,437,210983,1029417
16,18,female,Nederlands,2,56,guess,win,5,right,4,guess_choice,673,f,0,0,437,210301,1030099
16,18,female,Nederlands,2,56,guess,win,5,right,4,guess_outcome,0,undefined,0,0,457,208737,1031663
16,18,female,Nederlands,2,56,ITC,win,5,right,4,ITC_start,511,space,0,0,457,208222,1032178
16,18,female,Nederlands,2,56,ITC,win,5,right,4,ITC_choice,1775,j,0,0,457,206441,1033959
16,18,female,Nederlands,2,56,ITC,win,5,right,4,ITC_wait,0,undefined,0,0,457,201428,1038972
16,18,female,Nederlands,2,56,ITC,win,5,right,4,ITC_collect,781,k,0,0,457,200642,1039758
16,18,female,Nederlands,2,56,ITC,win,5,right,4,ITC_outcome,0,undefined,0,0,477,199627,1040773
16,18,female,Nederlands,2,57,guess,loss,5,left,1,guess_start,710,space,0,0,477,198913,1041487
16,18,female,Nederlands,2,57,guess,loss,5,left,1,guess_choice,732,f,0,0,477,198172,1042228
16,18,female,Nederlands,2,57,guess,loss,5,left,1,guess_outcome,0,undefined,0,0,462,196610,1043790
16,18,female,Nederlands,2,57,ITC,loss,5,left,1,ITC_start,574,space,0,0,462,196032,1044368
16,18,female,Nederlands,2,57,ITC,loss,5,left,1,ITC_choice,1606,f,0,0,462,194422,1045978
16,18,female,Nederlands,2,57,ITC,loss,5,left,1,ITC_wait,0,undefined,0,0,462,189418,1050982
16,18,female,Nederlands,2,57,ITC,loss,5,left,1,ITC_collect,892,k,0,0,462,188522,1051878
16,18,female,Nederlands,2,57,ITC,loss,5,left,1,ITC_outcome,0,undefined,0,0,482,187507,1052893
16,18,female,Nederlands,2,58,guess,neutral,5,right,5,guess_start,582,space,0,0,482,186922,1053478
16,18,female,Nederlands,2,58,guess,neutral,5,right,5,guess_choice,1723,f,0,0,482,185191,1055209
16,18,female,Nederlands,2,58,guess,neutral,5,right,5,guess_outcome,0,undefined,0,0,482,183627,1056773
16,18,female,Nederlands,2,58,ITC,neutral,5,right,5,ITC_start,612,space,0,0,482,183012,1057388
16,18,female,Nederlands,2,58,ITC,neutral,5,right,5,ITC_choice,1415,j,0,0,482,181593,1058807
16,18,female,Nederlands,2,58,ITC,neutral,5,right,5,ITC_wait,0,undefined,0,0,482,176587,1063813
16,18,female,Nederlands,2,58,ITC,neutral,5,right,5,ITC_collect,960,k,0,0,482,175622,1064778
16,18,female,Nederlands,2,58,ITC,neutral,5,right,5,ITC_outcome,0,undefined,0,0,502,174607,1065793
16,18,female,Nederlands,2,59,guess,win,10,right,1,guess_start,632,space,0,0,502,173972,1066428
16,18,female,Nederlands,2,59,guess,win,10,right,1,guess_choice,1082,f,0,0,502,172882,1067518
16,18,female,Nederlands,2,59,guess,win,10,right,1,guess_outcome,0,undefined,0,0,522,171317,1069083
16,18,female,Nederlands,2,59,ITC,win,10,right,1,ITC_start,1411,space,0,0,522,169903,1070497
16,18,female,Nederlands,2,59,ITC,win,10,right,1,ITC_choice,1535,f,0,0,522,168363,1072037
16,18,female,Nederlands,2,59,ITC,win,10,right,1,ITC_wait,0,undefined,0,0,522,168357,1072043
16,18,female,Nederlands,2,59,ITC,win,10,right,1,ITC_collect,2240,k,0,0,522,166113,1074287
16,18,female,Nederlands,2,59,ITC,win,10,right,1,ITC_outcome,0,undefined,0,0,523,165098,1075302
16,18,female,Nederlands,2,60,guess,win,10,left,5,guess_start,541,space,0,0,523,164553,1075847
16,18,female,Nederlands,2,60,guess,win,10,left,5,guess_choice,682,f,0,0,523,163862,1076538
16,18,female,Nederlands,2,60,guess,win,10,left,5,guess_outcome,0,undefined,0,0,543,162298,1078102
16,18,female,Nederlands,2,60,ITC,win,10,left,5,ITC_start,561,space,0,0,543,161733,1078667
16,18,female,Nederlands,2,60,ITC,win,10,left,5,ITC_choice,2046,j,0,0,543,159683,1080717
16,18,female,Nederlands,2,60,ITC,win,10,left,5,ITC_wait,0,undefined,0,0,543,159676,1080724
16,18,female,Nederlands,2,60,ITC,win,10,left,5,ITC_collect,1749,k,0,0,543,157923,1082477
16,18,female,Nederlands,2,60,ITC,win,10,left,5,ITC_outcome,0,undefined,0,0,548,156908,1083492
16,18,female,Nederlands,2,61,guess,win,10,left,8,guess_start,652,space,0,0,548,156253,1084147
16,18,female,Nederlands,2,61,guess,win,10,left,8,guess_choice,1059,j,0,0,548,155183,1085217
16,18,female,Nederlands,2,61,guess,win,10,left,8,guess_outcome,0,undefined,0,0,568,153618,1086782
16,18,female,Nederlands,2,61,ITC,win,10,left,8,ITC_start,662,space,0,0,568,152952,1087448
16,18,female,Nederlands,2,61,ITC,win,10,left,8,ITC_choice,1093,j,0,0,568,151853,1088547
16,18,female,Nederlands,2,61,ITC,win,10,left,8,ITC_wait,0,undefined,0,0,568,151847,1088553
16,18,female,Nederlands,2,61,ITC,win,10,left,8,ITC_collect,1771,k,0,0,568,150072,1090328
16,18,female,Nederlands,2,61,ITC,win,10,left,8,ITC_outcome,0,undefined,0,0,576,149059,1091341
16,18,female,Nederlands,2,62,guess,loss,5,left,15,guess_start,562,space,0,0,576,148493,1091907
16,18,female,Nederlands,2,62,guess,loss,5,left,15,guess_choice,712,f,0,0,576,147772,1092628
16,18,female,Nederlands,2,62,guess,loss,5,left,15,guess_outcome,0,undefined,0,0,561,146209,1094191
16,18,female,Nederlands,2,62,ITC,loss,5,left,15,ITC_start,671,space,0,0,561,145532,1094868
16,18,female,Nederlands,2,62,ITC,loss,5,left,15,ITC_choice,954,j,0,0,561,144573,1095827
16,18,female,Nederlands,2,62,ITC,loss,5,left,15,ITC_wait,0,undefined,0,0,561,144566,1095834
16,18,female,Nederlands,2,62,ITC,loss,5,left,15,ITC_collect,1239,k,0,0,561,143322,1097078
16,18,female,Nederlands,2,62,ITC,loss,5,left,15,ITC_outcome,0,undefined,0,0,576,142309,1098091
16,18,female,Nederlands,2,63,guess,loss,5,left,7,guess_start,1152,space,0,0,576,141152,1099248
16,18,female,Nederlands,2,63,guess,loss,5,left,7,guess_choice,739,f,0,0,576,140401,1099999
16,18,female,Nederlands,2,63,guess,loss,5,left,7,guess_outcome,0,undefined,0,0,561,138839,1101561
16,18,female,Nederlands,2,63,ITC,loss,5,left,7,ITC_start,624,space,0,0,561,138211,1102189
16,18,female,Nederlands,2,63,ITC,loss,5,left,7,ITC_choice,1176,j,0,0,561,137032,1103368
16,18,female,Nederlands,2,63,ITC,loss,5,left,7,ITC_wait,0,undefined,0,0,561,137023,1103377
16,18,female,Nederlands,2,63,ITC,loss,5,left,7,ITC_collect,2286,k,0,0,561,134731,1105669
16,18,female,Nederlands,2,63,ITC,loss,5,left,7,ITC_outcome,0,undefined,0,0,568,133717,1106683
16,18,female,Nederlands,2,64,guess,loss,10,right,6,guess_start,12872,space,0,0,568,120841,1119559
16,18,female,Nederlands,2,64,guess,loss,10,right,6,guess_choice,989,j,0,0,568,119841,1120559
16,18,female,Nederlands,2,64,guess,loss,10,right,6,guess_outcome,0,undefined,0,0,553,118282,1122118
16,18,female,Nederlands,2,64,ITC,loss,10,right,6,ITC_start,1497,space,0,0,553,116782,1123618
16,18,female,Nederlands,2,64,ITC,loss,10,right,6,ITC_choice,2466,f,0,0,553,114312,1126088
16,18,female,Nederlands,2,64,ITC,loss,10,right,6,ITC_wait,0,undefined,0,0,553,114306,1126094
16,18,female,Nederlands,2,64,ITC,loss,10,right,6,ITC_collect,2801,k,0,0,553,111502,1128898
16,18,female,Nederlands,2,64,ITC,loss,10,right,6,ITC_outcome,0,undefined,0,0,559,110491,1129909
16,18,female,Nederlands,2,65,guess,loss,5,right,10,guess_start,613,space,0,0,559,109871,1130529
16,18,female,Nederlands,2,65,guess,loss,5,right,10,guess_choice,1041,f,0,0,559,108821,1131579
16,18,female,Nederlands,2,65,guess,loss,5,right,10,guess_outcome,0,undefined,0,0,544,107250,1133150
16,18,female,Nederlands,2,65,ITC,loss,5,right,10,ITC_start,1395,space,0,0,544,105851,1134549
16,18,female,Nederlands,2,65,ITC,loss,5,right,10,ITC_choice,684,f,0,0,544,105162,1135238
16,18,female,Nederlands,2,65,ITC,loss,5,right,10,ITC_wait,0,undefined,0,0,544,105155,1135245
16,18,female,Nederlands,2,65,ITC,loss,5,right,10,ITC_collect,2639,k,0,0,544,102511,1137889
16,18,female,Nederlands,2,65,ITC,loss,5,right,10,ITC_outcome,0,undefined,0,0,554,101501,1138899
16,18,female,Nederlands,2,66,guess,loss,5,left,12,guess_start,695,space,0,0,554,100802,1139598
16,18,female,Nederlands,2,66,guess,loss,5,left,12,guess_choice,852,f,0,0,554,99941,1140459
16,18,female,Nederlands,2,66,guess,loss,5,left,12,guess_outcome,0,undefined,0,0,539,98380,1142020
16,18,female,Nederlands,2,66,ITC,loss,5,left,12,ITC_start,66,space,0,0,539,98310,1142090
16,18,female,Nederlands,2,66,ITC,loss,5,left,12,ITC_choice,1895,j,0,0,539,96410,1143990
16,18,female,Nederlands,2,66,ITC,loss,5,left,12,ITC_wait,0,undefined,0,0,539,96402,1143998
16,18,female,Nederlands,2,66,ITC,loss,5,left,12,ITC_collect,2426,k,0,0,539,93972,1146428
16,18,female,Nederlands,2,66,ITC,loss,5,left,12,ITC_outcome,0,undefined,0,0,551,92956,1147444
16,18,female,Nederlands,2,67,guess,loss,5,left,9,guess_start,550,space,0,0,551,92402,1147998
16,18,female,Nederlands,2,67,guess,loss,5,left,9,guess_choice,2251,f,0,0,551,90141,1150259
16,18,female,Nederlands,2,67,guess,loss,5,left,9,guess_outcome,0,undefined,0,0,536,88580,1151820
16,18,female,Nederlands,2,67,ITC,loss,5,left,9,ITC_start,550,space,0,0,536,88028,1152372
16,18,female,Nederlands,2,67,ITC,loss,5,left,9,ITC_choice,979,f,0,0,536,87040,1153360
16,18,female,Nederlands,2,67,ITC,loss,5,left,9,ITC_wait,0,undefined,0,0,536,82031,1158369
16,18,female,Nederlands,2,67,ITC,loss,5,left,9,ITC_collect,1296,k,0,0,536,80731,1159669
16,18,female,Nederlands,2,67,ITC,loss,5,left,9,ITC_outcome,0,undefined,0,0,556,79721,1160679
16,18,female,Nederlands,2,68,guess,neutral,5,left,8,guess_start,785,space,0,0,556,78931,1161469
16,18,female,Nederlands,2,68,guess,neutral,5,left,8,guess_choice,743,f,0,0,556,78180,1162220
16,18,female,Nederlands,2,68,guess,neutral,5,left,8,guess_outcome,0,undefined,0,0,556,76610,1163790
16,18,female,Nederlands,2,68,ITC,neutral,5,left,8,ITC_start,606,space,0,0,556,76001,1164399
16,18,female,Nederlands,2,68,ITC,neutral,5,left,8,ITC_choice,1535,j,0,0,556,74461,1165939
16,18,female,Nederlands,2,68,ITC,neutral,5,left,8,ITC_wait,0,undefined,0,0,556,74452,1165948
16,18,female,Nederlands,2,68,ITC,neutral,5,left,8,ITC_collect,1055,k,0,0,556,73392,1167008
16,18,female,Nederlands,2,68,ITC,neutral,5,left,8,ITC_outcome,0,undefined,0,0,564,72382,1168018
16,18,female,Nederlands,2,69,guess,neutral,5,right,9,guess_start,1776,space,0,0,564,70601,1169799
16,18,female,Nederlands,2,69,guess,neutral,5,right,9,guess_choice,902,j,0,0,564,69692,1170708
16,18,female,Nederlands,2,69,guess,neutral,5,right,9,guess_outcome,0,undefined,0,0,564,68131,1172269
16,18,female,Nederlands,2,69,ITC,neutral,5,right,9,ITC_start,3057,space,0,0,564,65071,1175329
16,18,female,Nederlands,2,69,ITC,neutral,5,right,9,ITC_choice,1095,j,0,0,564,63970,1176430
16,18,female,Nederlands,2,69,ITC,neutral,5,right,9,ITC_wait,0,undefined,0,0,564,58961,1181439
16,18,female,Nederlands,2,69,ITC,neutral,5,right,9,ITC_collect,945,k,0,0,564,58010,1182390
16,18,female,Nederlands,2,69,ITC,neutral,5,right,9,ITC_outcome,0,undefined,0,0,584,56999,1183401
16,18,female,Nederlands,2,70,guess,loss,5,left,4,guess_start,604,space,0,0,584,56390,1184010
16,18,female,Nederlands,2,70,guess,loss,5,left,4,guess_choice,632,j,0,0,584,55750,1184650
16,18,female,Nederlands,2,70,guess,loss,5,left,4,guess_outcome,0,undefined,0,0,569,54189,1186211
16,18,female,Nederlands,2,70,ITC,loss,5,left,4,ITC_start,625,space,0,0,569,53560,1186840
16,18,female,Nederlands,2,70,ITC,loss,5,left,4,ITC_choice,805,j,0,0,569,52750,1187650
16,18,female,Nederlands,2,70,ITC,loss,5,left,4,ITC_wait,0,undefined,0,0,569,52741,1187659
16,18,female,Nederlands,2,70,ITC,loss,5,left,4,ITC_collect,1255,k,0,0,569,51481,1188919
16,18,female,Nederlands,2,70,ITC,loss,5,left,4,ITC_outcome,0,undefined,0,0,573,50468,1189932
16,18,female,Nederlands,2,71,guess,loss,5,left,13,guess_start,535,space,0,0,573,49930,1190470
16,18,female,Nederlands,2,71,guess,loss,5,left,13,guess_choice,782,f,0,0,573,49139,1191261
16,18,female,Nederlands,2,71,guess,loss,5,left,13,guess_outcome,0,undefined,0,0,558,47579,1192821
16,18,female,Nederlands,2,71,ITC,loss,5,left,13,ITC_start,105,space,0,0,558,47470,1192930
16,18,female,Nederlands,2,71,ITC,loss,5,left,13,ITC_choice,876,j,0,0,558,46590,1193810
16,18,female,Nederlands,2,71,ITC,loss,5,left,13,ITC_wait,0,undefined,0,0,558,46583,1193817
16,18,female,Nederlands,2,71,ITC,loss,5,left,13,ITC_collect,871,k,0,0,558,45710,1194690
16,18,female,Nederlands,2,71,ITC,loss,5,left,13,ITC_outcome,0,undefined,0,0,571,44699,1195701
16,18,female,Nederlands,2,72,guess,loss,5,left,6,guess_start,605,space,0,0,571,44090,1196310
16,18,female,Nederlands,2,72,guess,loss,5,left,6,guess_choice,982,f,0,0,571,43100,1197300
16,18,female,Nederlands,2,72,guess,loss,5,left,6,guess_outcome,0,undefined,0,0,556,41538,1198862
16,18,female,Nederlands,2,72,ITC,loss,5,left,6,ITC_start,463,space,0,0,556,41069,1199331
16,18,female,Nederlands,2,72,ITC,loss,5,left,6,ITC_choice,684,j,0,0,556,40379,1200021
16,18,female,Nederlands,2,72,ITC,loss,5,left,6,ITC_wait,0,undefined,0,0,556,40368,1200032
16,18,female,Nederlands,2,72,ITC,loss,5,left,6,ITC_collect,965,k,0,0,556,39400,1201000
16,18,female,Nederlands,2,72,ITC,loss,5,left,6,ITC_outcome,0,undefined,0,0,562,38389,1202011
16,18,female,Nederlands,2,73,guess,win,10,right,6,guess_start,545,space,0,0,562,37840,1202560
16,18,female,Nederlands,2,73,guess,win,10,right,6,guess_choice,592,f,0,0,562,37240,1203160
16,18,female,Nederlands,2,73,guess,win,10,right,6,guess_outcome,0,undefined,0,0,582,35678,1204722
16,18,female,Nederlands,2,73,ITC,win,10,right,6,ITC_start,2655,space,0,0,582,33019,1207381
16,18,female,Nederlands,2,73,ITC,win,10,right,6,ITC_choice,814,f,0,0,582,32199,1208201
16,18,female,Nederlands,2,73,ITC,win,10,right,6,ITC_wait,0,undefined,0,0,582,32191,1208209
16,18,female,Nederlands,2,73,ITC,win,10,right,6,ITC_collect,905,k,0,0,582,31280,1209120
16,18,female,Nederlands,2,73,ITC,win,10,right,6,ITC_outcome,0,undefined,0,0,588,30268,1210132
16,18,female,Nederlands,2,74,guess,win,10,right,4,guess_start,674,space,0,0,588,29590,1210810
16,18,female,Nederlands,2,74,guess,win,10,right,4,guess_choice,972,f,0,0,588,28611,1211789
16,18,female,Nederlands,2,74,guess,win,10,right,4,guess_outcome,0,undefined,0,0,608,27049,1213351
16,18,female,Nederlands,2,74,ITC,win,10,right,4,ITC_start,495,space,0,0,608,26551,1213849
16,18,female,Nederlands,2,74,ITC,win,10,right,4,ITC_choice,1157,f,0,0,608,25390,1215010
16,18,female,Nederlands,2,74,ITC,win,10,right,4,ITC_wait,0,undefined,0,0,608,25379,1215021
16,18,female,Nederlands,2,74,ITC,win,10,right,4,ITC_collect,832,k,0,0,608,24540,1215860
16,18,female,Nederlands,2,74,ITC,win,10,right,4,ITC_outcome,0,undefined,0,0,612,23529,1216871
16,18,female,Nederlands,2,75,guess,win,5,left,11,guess_start,645,space,0,0,612,22880,1217520
16,18,female,Nederlands,2,75,guess,win,5,left,11,guess_choice,972,f,0,0,612,21900,1218500
16,18,female,Nederlands,2,75,guess,win,5,left,11,guess_outcome,0,undefined,0,0,632,20340,1220060
16,18,female,Nederlands,2,75,ITC,win,5,left,11,ITC_start,557,space,0,0,632,19780,1220620
16,18,female,Nederlands,2,75,ITC,win,5,left,11,ITC_choice,1344,j,0,0,632,18430,1221970
16,18,female,Nederlands,2,75,ITC,win,5,left,11,ITC_wait,0,undefined,0,0,632,18426,1221974
16,18,female,Nederlands,2,75,ITC,win,5,left,11,ITC_collect,2161,k,0,0,632,16260,1224140
16,18,female,Nederlands,2,75,ITC,win,5,left,11,ITC_outcome,0,undefined,0,0,643,15248,1225152
16,18,female,Nederlands,2,76,guess,loss,10,right,3,guess_start,523,space,0,0,643,14720,1225680
16,18,female,Nederlands,2,76,guess,loss,10,right,3,guess_choice,553,f,0,0,643,14159,1226241
16,18,female,Nederlands,2,76,guess,loss,10,right,3,guess_outcome,0,undefined,0,0,628,12598,1227802
16,18,female,Nederlands,2,76,ITC,loss,10,right,3,ITC_start,765,space,0,0,628,11829,1228571
16,18,female,Nederlands,2,76,ITC,loss,10,right,3,ITC_choice,745,f,0,0,628,11079,1229321
16,18,female,Nederlands,2,76,ITC,loss,10,right,3,ITC_wait,0,undefined,0,0,628,11073,1229327
16,18,female,Nederlands,2,76,ITC,loss,10,right,3,ITC_collect,770,k,0,0,628,10300,1230100
16,18,female,Nederlands,2,76,ITC,loss,10,right,3,ITC_outcome,0,undefined,0,0,631,9288,1231112
16,18,female,Nederlands,2,77,guess,neutral,10,left,5,guess_start,511,space,0,0,631,8770,1231630
16,18,female,Nederlands,2,77,guess,neutral,10,left,5,guess_choice,894,f,0,0,631,7869,1232531
16,18,female,Nederlands,2,77,guess,neutral,10,left,5,guess_outcome,0,undefined,0,0,631,6309,1234091
16,18,female,Nederlands,2,77,ITC,neutral,10,left,5,ITC_start,516,space,0,0,631,5790,1234610
16,18,female,Nederlands,2,77,ITC,neutral,10,left,5,ITC_choice,1227,j,0,0,631,4559,1235841
16,18,female,Nederlands,2,77,ITC,neutral,10,left,5,ITC_wait,0,undefined,0,0,631,4554,1235846
16,18,female,Nederlands,2,77,ITC,neutral,10,left,5,ITC_collect,647,k,0,0,631,3900,1236500
16,18,female,Nederlands,2,77,ITC,neutral,10,left,5,ITC_outcome,0,undefined,0,0,636,2888,1237512
16,18,female,Nederlands,2,78,guess,win,5,left,9,guess_start,592,space,0,0,636,2290,1238110
16,18,female,Nederlands,2,78,guess,win,5,left,9,guess_choice,753,j,0,0,636,1529,1238871
16,18,female,Nederlands,2,78,guess,win,5,left,9,guess_outcome,0,undefined,0,0,656,-12,1240412
16,18,female,Nederlands,3,79,guess,neutral,10,left,2,guess_start,2657,space,0,0,0,477341,1305032
16,18,female,Nederlands,3,79,guess,neutral,10,left,2,guess_choice,850,f,0,0,0,476481,1305892
16,18,female,Nederlands,3,79,guess,neutral,10,left,2,guess_outcome,0,undefined,0,0,0,474920,1307453
16,18,female,Nederlands,3,79,ITC,neutral,10,left,2,ITC_start,687,space,0,0,0,474231,1308142
16,18,female,Nederlands,3,79,ITC,neutral,10,left,2,ITC_choice,966,j,0,0,0,473261,1309112
16,18,female,Nederlands,3,79,ITC,neutral,10,left,2,ITC_wait,0,undefined,0,0,0,473255,1309118
16,18,female,Nederlands,3,79,ITC,neutral,10,left,2,ITC_collect,1500,k,0,0,0,471750,1310623
16,18,female,Nederlands,3,79,ITC,neutral,10,left,2,ITC_outcome,0,undefined,0,0,2,470741,1311632
16,18,female,Nederlands,3,80,guess,win,10,left,5,guess_start,1387,space,0,0,2,469350,1313023
16,18,female,Nederlands,3,80,guess,win,10,left,5,guess_choice,958,f,0,0,2,468380,1313993
16,18,female,Nederlands,3,80,guess,win,10,left,5,guess_outcome,0,undefined,0,0,22,466817,1315556
16,18,female,Nederlands,3,80,ITC,win,10,left,5,ITC_start,563,space,0,0,22,466251,1316122
16,18,female,Nederlands,3,80,ITC,win,10,left,5,ITC_choice,1126,j,0,0,22,465121,1317252
16,18,female,Nederlands,3,80,ITC,win,10,left,5,ITC_wait,0,undefined,0,0,22,465112,1317261
16,18,female,Nederlands,3,80,ITC,win,10,left,5,ITC_collect,524,k,0,0,22,464580,1317793
16,18,female,Nederlands,3,80,ITC,win,10,left,5,ITC_outcome,0,undefined,0,0,27,463571,1318802
16,18,female,Nederlands,3,81,guess,neutral,10,left,3,guess_start,225,space,0,0,27,463340,1319033
16,18,female,Nederlands,3,81,guess,neutral,10,left,3,guess_choice,651,f,0,0,27,462680,1319693
16,18,female,Nederlands,3,81,guess,neutral,10,left,3,guess_outcome,0,undefined,0,0,27,461120,1321253
16,18,female,Nederlands,3,81,ITC,neutral,10,left,3,ITC_start,476,space,0,0,27,460640,1321733
16,18,female,Nederlands,3,81,ITC,neutral,10,left,3,ITC_choice,634,j,0,0,27,460001,1322372
16,18,female,Nederlands,3,81,ITC,neutral,10,left,3,ITC_wait,0,undefined,0,0,27,459993,1322380
16,18,female,Nederlands,3,81,ITC,neutral,10,left,3,ITC_collect,808,k,0,0,27,459180,1323193
16,18,female,Nederlands,3,81,ITC,neutral,10,left,3,ITC_outcome,0,undefined,0,0,30,458171,1324202
16,18,female,Nederlands,3,82,guess,win,5,left,3,guess_start,414,space,0,0,30,457750,1324623
16,18,female,Nederlands,3,82,guess,win,5,left,3,guess_choice,751,j,0,0,30,456989,1325384
16,18,female,Nederlands,3,82,guess,win,5,left,3,guess_outcome,0,undefined,0,0,50,455431,1326942
16,18,female,Nederlands,3,82,ITC,win,5,left,3,ITC_start,588,space,0,0,50,454840,1327533
16,18,female,Nederlands,3,82,ITC,win,5,left,3,ITC_choice,1096,j,0,0,50,453740,1328633
16,18,female,Nederlands,3,82,ITC,win,5,left,3,ITC_wait,0,undefined,0,0,50,453732,1328641
16,18,female,Nederlands,3,82,ITC,win,5,left,3,ITC_collect,1717,k,0,0,50,452011,1330362
16,18,female,Nederlands,3,82,ITC,win,5,left,3,ITC_outcome,0,undefined,0,0,53,451001,1331372
16,18,female,Nederlands,3,83,guess,loss,5,left,9,guess_start,526,space,0,0,53,450470,1331903
16,18,female,Nederlands,3,83,guess,loss,5,left,9,guess_choice,522,f,0,0,53,449940,1332433
16,18,female,Nederlands,3,83,guess,loss,5,left,9,guess_outcome,0,undefined,0,0,38,448381,1333992
16,18,female,Nederlands,3,83,ITC,loss,5,left,9,ITC_start,548,space,0,0,38,447829,1334544
16,18,female,Nederlands,3,83,ITC,loss,5,left,9,ITC_choice,995,j,0,0,38,446831,1335542
16,18,female,Nederlands,3,83,ITC,loss,5,left,9,ITC_wait,0,undefined,0,0,38,446826,1335547
16,18,female,Nederlands,3,83,ITC,loss,5,left,9,ITC_collect,1440,k,0,0,38,445381,1336992
16,18,female,Nederlands,3,83,ITC,loss,5,left,9,ITC_outcome,0,undefined,0,0,47,444370,1338003
16,18,female,Nederlands,3,84,guess,loss,10,left,1,guess_start,516,space,0,0,47,443850,1338523
16,18,female,Nederlands,3,84,guess,loss,10,left,1,guess_choice,582,f,0,0,47,443260,1339113
16,18,female,Nederlands,3,84,guess,loss,10,left,1,guess_outcome,0,undefined,0,0,32,441690,1340683
16,18,female,Nederlands,3,84,ITC,loss,10,left,1,ITC_start,736,space,0,0,32,440950,1341423
16,18,female,Nederlands,3,84,ITC,loss,10,left,1,ITC_choice,755,j,0,0,32,440190,1342183
16,18,female,Nederlands,3,84,ITC,loss,10,left,1,ITC_wait,0,undefined,0,0,32,440183,1342190
16,18,female,Nederlands,3,84,ITC,loss,10,left,1,ITC_collect,1098,k,0,0,32,439081,1343292
16,18,female,Nederlands,3,84,ITC,loss,10,left,1,ITC_outcome,0,undefined,0,0,33,438071,1344302
16,18,female,Nederlands,3,85,guess,neutral,5,left,9,guess_start,607,space,0,0,33,437459,1344914
16,18,female,Nederlands,3,85,guess,neutral,5,left,9,guess_choice,557,j,0,0,33,436890,1345483
16,18,female,Nederlands,3,85,guess,neutral,5,left,9,guess_outcome,0,undefined,0,0,33,435320,1347053
16,18,female,Nederlands,3,85,ITC,neutral,5,left,9,ITC_start,657,space,0,0,33,434660,1347713
16,18,female,Nederlands,3,85,ITC,neutral,5,left,9,ITC_choice,715,j,0,0,33,433940,1348433
16,18,female,Nederlands,3,85,ITC,neutral,5,left,9,ITC_wait,0,undefined,0,0,33,433933,1348440
16,18,female,Nederlands,3,85,ITC,neutral,5,left,9,ITC_collect,1328,k,0,0,33,432601,1349772
16,18,female,Nederlands,3,85,ITC,neutral,5,left,9,ITC_outcome,0,undefined,0,0,42,431590,1350783
16,18,female,Nederlands,3,86,guess,loss,5,left,14,guess_start,416,space,0,0,42,431170,1351203
16,18,female,Nederlands,3,86,guess,loss,5,left,14,guess_choice,742,f,0,0,42,430419,1351954
16,18,female,Nederlands,3,86,guess,loss,5,left,14,guess_outcome,0,undefined,0,0,27,428849,1353524
16,18,female,Nederlands,3,86,ITC,loss,5,left,14,ITC_start,686,space,0,0,27,428160,1354213
16,18,female,Nederlands,3,86,ITC,loss,5,left,14,ITC_choice,496,j,0,0,27,427660,1354713
16,18,female,Nederlands,3,86,ITC,loss,5,left,14,ITC_wait,0,undefined,0,0,27,427653,1354720
16,18,female,Nederlands,3,86,ITC,loss,5,left,14,ITC_collect,1346,k,0,0,27,426301,1356072
16,18,female,Nederlands,3,86,ITC,loss,5,left,14,ITC_outcome,0,undefined,0,0,41,425291,1357082
16,18,female,Nederlands,3,87,guess,neutral,5,left,15,guess_start,1107,space,0,0,41,424181,1358192
16,18,female,Nederlands,3,87,guess,neutral,5,left,15,guess_choice,598,j,0,0,41,423570,1358803
16,18,female,Nederlands,3,87,guess,neutral,5,left,15,guess_outcome,0,undefined,0,0,41,422011,1360362
16,18,female,Nederlands,3,87,ITC,neutral,5,left,15,ITC_start,266,space,0,0,41,421741,1360632
16,18,female,Nederlands,3,87,ITC,neutral,5,left,15,ITC_choice,26,f,0,0,41,421710,1360663
16,18,female,Nederlands,3,87,ITC,neutral,5,left,15,ITC_wait,0,undefined,0,0,41,416701,1365672
16,18,female,Nederlands,3,87,ITC,neutral,5,left,15,ITC_collect,1587,k,0,0,41,415111,1367262
16,18,female,Nederlands,3,87,ITC,neutral,5,left,15,ITC_outcome,0,undefined,0,0,61,414100,1368273
16,18,female,Nederlands,3,88,guess,loss,10,left,5,guess_start,157,space,0,0,61,413940,1368433
16,18,female,Nederlands,3,88,guess,loss,10,left,5,guess_choice,0,j,0,0,61,413932,1368441
16,18,female,Nederlands,3,88,guess,loss,10,left,5,guess_outcome,0,undefined,0,0,46,412371,1370002
16,18,female,Nederlands,3,88,ITC,loss,10,left,5,ITC_start,67,space,0,0,46,412300,1370073
16,18,female,Nederlands,3,88,ITC,loss,10,left,5,ITC_choice,16,f,0,0,46,412280,1370093
16,18,female,Nederlands,3,88,ITC,loss,10,left,5,ITC_wait,0,undefined,0,0,46,402273,1380100
16,18,female,Nederlands,3,88,ITC,loss,10,left,5,ITC_collect,1179,k,0,0,46,401089,1381284
16,18,female,Nederlands,3,88,ITC,loss,10,left,5,ITC_outcome,0,undefined,0,0,66,400076,1382297
16,18,female,Nederlands,3,89,guess,win,5,left,4,guess_start,533,space,0,0,66,399540,1382833
16,18,female,Nederlands,3,89,guess,win,5,left,4,guess_choice,773,f,0,0,66,398759,1383614
16,18,female,Nederlands,3,89,guess,win,5,left,4,guess_outcome,0,undefined,0,0,86,397197,1385176
16,18,female,Nederlands,3,89,ITC,win,5,left,4,ITC_start,2405,space,0,0,86,394789,1387584
16,18,female,Nederlands,3,89,ITC,win,5,left,4,ITC_choice,1704,j,0,0,86,393079,1389294
16,18,female,Nederlands,3,89,ITC,win,5,left,4,ITC_wait,0,undefined,0,0,86,393072,1389301
16,18,female,Nederlands,3,89,ITC,win,5,left,4,ITC_collect,1089,k,0,0,86,391979,1390394
16,18,female,Nederlands,3,89,ITC,win,5,left,4,ITC_outcome,0,undefined,0,0,90,390965,1391408
16,18,female,Nederlands,3,90,guess,neutral,10,left,1,guess_start,521,space,0,0,90,390440,1391933
16,18,female,Nederlands,3,90,guess,neutral,10,left,1,guess_choice,544,f,0,0,90,389889,1392484
16,18,female,Nederlands,3,90,guess,neutral,10,left,1,guess_outcome,0,undefined,0,0,90,388327,1394046
16,18,female,Nederlands,3,90,ITC,neutral,10,left,1,ITC_start,595,space,0,0,90,387730,1394643
16,18,female,Nederlands,3,90,ITC,neutral,10,left,1,ITC_choice,815,j,0,0,90,386910,1395463
16,18,female,Nederlands,3,90,ITC,neutral,10,left,1,ITC_wait,0,undefined,0,0,90,386903,1395470
16,18,female,Nederlands,3,90,ITC,neutral,10,left,1,ITC_collect,1260,k,0,0,90,385640,1396733
16,18,female,Nederlands,3,90,ITC,neutral,10,left,1,ITC_outcome,0,undefined,0,0,91,384625,1397748
16,18,female,Nederlands,3,91,guess,win,5,right,2,guess_start,521,space,0,0,91,384099,1398274
16,18,female,Nederlands,3,91,guess,win,5,right,2,guess_choice,971,f,0,0,91,383119,1399254
16,18,female,Nederlands,3,91,guess,win,5,right,2,guess_outcome,0,undefined,0,0,111,381555,1400818
16,18,female,Nederlands,3,91,ITC,win,5,right,2,ITC_start,1042,space,0,0,111,380509,1401864
16,18,female,Nederlands,3,91,ITC,win,5,right,2,ITC_choice,1336,j,0,0,111,379169,1403204
16,18,female,Nederlands,3,91,ITC,win,5,right,2,ITC_wait,0,undefined,0,0,111,374166,1408207
16,18,female,Nederlands,3,91,ITC,win,5,right,2,ITC_collect,1043,k,0,0,111,373119,1409254
16,18,female,Nederlands,3,91,ITC,win,5,right,2,ITC_outcome,0,undefined,0,0,131,372105,1410268
16,18,female,Nederlands,3,92,guess,loss,10,right,4,guess_start,832,space,0,0,131,371269,1411104
16,18,female,Nederlands,3,92,guess,loss,10,right,4,guess_choice,401,f,0,0,131,370860,1411513
16,18,female,Nederlands,3,92,guess,loss,10,right,4,guess_outcome,0,undefined,0,0,116,369297,1413076
16,18,female,Nederlands,3,92,ITC,loss,10,right,4,ITC_start,4605,space,0,0,116,364690,1417683
16,18,female,Nederlands,3,92,ITC,loss,10,right,4,ITC_choice,952,f,0,0,116,363730,1418643
16,18,female,Nederlands,3,92,ITC,loss,10,right,4,ITC_wait,0,undefined,0,0,116,363722,1418651
16,18,female,Nederlands,3,92,ITC,loss,10,right,4,ITC_collect,1077,k,0,0,116,362640,1419733
16,18,female,Nederlands,3,92,ITC,loss,10,right,4,ITC_outcome,0,undefined,0,0,120,361625,1420748
16,18,female,Nederlands,3,93,guess,loss,10,left,6,guess_start,4790,space,0,0,120,356830,1425543
16,18,female,Nederlands,3,93,guess,loss,10,left,6,guess_choice,618,f,0,0,120,356200,1426173
16,18,female,Nederlands,3,93,guess,loss,10,left,6,guess_outcome,0,undefined,0,0,105,354636,1427737
16,18,female,Nederlands,3,93,ITC,loss,10,left,6,ITC_start,1332,space,0,0,105,353301,1429072
16,18,female,Nederlands,3,93,ITC,loss,10,left,6,ITC_wait,0,undefined,0,0,105,352114,1430259
16,18,female,Nederlands,3,93,ITC,loss,10,left,6,ITC_choice,1173,j,0,0,105,352120,1430253
16,18,female,Nederlands,3,93,ITC,loss,10,left,6,ITC_collect,2070,k,0,0,105,350041,1432332
16,18,female,Nederlands,3,93,ITC,loss,10,left,6,ITC_outcome,0,undefined,0,0,111,349026,1433347
16,18,female,Nederlands,3,94,guess,loss,5,left,7,guess_start,1239,space,0,0,111,347780,1434593
16,18,female,Nederlands,3,94,guess,loss,5,left,7,guess_choice,544,f,0,0,111,347230,1435143
16,18,female,Nederlands,3,94,guess,loss,5,left,7,guess_outcome,0,undefined,0,0,96,345666,1436707
16,18,female,Nederlands,3,94,ITC,loss,5,left,7,ITC_start,592,space,0,0,96,345070,1437303
16,18,female,Nederlands,3,94,ITC,loss,5,left,7,ITC_choice,777,j,0,0,96,344288,1438085
16,18,female,Nederlands,3,94,ITC,loss,5,left,7,ITC_wait,0,undefined,0,0,96,344283,1438090
16,18,female,Nederlands,3,94,ITC,loss,5,left,7,ITC_collect,1138,k,0,0,96,343141,1439232
16,18,female,Nederlands,3,94,ITC,loss,5,left,7,ITC_outcome,0,undefined,0,0,103,342125,1440248
16,18,female,Nederlands,3,95,guess,loss,5,left,16,guess_start,1000,space,0,0,103,341120,1441253
16,18,female,Nederlands,3,95,guess,loss,5,left,16,guess_choice,532,f,0,0,103,340580,1441793
16,18,female,Nederlands,3,95,guess,loss,5,left,16,guess_outcome,0,undefined,0,0,88,339016,1443357
16,18,female,Nederlands,3,95,ITC,loss,5,left,16,ITC_start,1072,space,0,0,88,337940,1444433
16,18,female,Nederlands,3,95,ITC,loss,5,left,16,ITC_choice,817,j,0,0,88,337120,1445253
16,18,female,Nederlands,3,95,ITC,loss,5,left,16,ITC_wait,0,undefined,0,0,88,337114,1445259
16,18,female,Nederlands,3,95,ITC,loss,5,left,16,ITC_collect,1488,k,0,0,88,335619,1446754
16,18,female,Nederlands,3,95,ITC,loss,5,left,16,ITC_outcome,0,undefined,0,0,104,334606,1447767
16,18,female,Nederlands,3,96,guess,neutral,10,left,8,guess_start,11233,space,0,0,104,323369,1459004
16,18,female,Nederlands,3,96,guess,neutral,10,left,8,guess_choice,1009,j,0,0,104,322349,1460024
16,18,female,Nederlands,3,96,guess,neutral,10,left,8,guess_outcome,0,undefined,0,0,104,320782,1461591
16,18,female,Nederlands,3,96,ITC,neutral,10,left,8,ITC_start,508,space,0,0,104,320270,1462103
16,18,female,Nederlands,3,96,ITC,neutral,10,left,8,ITC_choice,978,j,0,0,104,319290,1463083
16,18,female,Nederlands,3,96,ITC,neutral,10,left,8,ITC_wait,0,undefined,0,0,104,319283,1463090
16,18,female,Nederlands,3,96,ITC,neutral,10,left,8,ITC_collect,620,k,0,0,104,318660,1463713
16,18,female,Nederlands,3,96,ITC,neutral,10,left,8,ITC_outcome,0,undefined,0,0,112,317652,1464721
16,18,female,Nederlands,3,97,guess,win,5,left,15,guess_start,398,space,0,0,112,317250,1465123
16,18,female,Nederlands,3,97,guess,win,5,left,15,guess_choice,444,f,0,0,112,316800,1465573
16,18,female,Nederlands,3,97,guess,win,5,left,15,guess_outcome,0,undefined,0,0,132,315230,1467143
16,18,female,Nederlands,3,97,ITC,win,5,left,15,ITC_start,569,space,0,0,132,314659,1467714
16,18,female,Nederlands,3,97,ITC,win,5,left,15,ITC_choice,1265,j,0,0,132,313389,1468984
16,18,female,Nederlands,3,97,ITC,win,5,left,15,ITC_wait,0,undefined,0,0,132,313382,1468991
16,18,female,Nederlands,3,97,ITC,win,5,left,15,ITC_collect,668,k,0,0,132,312709,1469664
16,18,female,Nederlands,3,97,ITC,win,5,left,15,ITC_outcome,0,undefined,0,0,147,311691,1470682
16,18,female,Nederlands,3,98,guess,neutral,5,left,13,guess_start,146,space,0,0,147,311540,1470833
16,18,female,Nederlands,3,98,guess,neutral,5,left,13,guess_choice,583,f,0,0,147,310949,1471424
16,18,female,Nederlands,3,98,guess,neutral,5,left,13,guess_outcome,0,undefined,0,0,147,309383,1472990
16,18,female,Nederlands,3,98,ITC,neutral,5,left,13,ITC_start,16669,space,0,0,147,292710,1489663
16,18,female,Nederlands,3,98,ITC,neutral,5,left,13,ITC_choice,675,j,0,0,147,292030,1490343
16,18,female,Nederlands,3,98,ITC,neutral,5,left,13,ITC_wait,0,undefined,0,0,147,292025,1490348
16,18,female,Nederlands,3,98,ITC,neutral,5,left,13,ITC_collect,2791,k,0,0,147,289230,1493143
16,18,female,Nederlands,3,98,ITC,neutral,5,left,13,ITC_outcome,0,undefined,0,0,160,288222,1494151
16,18,female,Nederlands,3,99,guess,neutral,5,left,6,guess_start,729,space,0,0,160,287489,1494884
16,18,female,Nederlands,3,99,guess,neutral,5,left,6,guess_choice,609,f,0,0,160,286871,1495502
16,18,female,Nederlands,3,99,guess,neutral,5,left,6,guess_outcome,0,undefined,0,0,160,285314,1497059
16,18,female,Nederlands,3,99,ITC,neutral,5,left,6,ITC_start,591,space,0,0,160,284720,1497653
16,18,female,Nederlands,3,99,ITC,neutral,5,left,6,ITC_choice,627,j,0,0,160,284091,1498282
16,18,female,Nederlands,3,99,ITC,neutral,5,left,6,ITC_wait,0,undefined,0,0,160,284087,1498286
16,18,female,Nederlands,3,99,ITC,neutral,5,left,6,ITC_collect,3014,k,0,0,160,281069,1501304
16,18,female,Nederlands,3,99,ITC,neutral,5,left,6,ITC_outcome,0,undefined,0,0,166,280062,1502311
16,18,female,Nederlands,3,100,guess,win,5,right,14,guess_start,517,space,0,0,166,279539,1502834
16,18,female,Nederlands,3,100,guess,win,5,right,14,guess_choice,632,f,0,0,166,278900,1503473
16,18,female,Nederlands,3,100,guess,win,5,right,14,guess_outcome,0,undefined,0,0,186,277332,1505041
16,18,female,Nederlands,3,100,ITC,win,5,right,14,ITC_start,426,space,0,0,186,276900,1505473
16,18,female,Nederlands,3,100,ITC,win,5,right,14,ITC_choice,1597,f,0,0,186,275299,1507074
16,18,female,Nederlands,3,100,ITC,win,5,right,14,ITC_wait,0,undefined,0,0,186,275293,1507080
16,18,female,Nederlands,3,100,ITC,win,5,right,14,ITC_collect,1468,k,0,0,186,273819,1508554
16,18,female,Nederlands,3,100,ITC,win,5,right,14,ITC_outcome,0,undefined,0,0,200,272804,1509569
16,18,female,Nederlands,3,101,guess,neutral,5,left,7,guess_start,489,space,0,0,200,272310,1510063
16,18,female,Nederlands,3,101,guess,neutral,5,left,7,guess_choice,502,f,0,0,200,271799,1510574
16,18,female,Nederlands,3,101,guess,neutral,5,left,7,guess_outcome,0,undefined,0,0,200,270233,1512140
16,18,female,Nederlands,3,101,ITC,neutral,5,left,7,ITC_start,542,space,0,0,200,269689,1512684
16,18,female,Nederlands,3,101,ITC,neutral,5,left,7,ITC_choice,955,j,0,0,200,268729,1513644
16,18,female,Nederlands,3,101,ITC,neutral,5,left,7,ITC_wait,0,undefined,0,0,200,268721,1513652
16,18,female,Nederlands,3,101,ITC,neutral,5,left,7,ITC_collect,1368,k,0,0,200,267349,1515024
16,18,female,Nederlands,3,101,ITC,neutral,5,left,7,ITC_outcome,0,undefined,0,0,207,266343,1516030
16,18,female,Nederlands,3,102,guess,win,5,left,13,guess_start,567,space,0,0,207,265769,1516604
16,18,female,Nederlands,3,102,guess,win,5,left,13,guess_choice,669,f,0,0,207,265087,1517286
16,18,female,Nederlands,3,102,guess,win,5,left,13,guess_outcome,0,undefined,0,0,227,263522,1518851
16,18,female,Nederlands,3,102,ITC,win,5,left,13,ITC_start,4160,space,0,0,227,259357,1523016
16,18,female,Nederlands,3,102,ITC,win,5,left,13,ITC_choice,884,j,0,0,227,258468,1523905
16,18,female,Nederlands,3,102,ITC,win,5,left,13,ITC_wait,0,undefined,0,0,227,258460,1523913
16,18,female,Nederlands,3,102,ITC,win,5,left,13,ITC_collect,1256,k,0,0,227,257199,1525174
16,18,female,Nederlands,3,102,ITC,win,5,left,13,ITC_outcome,0,undefined,0,0,240,256183,1526190
16,18,female,Nederlands,3,103,guess,win,10,right,2,guess_start,509,space,0,0,240,255668,1526705
16,18,female,Nederlands,3,103,guess,win,10,right,2,guess_choice,611,f,0,0,240,255047,1527326
16,18,female,Nederlands,3,103,guess,win,10,right,2,guess_outcome,0,undefined,0,0,260,253483,1528890
16,18,female,Nederlands,3,103,ITC,win,10,right,2,ITC_start,420,space,0,0,260,253058,1529315
16,18,female,Nederlands,3,103,ITC,win,10,right,2,ITC_choice,855,f,0,0,260,252198,1530175
16,18,female,Nederlands,3,103,ITC,win,10,right,2,ITC_wait,0,undefined,0,0,260,252190,1530183
16,18,female,Nederlands,3,103,ITC,win,10,right,2,ITC_collect,3157,k,0,0,260,249028,1533345
16,18,female,Nederlands,3,103,ITC,win,10,right,2,ITC_outcome,0,undefined,0,0,262,248013,1534360
16,18,female,Nederlands,3,104,guess,neutral,5,right,10,guess_start,610,space,0,0,262,247399,1534974
16,18,female,Nederlands,3,104,guess,neutral,5,right,10,guess_choice,891,j,0,0,262,246498,1535875
16,18,female,Nederlands,3,104,guess,neutral,5,right,10,guess_outcome,0,undefined,0,0,262,244933,1537440
16,18,female,Nederlands,3,104,ITC,neutral,5,right,10,ITC_start,1062,space,0,0,262,243868,1538505
16,18,female,Nederlands,3,104,ITC,neutral,5,right,10,ITC_choice,794,f,0,0,262,243068,1539305
16,18,female,Nederlands,3,104,ITC,neutral,5,right,10,ITC_wait,0,undefined,0,0,262,243059,1539314
16,18,female,Nederlands,3,104,ITC,neutral,5,right,10,ITC_collect,795,k,0,0,262,242259,1540114
16,18,female,Nederlands,3,104,ITC,neutral,5,right,10,ITC_outcome,0,undefined,0,0,272,241243,1541130
16,18,female,Nederlands,3,105,guess,win,10,left,3,guess_start,1401,space,0,0,272,239838,1542535
16,18,female,Nederlands,3,105,guess,win,10,left,3,guess_choice,791,f,0,0,272,239038,1543335
16,18,female,Nederlands,3,105,guess,win,10,left,3,guess_outcome,0,undefined,0,0,292,237473,1544900
16,18,female,Nederlands,3,105,ITC,win,10,left,3,ITC_start,691,space,0,0,292,236778,1545595
16,18,female,Nederlands,3,105,ITC,win,10,left,3,ITC_choice,1743,j,0,0,292,235028,1547345
16,18,female,Nederlands,3,105,ITC,win,10,left,3,ITC_wait,0,undefined,0,0,292,235019,1547354
16,18,female,Nederlands,3,105,ITC,win,10,left,3,ITC_collect,1547,k,0,0,292,233468,1548905
16,18,female,Nederlands,3,105,ITC,win,10,left,3,ITC_outcome,0,undefined,0,0,295,232453,1549920
16,18,female,Nederlands,3,106,guess,win,5,left,5,guess_start,520,space,0,0,295,231929,1550444
16,18,female,Nederlands,3,106,guess,win,5,left,5,guess_choice,702,f,0,0,295,231218,1551155
16,18,female,Nederlands,3,106,guess,win,5,left,5,guess_outcome,0,undefined,0,0,315,229657,1552716
16,18,female,Nederlands,3,106,ITC,win,5,left,5,ITC_start,605,space,0,0,315,229048,1553325
16,18,female,Nederlands,3,106,ITC,win,5,left,5,ITC_choice,984,j,0,0,315,228058,1554315
16,18,female,Nederlands,3,106,ITC,win,5,left,5,ITC_wait,0,undefined,0,0,315,228052,1554321
16,18,female,Nederlands,3,106,ITC,win,5,left,5,ITC_collect,540,k,0,0,315,227508,1554865
16,18,female,Nederlands,3,106,ITC,win,5,left,5,ITC_outcome,0,undefined,0,0,320,226492,1555881
16,18,female,Nederlands,3,107,guess,win,5,right,8,guess_start,310,space,0,0,320,226179,1556194
16,18,female,Nederlands,3,107,guess,win,5,right,8,guess_choice,963,j,0,0,320,225208,1557165
16,18,female,Nederlands,3,107,guess,win,5,right,8,guess_outcome,0,undefined,0,0,340,223643,1558730
16,18,female,Nederlands,3,107,ITC,win,5,right,8,ITC_start,661,space,0,0,340,222978,1559395
16,18,female,Nederlands,3,107,ITC,win,5,right,8,ITC_wait,0,undefined,0,0,340,222041,1560332
16,18,female,Nederlands,3,107,ITC,win,5,right,8,ITC_choice,926,f,0,0,340,222048,1560325
16,18,female,Nederlands,3,107,ITC,win,5,right,8,ITC_collect,837,k,0,0,340,221198,1561175
16,18,female,Nederlands,3,107,ITC,win,5,right,8,ITC_outcome,0,undefined,0,0,348,220183,1562190
16,18,female,Nederlands,3,108,guess,loss,5,left,6,guess_start,551,space,0,0,348,219629,1562744
16,18,female,Nederlands,3,108,guess,loss,5,left,6,guess_choice,1293,f,0,0,348,218328,1564045
16,18,female,Nederlands,3,108,guess,loss,5,left,6,guess_outcome,0,undefined,0,0,333,216763,1565610
16,18,female,Nederlands,3,108,ITC,loss,5,left,6,ITC_start,781,space,0,0,333,215978,1566395
16,18,female,Nederlands,3,108,ITC,loss,5,left,6,ITC_choice,1116,j,0,0,333,214859,1567514
16,18,female,Nederlands,3,108,ITC,loss,5,left,6,ITC_wait,0,undefined,0,0,333,214849,1567524
16,18,female,Nederlands,3,108,ITC,loss,5,left,6,ITC_collect,746,k,0,0,333,214099,1568274
16,18,female,Nederlands,3,108,ITC,loss,5,left,6,ITC_outcome,0,undefined,0,0,339,213091,1569282
16,18,female,Nederlands,3,109,guess,neutral,5,left,3,guess_start,388,space,0,0,339,212698,1569675
16,18,female,Nederlands,3,109,guess,neutral,5,left,3,guess_choice,581,f,0,0,339,212108,1570265
16,18,female,Nederlands,3,109,guess,neutral,5,left,3,guess_outcome,0,undefined,0,0,339,210543,1571830
16,18,female,Nederlands,3,109,ITC,neutral,5,left,3,ITC_start,573,space,0,0,339,209966,1572407
16,18,female,Nederlands,3,109,ITC,neutral,5,left,3,ITC_choice,1193,j,0,0,339,208768,1573605
16,18,female,Nederlands,3,109,ITC,neutral,5,left,3,ITC_wait,0,undefined,0,0,339,208759,1573614
16,18,female,Nederlands,3,109,ITC,neutral,5,left,3,ITC_collect,1345,k,0,0,339,207408,1574965
16,18,female,Nederlands,3,109,ITC,neutral,5,left,3,ITC_outcome,0,undefined,0,0,342,206393,1575980
16,18,female,Nederlands,3,110,guess,win,5,right,7,guess_start,508,space,0,0,342,205878,1576495
16,18,female,Nederlands,3,110,guess,win,5,right,7,guess_choice,823,j,0,0,342,205047,1577326
16,18,female,Nederlands,3,110,guess,win,5,right,7,guess_outcome,0,undefined,0,0,362,203472,1578901
16,18,female,Nederlands,3,110,ITC,win,5,right,7,ITC_start,690,space,0,0,362,202778,1579595
16,18,female,Nederlands,3,110,ITC,win,5,right,7,ITC_choice,1096,f,0,0,362,201678,1580695
16,18,female,Nederlands,3,110,ITC,win,5,right,7,ITC_wait,0,undefined,0,0,362,201671,1580702
16,18,female,Nederlands,3,110,ITC,win,5,right,7,ITC_collect,3926,k,0,0,362,197738,1584635
16,18,female,Nederlands,3,110,ITC,win,5,right,7,ITC_outcome,0,undefined,0,0,369,196722,1585651
16,18,female,Nederlands,3,111,guess,loss,5,right,5,guess_start,549,space,0,0,369,196168,1586205
16,18,female,Nederlands,3,111,guess,loss,5,right,5,guess_choice,971,j,0,0,369,195189,1587184
16,18,female,Nederlands,3,111,guess,loss,5,right,5,guess_outcome,0,undefined,0,0,354,193622,1588751
16,18,female,Nederlands,3,111,ITC,loss,5,right,5,ITC_start,460,space,0,0,354,193158,1589215
16,18,female,Nederlands,3,111,ITC,loss,5,right,5,ITC_choice,836,f,0,0,354,192317,1590056
16,18,female,Nederlands,3,111,ITC,loss,5,right,5,ITC_wait,0,undefined,0,0,354,192309,1590064
16,18,female,Nederlands,3,111,ITC,loss,5,right,5,ITC_collect,3806,k,0,0,354,188498,1593875
16,18,female,Nederlands,3,111,ITC,loss,5,right,5,ITC_outcome,0,undefined,0,0,359,187483,1594890
16,18,female,Nederlands,3,112,guess,neutral,10,left,4,guess_start,470,space,0,0,359,187008,1595365
16,18,female,Nederlands,3,112,guess,neutral,10,left,4,guess_choice,689,f,0,0,359,186308,1596065
16,18,female,Nederlands,3,112,guess,neutral,10,left,4,guess_outcome,0,undefined,0,0,359,184743,1597630
16,18,female,Nederlands,3,112,ITC,neutral,10,left,4,ITC_start,541,space,0,0,359,184199,1598174
16,18,female,Nederlands,3,112,ITC,neutral,10,left,4,ITC_choice,818,j,0,0,359,183378,1598995
16,18,female,Nederlands,3,112,ITC,neutral,10,left,4,ITC_wait,0,undefined,0,0,359,183370,1599003
16,18,female,Nederlands,3,112,ITC,neutral,10,left,4,ITC_collect,2439,k,0,0,359,180926,1601447
16,18,female,Nederlands,3,112,ITC,neutral,10,left,4,ITC_outcome,0,undefined,0,0,363,179912,1602461
16,18,female,Nederlands,3,113,guess,win,5,right,12,guess_start,2791,space,0,0,363,177117,1605256
16,18,female,Nederlands,3,113,guess,win,5,right,12,guess_choice,522,f,0,0,363,176587,1605786
16,18,female,Nederlands,3,113,guess,win,5,right,12,guess_outcome,0,undefined,0,0,383,175022,1607351
16,18,female,Nederlands,3,113,ITC,win,5,right,12,ITC_start,431,space,0,0,383,174587,1607786
16,18,female,Nederlands,3,113,ITC,win,5,right,12,ITC_choice,843,f,0,0,383,173737,1608636
16,18,female,Nederlands,3,113,ITC,win,5,right,12,ITC_wait,0,undefined,0,0,383,173731,1608642
16,18,female,Nederlands,3,113,ITC,win,5,right,12,ITC_collect,949,k,0,0,383,172777,1609596
16,18,female,Nederlands,3,113,ITC,win,5,right,12,ITC_outcome,0,undefined,0,0,395,171763,1610610
16,18,female,Nederlands,3,114,guess,loss,10,left,8,guess_start,708,space,0,0,395,171048,1611325
16,18,female,Nederlands,3,114,guess,loss,10,left,8,guess_choice,933,j,0,0,395,170107,1612266
16,18,female,Nederlands,3,114,guess,loss,10,left,8,guess_outcome,0,undefined,0,0,380,168542,1613831
16,18,female,Nederlands,3,114,ITC,loss,10,left,8,ITC_start,482,space,0,0,380,168057,1614316
16,18,female,Nederlands,3,114,ITC,loss,10,left,8,ITC_choice,824,j,0,0,380,167228,1615145
16,18,female,Nederlands,3,114,ITC,loss,10,left,8,ITC_wait,0,undefined,0,0,380,167221,1615152
16,18,female,Nederlands,3,114,ITC,loss,10,left,8,ITC_collect,990,k,0,0,380,166227,1616146
16,18,female,Nederlands,3,114,ITC,loss,10,left,8,ITC_outcome,0,undefined,0,0,388,165222,1617151
16,18,female,Nederlands,3,115,guess,neutral,5,right,8,guess_start,468,space,0,0,388,164748,1617625
16,18,female,Nederlands,3,115,guess,neutral,5,right,8,guess_choice,603,f,0,0,388,164137,1618236
16,18,female,Nederlands,3,115,guess,neutral,5,right,8,guess_outcome,0,undefined,0,0,388,162572,1619801
16,18,female,Nederlands,3,115,ITC,neutral,5,right,8,ITC_start,451,space,0,0,388,162116,1620257
16,18,female,Nederlands,3,115,ITC,neutral,5,right,8,ITC_choice,1284,f,0,0,388,160827,1621546
16,18,female,Nederlands,3,115,ITC,neutral,5,right,8,ITC_wait,0,undefined,0,0,388,160818,1621555
16,18,female,Nederlands,3,115,ITC,neutral,5,right,8,ITC_collect,624,k,0,0,388,160188,1622185
16,18,female,Nederlands,3,115,ITC,neutral,5,right,8,ITC_outcome,0,undefined,0,0,396,159183,1623190
16,18,female,Nederlands,3,116,guess,loss,10,right,2,guess_start,469,space,0,0,396,158707,1623666
16,18,female,Nederlands,3,116,guess,loss,10,right,2,guess_choice,642,f,0,0,396,158057,1624316
16,18,female,Nederlands,3,116,guess,loss,10,right,2,guess_outcome,0,undefined,0,0,381,156493,1625880
16,18,female,Nederlands,3,116,ITC,loss,10,right,2,ITC_start,553,space,0,0,381,155937,1626436
16,18,female,Nederlands,3,116,ITC,loss,10,right,2,ITC_choice,586,f,0,0,381,155347,1627026
16,18,female,Nederlands,3,116,ITC,loss,10,right,2,ITC_wait,0,undefined,0,0,381,155338,1627035
16,18,female,Nederlands,3,116,ITC,loss,10,right,2,ITC_collect,694,k,0,0,381,154638,1627735
16,18,female,Nederlands,3,116,ITC,loss,10,right,2,ITC_outcome,0,undefined,0,0,383,153613,1628760
16,18,female,Nederlands,3,117,guess,neutral,5,right,1,guess_start,491,space,0,0,383,153117,1629256
16,18,female,Nederlands,3,117,guess,neutral,5,right,1,guess_choice,719,j,0,0,383,152387,1629986
16,18,female,Nederlands,3,117,guess,neutral,5,right,1,guess_outcome,0,undefined,0,0,383,150822,1631551
16,18,female,Nederlands,3,117,ITC,neutral,5,right,1,ITC_start,471,space,0,0,383,150347,1632026
16,18,female,Nederlands,3,117,ITC,neutral,5,right,1,ITC_choice,645,f,0,0,383,149697,1632676
16,18,female,Nederlands,3,117,ITC,neutral,5,right,1,ITC_wait,0,undefined,0,0,383,149689,1632684
16,18,female,Nederlands,3,117,ITC,neutral,5,right,1,ITC_collect,1667,k,0,0,383,148017,1634356
16,18,female,Nederlands,3,117,ITC,neutral,5,right,1,ITC_outcome,0,undefined,0,0,384,147003,1635370
16,18,female,Nederlands,3,118,guess,loss,5,left,10,guess_start,881,space,0,0,384,146117,1636256
16,18,female,Nederlands,3,118,guess,loss,5,left,10,guess_choice,610,j,0,0,384,145497,1636876
16,18,female,Nederlands,3,118,guess,loss,5,left,10,guess_outcome,0,undefined,0,0,369,143933,1638440
16,18,female,Nederlands,3,118,ITC,loss,5,left,10,ITC_start,602,space,0,0,369,143326,1639047
16,18,female,Nederlands,3,118,ITC,loss,5,left,10,ITC_choice,953,j,0,0,369,142367,1640006
16,18,female,Nederlands,3,118,ITC,loss,5,left,10,ITC_wait,0,undefined,0,0,369,142357,1640016
16,18,female,Nederlands,3,118,ITC,loss,5,left,10,ITC_collect,1477,k,0,0,369,140877,1641496
16,18,female,Nederlands,3,118,ITC,loss,5,left,10,ITC_outcome,0,undefined,0,0,379,139862,1642511
16,18,female,Nederlands,3,119,guess,loss,5,left,13,guess_start,571,space,0,0,379,139287,1643086
16,18,female,Nederlands,3,119,guess,loss,5,left,13,guess_choice,749,j,0,0,379,138528,1643845
16,18,female,Nederlands,3,119,guess,loss,5,left,13,guess_outcome,0,undefined,0,0,364,136966,1645407
16,18,female,Nederlands,3,119,ITC,loss,5,left,13,ITC_start,625,space,0,0,364,136337,1646036
16,18,female,Nederlands,3,119,ITC,loss,5,left,13,ITC_choice,744,j,0,0,364,135587,1646786
16,18,female,Nederlands,3,119,ITC,loss,5,left,13,ITC_wait,0,undefined,0,0,364,135580,1646793
16,18,female,Nederlands,3,119,ITC,loss,5,left,13,ITC_collect,3839,k,0,0,364,131737,1650636
16,18,female,Nederlands,3,119,ITC,loss,5,left,13,ITC_outcome,0,undefined,0,0,377,130721,1651652
16,18,female,Nederlands,3,120,guess,loss,5,left,3,guess_start,680,space,0,0,377,130037,1652336
16,18,female,Nederlands,3,120,guess,loss,5,left,3,guess_choice,611,j,0,0,377,129417,1652956
16,18,female,Nederlands,3,120,guess,loss,5,left,3,guess_outcome,0,undefined,0,0,362,127853,1654520
16,18,female,Nederlands,3,120,ITC,loss,5,left,3,ITC_start,563,space,0,0,362,127287,1655086
16,18,female,Nederlands,3,120,ITC,loss,5,left,3,ITC_choice,605,j,0,0,362,126676,1655697
16,18,female,Nederlands,3,120,ITC,loss,5,left,3,ITC_wait,0,undefined,0,0,362,126668,1655705
16,18,female,Nederlands,3,120,ITC,loss,5,left,3,ITC_collect,1156,k,0,0,362,125507,1656866
16,18,female,Nederlands,3,120,ITC,loss,5,left,3,ITC_outcome,0,undefined,0,0,365,124492,1657881
16,18,female,Nederlands,3,121,guess,neutral,10,left,7,guess_start,748,space,0,0,365,123737,1658636
16,18,female,Nederlands,3,121,guess,neutral,10,left,7,guess_choice,581,f,0,0,365,123147,1659226
16,18,female,Nederlands,3,121,guess,neutral,10,left,7,guess_outcome,0,undefined,0,0,365,121582,1660791
16,18,female,Nederlands,3,121,ITC,neutral,10,left,7,ITC_start,1932,space,0,0,365,119647,1662726
16,18,female,Nederlands,3,121,ITC,neutral,10,left,7,ITC_choice,582,j,0,0,365,119057,1663316
16,18,female,Nederlands,3,121,ITC,neutral,10,left,7,ITC_wait,0,undefined,0,0,365,119053,1663320
16,18,female,Nederlands,3,121,ITC,neutral,10,left,7,ITC_collect,1351,k,0,0,365,117697,1664676
16,18,female,Nederlands,3,121,ITC,neutral,10,left,7,ITC_outcome,0,undefined,0,0,372,116683,1665690
16,18,female,Nederlands,3,122,guess,loss,5,right,15,guess_start,560,space,0,0,372,116117,1666256
16,18,female,Nederlands,3,122,guess,loss,5,right,15,guess_choice,710,f,0,0,372,115397,1666976
16,18,female,Nederlands,3,122,guess,loss,5,right,15,guess_outcome,0,undefined,0,0,357,113832,1668541
16,18,female,Nederlands,3,122,ITC,loss,5,right,15,ITC_start,560,space,0,0,357,113268,1669105
16,18,female,Nederlands,3,122,ITC,loss,5,right,15,ITC_wait,0,undefined,0,0,357,112480,1669893
16,18,female,Nederlands,3,122,ITC,loss,5,right,15,ITC_choice,776,f,0,0,357,112487,1669886
16,18,female,Nederlands,3,122,ITC,loss,5,right,15,ITC_collect,3106,k,0,0,357,109367,1673006
16,18,female,Nederlands,3,122,ITC,loss,5,right,15,ITC_outcome,0,undefined,0,0,372,108353,1674020
16,18,female,Nederlands,3,123,guess,loss,5,right,2,guess_start,631,space,0,0,372,107717,1674656
16,18,female,Nederlands,3,123,guess,loss,5,right,2,guess_choice,909,f,0,0,372,106799,1675574
16,18,female,Nederlands,3,123,guess,loss,5,right,2,guess_outcome,0,undefined,0,0,357,105234,1677139
16,18,female,Nederlands,3,123,ITC,loss,5,right,2,ITC_start,554,space,0,0,357,104677,1677696
16,18,female,Nederlands,3,123,ITC,loss,5,right,2,ITC_choice,647,f,0,0,357,104027,1678346
16,18,female,Nederlands,3,123,ITC,loss,5,right,2,ITC_wait,0,undefined,0,0,357,104022,1678351
16,18,female,Nederlands,3,123,ITC,loss,5,right,2,ITC_collect,1340,k,0,0,357,102676,1679697
16,18,female,Nederlands,3,123,ITC,loss,5,right,2,ITC_outcome,0,undefined,0,0,359,101665,1680708
16,18,female,Nederlands,3,124,guess,loss,10,left,7,guess_start,723,space,0,0,359,100936,1681437
16,18,female,Nederlands,3,124,guess,loss,10,left,7,guess_choice,678,j,0,0,359,100247,1682126
16,18,female,Nederlands,3,124,guess,loss,10,left,7,guess_outcome,0,undefined,0,0,344,98688,1683685
16,18,female,Nederlands,3,124,ITC,loss,10,left,7,ITC_start,7398,space,0,0,344,91285,1691088
16,18,female,Nederlands,3,124,ITC,loss,10,left,7,ITC_choice,1145,j,0,0,344,90136,1692237
16,18,female,Nederlands,3,124,ITC,loss,10,left,7,ITC_wait,0,undefined,0,0,344,90130,1692243
16,18,female,Nederlands,3,124,ITC,loss,10,left,7,ITC_collect,5638,k,0,0,344,84485,1697888
16,18,female,Nederlands,3,124,ITC,loss,10,left,7,ITC_outcome,0,undefined,0,0,351,83472,1698901
16,18,female,Nederlands,3,125,guess,win,10,left,1,guess_start,2880,space,0,0,351,80586,1701787
16,18,female,Nederlands,3,125,guess,win,10,left,1,guess_choice,592,j,0,0,351,79986,1702387
16,18,female,Nederlands,3,125,guess,win,10,left,1,guess_outcome,0,undefined,0,0,371,78421,1703952
16,18,female,Nederlands,3,125,ITC,win,10,left,1,ITC_start,1229,space,0,0,371,77187,1705186
16,18,female,Nederlands,3,125,ITC,win,10,left,1,ITC_choice,735,j,0,0,371,76447,1705926
16,18,female,Nederlands,3,125,ITC,win,10,left,1,ITC_wait,0,undefined,0,0,371,76439,1705934
16,18,female,Nederlands,3,125,ITC,win,10,left,1,ITC_collect,1547,k,0,0,371,74886,1707487
16,18,female,Nederlands,3,125,ITC,win,10,left,1,ITC_outcome,0,undefined,0,0,372,73871,1708502
16,18,female,Nederlands,3,126,guess,neutral,5,right,12,guess_start,790,space,0,0,372,73076,1709297
16,18,female,Nederlands,3,126,guess,neutral,5,right,12,guess_choice,531,f,0,0,372,72536,1709837
16,18,female,Nederlands,3,126,guess,neutral,5,right,12,guess_outcome,0,undefined,0,0,372,70972,1711401
16,18,female,Nederlands,3,126,ITC,neutral,5,right,12,ITC_start,923,space,0,0,372,70046,1712327
16,18,female,Nederlands,3,126,ITC,neutral,5,right,12,ITC_choice,1356,f,0,0,372,68685,1713688
16,18,female,Nederlands,3,126,ITC,neutral,5,right,12,ITC_wait,0,undefined,0,0,372,68677,1713696
16,18,female,Nederlands,3,126,ITC,neutral,5,right,12,ITC_collect,1517,k,0,0,372,67156,1715217
16,18,female,Nederlands,3,126,ITC,neutral,5,right,12,ITC_outcome,0,undefined,0,0,384,66142,1716231
16,18,female,Nederlands,3,127,guess,loss,5,right,4,guess_start,860,space,0,0,384,65276,1717097
16,18,female,Nederlands,3,127,guess,loss,5,right,4,guess_choice,761,j,0,0,384,64506,1717867
16,18,female,Nederlands,3,127,guess,loss,5,right,4,guess_outcome,0,undefined,0,0,369,62941,1719432
16,18,female,Nederlands,3,127,ITC,loss,5,right,4,ITC_start,831,space,0,0,369,62107,1720266
16,18,female,Nederlands,3,127,ITC,loss,5,right,4,ITC_choice,886,f,0,0,369,61217,1721156
16,18,female,Nederlands,3,127,ITC,loss,5,right,4,ITC_wait,0,undefined,0,0,369,61213,1721160
16,18,female,Nederlands,3,127,ITC,loss,5,right,4,ITC_collect,1122,k,0,0,369,60087,1722286
16,18,female,Nederlands,3,127,ITC,loss,5,right,4,ITC_outcome,0,undefined,0,0,373,59072,1723301
16,18,female,Nederlands,3,128,guess,win,10,left,7,guess_start,562,space,0,0,373,58506,1723867
16,18,female,Nederlands,3,128,guess,win,10,left,7,guess_choice,962,f,0,0,373,57536,1724837
16,18,female,Nederlands,3,128,guess,win,10,left,7,guess_outcome,0,undefined,0,0,393,55972,1726401
16,18,female,Nederlands,3,128,ITC,win,10,left,7,ITC_start,441,space,0,0,393,55526,1726847
16,18,female,Nederlands,3,128,ITC,win,10,left,7,ITC_wait,0,undefined,0,0,393,54397,1727976
16,18,female,Nederlands,3,128,ITC,win,10,left,7,ITC_choice,1116,j,0,0,393,54405,1727968
16,18,female,Nederlands,3,128,ITC,win,10,left,7,ITC_collect,4925,k,0,0,393,49467,1732906
16,18,female,Nederlands,3,128,ITC,win,10,left,7,ITC_outcome,0,undefined,0,0,400,48451,1733922
16,18,female,Nederlands,3,129,guess,neutral,5,left,2,guess_start,1238,space,0,0,400,47206,1735167
16,18,female,Nederlands,3,129,guess,neutral,5,left,2,guess_choice,725,f,0,0,400,46476,1735897
16,18,female,Nederlands,3,129,guess,neutral,5,left,2,guess_outcome,0,undefined,0,0,400,44911,1737462
16,18,female,Nederlands,3,129,ITC,neutral,5,left,2,ITC_start,582,space,0,0,400,44326,1738047
16,18,female,Nederlands,3,129,ITC,neutral,5,left,2,ITC_choice,1747,f,0,0,400,42575,1739798
16,18,female,Nederlands,3,129,ITC,neutral,5,left,2,ITC_wait,0,undefined,0,0,400,37561,1744812
16,18,female,Nederlands,3,129,ITC,neutral,5,left,2,ITC_collect,1121,k,0,0,400,36435,1745938
16,18,female,Nederlands,3,129,ITC,neutral,5,left,2,ITC_outcome,0,undefined,0,0,420,35421,1746952
16,18,female,Nederlands,3,130,guess,neutral,5,right,4,guess_start,1302,space,0,0,420,34116,1748257
16,18,female,Nederlands,3,130,guess,neutral,5,right,4,guess_choice,570,f,0,0,420,33535,1748838
16,18,female,Nederlands,3,130,guess,neutral,5,right,4,guess_outcome,0,undefined,0,0,420,31971,1750402
16,18,female,Nederlands,3,130,ITC,neutral,5,right,4,ITC_start,461,space,0,0,420,31506,1750867
16,18,female,Nederlands,3,130,ITC,neutral,5,right,4,ITC_choice,776,f,0,0,420,30727,1751646
16,18,female,Nederlands,3,130,ITC,neutral,5,right,4,ITC_wait,0,undefined,0,0,420,30720,1751653
16,18,female,Nederlands,3,130,ITC,neutral,5,right,4,ITC_collect,2418,k,0,0,420,28297,1754076
16,18,female,Nederlands,3,130,ITC,neutral,5,right,4,ITC_outcome,0,undefined,0,0,424,27282,1755091
16,18,female,Nederlands,3,131,guess,win,5,left,10,guess_start,540,space,0,0,424,26736,1755637
16,18,female,Nederlands,3,131,guess,win,5,left,10,guess_choice,811,f,0,0,424,25915,1756458
16,18,female,Nederlands,3,131,guess,win,5,left,10,guess_outcome,0,undefined,0,0,444,24351,1758022
16,18,female,Nederlands,3,131,ITC,win,5,left,10,ITC_start,132,space,0,0,444,24215,1758158
16,18,female,Nederlands,3,131,ITC,win,5,left,10,ITC_choice,838,j,0,0,444,23374,1758999
16,18,female,Nederlands,3,131,ITC,win,5,left,10,ITC_wait,0,undefined,0,0,444,23365,1759008
16,18,female,Nederlands,3,131,ITC,win,5,left,10,ITC_collect,1044,k,0,0,444,22315,1760058
16,18,female,Nederlands,3,131,ITC,win,5,left,10,ITC_outcome,0,undefined,0,0,454,21301,1761072
16,18,female,Nederlands,3,132,guess,neutral,5,right,16,guess_start,5780,space,0,0,454,15515,1766858
16,18,female,Nederlands,3,132,guess,neutral,5,right,16,guess_choice,239,f,0,0,454,15266,1767107
16,18,female,Nederlands,3,132,guess,neutral,5,right,16,guess_outcome,0,undefined,0,0,454,13700,1768673
16,18,female,Nederlands,3,132,ITC,neutral,5,right,16,ITC_start,1823,space,0,0,454,11874,1770499
16,18,female,Nederlands,3,132,ITC,neutral,5,right,16,ITC_choice,1213,f,0,0,454,10654,1771719
16,18,female,Nederlands,3,132,ITC,neutral,5,right,16,ITC_wait,0,undefined,0,0,454,10646,1771727
16,18,female,Nederlands,3,132,ITC,neutral,5,right,16,ITC_collect,3047,k,0,0,454,7595,1774778
16,18,female,Nederlands,3,132,ITC,neutral,5,right,16,ITC_outcome,0,undefined,0,0,470,6581,1775792
16,18,female,Nederlands,3,133,guess,loss,5,right,11,guess_start,687,space,0,0,470,5885,1776488
16,18,female,Nederlands,3,133,guess,loss,5,right,11,guess_choice,752,f,0,0,470,5124,1777249
16,18,female,Nederlands,3,133,guess,loss,5,right,11,guess_outcome,0,undefined,0,0,455,3564,1778809
16,18,female,Nederlands,3,133,ITC,loss,5,right,11,ITC_start,556,space,0,0,455,3005,1779368
16,18,female,Nederlands,3,133,ITC,loss,5,right,11,ITC_choice,975,f,0,0,455,2026,1780347
16,18,female,Nederlands,3,133,ITC,loss,5,right,11,ITC_wait,0,undefined,0,0,455,2020,1780353
16,18,female,Nederlands,3,133,ITC,loss,5,right,11,ITC_collect,0,undefined,0,0,455,-9,1782382
16,18,female,Nederlands,4,134,guess,win,10,right,8,guess_start,2517,space,0,0,0,477479,1832833
16,18,female,Nederlands,4,134,guess,win,10,right,8,guess_choice,1260,f,0,0,0,476209,1834103
16,18,female,Nederlands,4,134,guess,win,10,right,8,guess_outcome,0,undefined,0,0,20,474647,1835665
16,18,female,Nederlands,4,134,ITC,win,10,right,8,ITC_start,685,space,0,0,20,473959,1836353
16,18,female,Nederlands,4,134,ITC,win,10,right,8,ITC_choice,786,f,0,0,20,473168,1837144
16,18,female,Nederlands,4,134,ITC,win,10,right,8,ITC_wait,0,undefined,0,0,20,473160,1837152
16,18,female,Nederlands,4,134,ITC,win,10,right,8,ITC_collect,1232,k,0,0,20,471919,1838393
16,18,female,Nederlands,4,134,ITC,win,10,right,8,ITC_outcome,0,undefined,0,0,28,470908,1839404
16,18,female,Nederlands,4,135,guess,win,5,right,6,guess_start,476,space,0,0,28,470428,1839884
16,18,female,Nederlands,4,135,guess,win,5,right,6,guess_choice,532,f,0,0,28,469888,1840424
16,18,female,Nederlands,4,135,guess,win,5,right,6,guess_outcome,0,undefined,0,0,48,468328,1841984
16,18,female,Nederlands,4,135,ITC,win,5,right,6,ITC_start,487,space,0,0,48,467838,1842474
16,18,female,Nederlands,4,135,ITC,win,5,right,6,ITC_choice,705,f,0,0,48,467128,1843184
16,18,female,Nederlands,4,135,ITC,win,5,right,6,ITC_wait,0,undefined,0,0,48,467123,1843189
16,18,female,Nederlands,4,135,ITC,win,5,right,6,ITC_collect,11880,k,0,0,48,455238,1855074
16,18,female,Nederlands,4,135,ITC,win,5,right,6,ITC_outcome,0,undefined,0,0,54,454221,1856091
