subjectID,age,gender,nationality,block_number,trial_number,trial_type,guess_outcome,delay_time,delay_pos,immediate_amount,stage,respRT,respKey,blur_count,focus_count,total_points,remaining_duration,time_elapsed
46,18,female,Belg,1,1,guess,neutral,10,left,1,guess_start,7754,space,0,0,0,472245,430243
46,18,female,Belg,1,1,guess,neutral,10,left,1,guess_choice,1402,f,0,0,0,470840,431648
46,18,female,Belg,1,1,guess,neutral,10,left,1,guess_outcome,0,undefined,0,0,0,469287,433201
46,18,female,Belg,1,1,ITC,neutral,10,left,1,ITC_start,6185,space,0,0,0,463101,439387
46,18,female,Belg,1,1,ITC,neutral,10,left,1,ITC_choice,4674,f,0,0,0,458425,444063
46,18,female,Belg,1,1,ITC,neutral,10,left,1,ITC_wait,0,undefined,0,0,0,448418,454070
46,18,female,Belg,1,1,ITC,neutral,10,left,1,ITC_collect,1865,k,0,0,0,446550,455938
46,18,female,Belg,1,1,ITC,neutral,10,left,1,ITC_outcome,0,undefined,0,0,20,445535,456953
46,18,female,Belg,1,2,guess,win,10,right,8,guess_start,1940,space,0,0,20,443594,458894
46,18,female,Belg,1,2,guess,win,10,right,8,guess_choice,1965,j,0,0,20,441626,460862
46,18,female,Belg,1,2,guess,win,10,right,8,guess_outcome,0,undefined,0,0,40,440062,462426
46,18,female,Belg,1,2,ITC,win,10,right,8,ITC_start,1422,space,0,0,40,438640,463848
46,18,female,Belg,1,2,ITC,win,10,right,8,ITC_choice,2802,j,0,0,40,435837,466651
46,18,female,Belg,1,2,ITC,win,10,right,8,ITC_wait,0,undefined,0,0,40,425825,476663
46,18,female,Belg,1,2,ITC,win,10,right,8,ITC_collect,15985,k,0,0,40,409839,492649
46,18,female,Belg,1,2,ITC,win,10,right,8,ITC_outcome,0,undefined,0,0,60,408832,493656
46,18,female,Belg,1,3,guess,neutral,5,right,16,guess_start,1240,space,0,0,60,407589,494899
46,18,female,Belg,1,3,guess,neutral,5,right,16,guess_choice,1517,f,0,0,60,406070,496418
46,18,female,Belg,1,3,guess,neutral,5,right,16,guess_outcome,0,undefined,0,0,60,404514,497974
46,18,female,Belg,1,3,ITC,neutral,5,right,16,ITC_start,649,space,0,0,60,403864,498624
46,18,female,Belg,1,3,ITC,neutral,5,right,16,ITC_choice,2716,f,0,0,60,401147,501341
46,18,female,Belg,1,3,ITC,neutral,5,right,16,ITC_wait,0,undefined,0,0,60,401144,501344
46,18,female,Belg,1,3,ITC,neutral,5,right,16,ITC_collect,2988,k,0,0,60,398155,504333
46,18,female,Belg,1,3,ITC,neutral,5,right,16,ITC_outcome,0,undefined,0,0,76,397145,505343
46,18,female,Belg,1,4,guess,neutral,10,right,8,guess_start,1724,space,0,0,76,395421,507067
46,18,female,Belg,1,4,guess,neutral,10,right,8,guess_choice,1167,f,0,0,76,394252,508236
46,18,female,Belg,1,4,guess,neutral,10,right,8,guess_outcome,0,undefined,0,0,76,392698,509790
46,18,female,Belg,1,4,ITC,neutral,10,right,8,ITC_start,1305,space,0,0,76,391391,511097
46,18,female,Belg,1,4,ITC,neutral,10,right,8,ITC_choice,2710,j,0,0,76,388681,513807
46,18,female,Belg,1,4,ITC,neutral,10,right,8,ITC_wait,0,undefined,0,0,76,378672,523816
46,18,female,Belg,1,4,ITC,neutral,10,right,8,ITC_collect,1442,k,0,0,76,377229,525259
46,18,female,Belg,1,4,ITC,neutral,10,right,8,ITC_outcome,0,undefined,0,0,96,376215,526273
46,18,female,Belg,1,5,guess,win,5,left,7,guess_start,3301,space,0,0,96,372913,529575
46,18,female,Belg,1,5,guess,win,5,left,7,guess_choice,1183,f,0,0,96,371728,530760
46,18,female,Belg,1,5,guess,win,5,left,7,guess_outcome,0,undefined,0,0,116,370163,532325
46,18,female,Belg,1,5,ITC,win,5,left,7,ITC_start,1890,space,0,0,116,368272,534216
46,18,female,Belg,1,5,ITC,win,5,left,7,ITC_choice,4271,f,0,0,116,363998,538490
46,18,female,Belg,1,5,ITC,win,5,left,7,ITC_wait,0,undefined,0,0,116,358984,543504
46,18,female,Belg,1,5,ITC,win,5,left,7,ITC_collect,8508,k,0,0,116,350475,552013
46,18,female,Belg,1,5,ITC,win,5,left,7,ITC_outcome,0,undefined,0,0,136,349458,553030
46,18,female,Belg,1,6,guess,win,5,right,5,guess_start,760,space,0,0,136,348697,553791
46,18,female,Belg,1,6,guess,win,5,right,5,guess_choice,835,f,0,0,136,347860,554628
46,18,female,Belg,1,6,guess,win,5,right,5,guess_outcome,0,undefined,0,0,156,346301,556187
46,18,female,Belg,1,6,ITC,win,5,right,5,ITC_start,779,space,0,0,156,345521,556967
46,18,female,Belg,1,6,ITC,win,5,right,5,ITC_choice,1485,j,0,0,156,344034,558454
46,18,female,Belg,1,6,ITC,win,5,right,5,ITC_wait,0,undefined,0,0,156,339028,563460
46,18,female,Belg,1,6,ITC,win,5,right,5,ITC_collect,371,k,0,0,156,338656,563832
46,18,female,Belg,1,6,ITC,win,5,right,5,ITC_outcome,0,undefined,0,0,176,337640,564848
46,18,female,Belg,1,7,guess,win,5,left,3,guess_start,883,space,0,0,176,336756,565732
46,18,female,Belg,1,7,guess,win,5,left,3,guess_choice,1216,j,0,0,176,335538,566950
46,18,female,Belg,1,7,guess,win,5,left,3,guess_outcome,0,undefined,0,0,196,333984,568504
46,18,female,Belg,1,7,ITC,win,5,left,3,ITC_start,2672,space,0,0,196,331311,571177
46,18,female,Belg,1,7,ITC,win,5,left,3,ITC_choice,1476,j,0,0,196,329835,572653
46,18,female,Belg,1,7,ITC,win,5,left,3,ITC_wait,0,undefined,0,0,196,329833,572655
46,18,female,Belg,1,7,ITC,win,5,left,3,ITC_collect,1242,k,0,0,196,328590,573898
46,18,female,Belg,1,7,ITC,win,5,left,3,ITC_outcome,0,undefined,0,0,199,327582,574906
46,18,female,Belg,1,8,guess,loss,5,left,12,guess_start,1592,space,0,0,199,325989,576499
46,18,female,Belg,1,8,guess,loss,5,left,12,guess_choice,1630,j,0,0,199,324357,578131
46,18,female,Belg,1,8,guess,loss,5,left,12,guess_outcome,0,undefined,0,0,184,322798,579690
46,18,female,Belg,1,8,ITC,loss,5,left,12,ITC_start,1358,space,0,0,184,321439,581049
46,18,female,Belg,1,8,ITC,loss,5,left,12,ITC_choice,1294,f,0,0,184,320144,582344
46,18,female,Belg,1,8,ITC,loss,5,left,12,ITC_wait,0,undefined,0,0,184,315140,587348
46,18,female,Belg,1,8,ITC,loss,5,left,12,ITC_collect,1040,k,0,0,184,314098,588390
46,18,female,Belg,1,8,ITC,loss,5,left,12,ITC_outcome,0,undefined,0,0,204,313093,589395
46,18,female,Belg,1,9,guess,neutral,5,right,15,guess_start,828,space,0,0,204,312263,590225
46,18,female,Belg,1,9,guess,neutral,5,right,15,guess_choice,4998,j,0,0,204,307264,595224
46,18,female,Belg,1,9,guess,neutral,5,right,15,guess_outcome,0,undefined,0,0,204,305707,596781
46,18,female,Belg,1,9,ITC,neutral,5,right,15,ITC_start,829,space,0,0,204,304877,597611
46,18,female,Belg,1,9,ITC,neutral,5,right,15,ITC_choice,1451,f,0,0,204,303426,599062
46,18,female,Belg,1,9,ITC,neutral,5,right,15,ITC_wait,0,undefined,0,0,204,303423,599065
46,18,female,Belg,1,9,ITC,neutral,5,right,15,ITC_collect,1079,k,0,0,204,302343,600145
46,18,female,Belg,1,9,ITC,neutral,5,right,15,ITC_outcome,0,undefined,0,0,219,301327,601161
46,18,female,Belg,1,10,guess,loss,10,left,7,guess_start,507,space,0,0,219,300819,601669
46,18,female,Belg,1,10,guess,loss,10,left,7,guess_choice,1139,f,0,0,219,299678,602810
46,18,female,Belg,1,10,guess,loss,10,left,7,guess_outcome,0,undefined,0,0,204,298115,604373
46,18,female,Belg,1,10,ITC,loss,10,left,7,ITC_start,994,space,0,0,204,297120,605368
46,18,female,Belg,1,10,ITC,loss,10,left,7,ITC_choice,1458,f,0,0,204,295661,606827
46,18,female,Belg,1,10,ITC,loss,10,left,7,ITC_wait,0,undefined,0,0,204,285652,616836
46,18,female,Belg,1,10,ITC,loss,10,left,7,ITC_collect,852,k,0,0,204,284799,617689
46,18,female,Belg,1,10,ITC,loss,10,left,7,ITC_outcome,0,undefined,0,0,224,283783,618705
46,18,female,Belg,1,11,guess,loss,5,right,16,guess_start,764,space,0,0,224,283018,619470
46,18,female,Belg,1,11,guess,loss,5,right,16,guess_choice,1256,f,0,0,224,281761,620727
46,18,female,Belg,1,11,guess,loss,5,right,16,guess_outcome,0,undefined,0,0,209,280198,622290
46,18,female,Belg,1,11,ITC,loss,5,right,16,ITC_start,107,space,0,0,209,280090,622398
46,18,female,Belg,1,11,ITC,loss,5,right,16,ITC_choice,2134,j,0,0,209,277955,624533
46,18,female,Belg,1,11,ITC,loss,5,right,16,ITC_wait,0,undefined,0,0,209,272943,629545
46,18,female,Belg,1,11,ITC,loss,5,right,16,ITC_collect,679,k,0,0,209,272263,630225
46,18,female,Belg,1,11,ITC,loss,5,right,16,ITC_outcome,0,undefined,0,0,229,271258,631230
46,18,female,Belg,1,12,guess,loss,10,right,8,guess_start,706,space,0,0,229,270550,631938
46,18,female,Belg,1,12,guess,loss,10,right,8,guess_choice,920,f,0,0,229,269629,632859
46,18,female,Belg,1,12,guess,loss,10,right,8,guess_outcome,0,undefined,0,0,214,268071,634417
46,18,female,Belg,1,12,ITC,loss,10,right,8,ITC_start,561,space,0,0,214,267509,634979
46,18,female,Belg,1,12,ITC,loss,10,right,8,ITC_choice,1569,j,0,0,214,265939,636549
46,18,female,Belg,1,12,ITC,loss,10,right,8,ITC_wait,0,undefined,0,0,214,255931,646557
46,18,female,Belg,1,12,ITC,loss,10,right,8,ITC_collect,990,k,0,0,214,254938,647550
46,18,female,Belg,1,12,ITC,loss,10,right,8,ITC_outcome,0,undefined,0,0,234,253922,648566
46,18,female,Belg,1,13,guess,neutral,5,left,8,guess_start,1254,space,0,0,234,252667,649821
46,18,female,Belg,1,13,guess,neutral,5,left,8,guess_choice,1372,j,0,0,234,251289,651199
46,18,female,Belg,1,13,guess,neutral,5,left,8,guess_outcome,0,undefined,0,0,234,249732,652756
46,18,female,Belg,1,13,ITC,neutral,5,left,8,ITC_start,710,space,0,0,234,249021,653467
46,18,female,Belg,1,13,ITC,neutral,5,left,8,ITC_choice,1394,j,0,0,234,247626,654862
46,18,female,Belg,1,13,ITC,neutral,5,left,8,ITC_wait,0,undefined,0,0,234,247624,654864
46,18,female,Belg,1,13,ITC,neutral,5,left,8,ITC_collect,984,k,0,0,234,246639,655849
46,18,female,Belg,1,13,ITC,neutral,5,left,8,ITC_outcome,0,undefined,0,0,242,245623,656865
46,18,female,Belg,1,14,guess,loss,5,left,3,guess_start,591,space,0,0,242,245031,657457
46,18,female,Belg,1,14,guess,loss,5,left,3,guess_choice,1580,f,0,0,242,243449,659039
46,18,female,Belg,1,14,guess,loss,5,left,3,guess_outcome,0,undefined,0,0,227,241893,660595
46,18,female,Belg,1,14,ITC,loss,5,left,3,ITC_start,912,space,0,0,227,240979,661509
46,18,female,Belg,1,14,ITC,loss,5,left,3,ITC_choice,1008,f,0,0,227,239969,662519
46,18,female,Belg,1,14,ITC,loss,5,left,3,ITC_wait,0,undefined,0,0,227,234958,667530
46,18,female,Belg,1,14,ITC,loss,5,left,3,ITC_collect,808,k,0,0,227,234148,668340
46,18,female,Belg,1,14,ITC,loss,5,left,3,ITC_outcome,0,undefined,0,0,247,233140,669348
46,18,female,Belg,1,15,guess,win,5,right,9,guess_start,654,space,0,0,247,232484,670004
46,18,female,Belg,1,15,guess,win,5,right,9,guess_choice,1150,j,0,0,247,231330,671158
46,18,female,Belg,1,15,guess,win,5,right,9,guess_outcome,0,undefined,0,0,267,229765,672723
46,18,female,Belg,1,15,ITC,win,5,right,9,ITC_start,671,space,0,0,267,229093,673395
46,18,female,Belg,1,15,ITC,win,5,right,9,ITC_choice,1302,j,0,0,267,227790,674698
46,18,female,Belg,1,15,ITC,win,5,right,9,ITC_wait,0,undefined,0,0,267,222789,679699
46,18,female,Belg,1,15,ITC,win,5,right,9,ITC_collect,392,k,0,0,267,222396,680092
46,18,female,Belg,1,15,ITC,win,5,right,9,ITC_outcome,0,undefined,0,0,287,221379,681109
46,18,female,Belg,1,16,guess,neutral,5,right,6,guess_start,364,space,0,0,287,221015,681473
46,18,female,Belg,1,16,guess,neutral,5,right,6,guess_choice,1648,j,0,0,287,219365,683123
46,18,female,Belg,1,16,guess,neutral,5,right,6,guess_outcome,0,undefined,0,0,287,217801,684687
46,18,female,Belg,1,16,ITC,neutral,5,right,6,ITC_start,429,space,0,0,287,217370,685118
46,18,female,Belg,1,16,ITC,neutral,5,right,6,ITC_choice,1085,j,0,0,287,216285,686203
46,18,female,Belg,1,16,ITC,neutral,5,right,6,ITC_wait,0,undefined,0,0,287,211283,691205
46,18,female,Belg,1,16,ITC,neutral,5,right,6,ITC_collect,353,k,0,0,287,210928,691560
46,18,female,Belg,1,16,ITC,neutral,5,right,6,ITC_outcome,0,undefined,0,0,307,209911,692577
46,18,female,Belg,1,17,guess,loss,5,right,5,guess_start,360,space,0,0,307,209551,692937
46,18,female,Belg,1,17,guess,loss,5,right,5,guess_choice,1052,f,0,0,307,208497,693991
46,18,female,Belg,1,17,guess,loss,5,right,5,guess_outcome,0,undefined,0,0,292,206943,695545
46,18,female,Belg,1,17,ITC,loss,5,right,5,ITC_start,918,space,0,0,292,206023,696465
46,18,female,Belg,1,17,ITC,loss,5,right,5,ITC_choice,924,f,0,0,292,205098,697390
46,18,female,Belg,1,17,ITC,loss,5,right,5,ITC_wait,0,undefined,0,0,292,205096,697392
46,18,female,Belg,1,17,ITC,loss,5,right,5,ITC_collect,937,k,0,0,292,204158,698330
46,18,female,Belg,1,17,ITC,loss,5,right,5,ITC_outcome,0,undefined,0,0,297,203153,699335
46,18,female,Belg,1,18,guess,loss,10,left,6,guess_start,560,space,0,0,297,202592,699896
46,18,female,Belg,1,18,guess,loss,10,left,6,guess_choice,1210,f,0,0,297,201380,701108
46,18,female,Belg,1,18,guess,loss,10,left,6,guess_outcome,0,undefined,0,0,282,199824,702664
46,18,female,Belg,1,18,ITC,loss,10,left,6,ITC_start,839,space,0,0,282,198982,703506
46,18,female,Belg,1,18,ITC,loss,10,left,6,ITC_choice,1014,f,0,0,282,197967,704521
46,18,female,Belg,1,18,ITC,loss,10,left,6,ITC_wait,0,undefined,0,0,282,187959,714529
46,18,female,Belg,1,18,ITC,loss,10,left,6,ITC_collect,331,k,0,0,282,187627,714861
46,18,female,Belg,1,18,ITC,loss,10,left,6,ITC_outcome,0,undefined,0,0,302,186620,715868
46,18,female,Belg,1,19,guess,neutral,5,left,1,guess_start,743,space,0,0,302,185876,716612
46,18,female,Belg,1,19,guess,neutral,5,left,1,guess_choice,827,f,0,0,302,185048,717440
46,18,female,Belg,1,19,guess,neutral,5,left,1,guess_outcome,0,undefined,0,0,302,183494,718994
46,18,female,Belg,1,19,ITC,neutral,5,left,1,ITC_start,538,space,0,0,302,182956,719532
46,18,female,Belg,1,19,ITC,neutral,5,left,1,ITC_choice,2341,f,0,0,302,180613,721875
46,18,female,Belg,1,19,ITC,neutral,5,left,1,ITC_wait,0,undefined,0,0,302,175603,726885
46,18,female,Belg,1,19,ITC,neutral,5,left,1,ITC_collect,580,k,0,0,302,175022,727466
46,18,female,Belg,1,19,ITC,neutral,5,left,1,ITC_outcome,0,undefined,0,0,322,174019,728469
46,18,female,Belg,1,20,guess,loss,5,right,13,guess_start,672,space,0,0,322,173344,729144
46,18,female,Belg,1,20,guess,loss,5,right,13,guess_choice,2532,f,0,0,322,170810,731678
46,18,female,Belg,1,20,guess,loss,5,right,13,guess_outcome,0,undefined,0,0,307,169246,733242
46,18,female,Belg,1,20,ITC,loss,5,right,13,ITC_start,186,space,0,0,307,169059,733429
46,18,female,Belg,1,20,ITC,loss,5,right,13,ITC_choice,1764,f,0,0,307,167294,735194
46,18,female,Belg,1,20,ITC,loss,5,right,13,ITC_wait,0,undefined,0,0,307,167292,735196
46,18,female,Belg,1,20,ITC,loss,5,right,13,ITC_collect,1113,k,0,0,307,166177,736311
46,18,female,Belg,1,20,ITC,loss,5,right,13,ITC_outcome,0,undefined,0,0,320,165160,737328
46,18,female,Belg,1,21,guess,neutral,5,right,5,guess_start,367,space,0,0,320,164790,737698
46,18,female,Belg,1,21,guess,neutral,5,right,5,guess_choice,1341,j,0,0,320,163448,739040
46,18,female,Belg,1,21,guess,neutral,5,right,5,guess_outcome,0,undefined,0,0,320,161880,740608
46,18,female,Belg,1,21,ITC,neutral,5,right,5,ITC_start,515,space,0,0,320,161364,741124
46,18,female,Belg,1,21,ITC,neutral,5,right,5,ITC_choice,2619,f,0,0,320,158743,743745
46,18,female,Belg,1,21,ITC,neutral,5,right,5,ITC_wait,0,undefined,0,0,320,158740,743748
46,18,female,Belg,1,21,ITC,neutral,5,right,5,ITC_collect,426,k,0,0,320,158313,744175
46,18,female,Belg,1,21,ITC,neutral,5,right,5,ITC_outcome,0,undefined,0,0,325,157308,745180
46,18,female,Belg,1,22,guess,neutral,10,right,7,guess_start,634,space,0,0,325,156673,745815
46,18,female,Belg,1,22,guess,neutral,10,right,7,guess_choice,1473,j,0,0,325,155198,747290
46,18,female,Belg,1,22,guess,neutral,10,right,7,guess_outcome,0,undefined,0,0,325,153638,748850
46,18,female,Belg,1,22,ITC,neutral,10,right,7,ITC_start,415,space,0,0,325,153222,749266
46,18,female,Belg,1,22,ITC,neutral,10,right,7,ITC_choice,1363,j,0,0,325,151859,750629
46,18,female,Belg,1,22,ITC,neutral,10,right,7,ITC_wait,0,undefined,0,0,325,141855,760633
46,18,female,Belg,1,22,ITC,neutral,10,right,7,ITC_collect,803,k,0,0,325,141050,761438
46,18,female,Belg,1,22,ITC,neutral,10,right,7,ITC_outcome,0,undefined,0,0,345,140043,762445
46,18,female,Belg,1,23,guess,win,10,left,3,guess_start,566,space,0,0,345,139476,763012
46,18,female,Belg,1,23,guess,win,10,left,3,guess_choice,1334,j,0,0,345,138141,764347
46,18,female,Belg,1,23,guess,win,10,left,3,guess_outcome,0,undefined,0,0,365,136588,765900
46,18,female,Belg,1,23,ITC,win,10,left,3,ITC_start,689,space,0,0,365,135898,766590
46,18,female,Belg,1,23,ITC,win,10,left,3,ITC_choice,1895,j,0,0,365,134002,768486
46,18,female,Belg,1,23,ITC,win,10,left,3,ITC_wait,0,undefined,0,0,365,134000,768488
46,18,female,Belg,1,23,ITC,win,10,left,3,ITC_collect,666,k,0,0,365,133333,769155
46,18,female,Belg,1,23,ITC,win,10,left,3,ITC_outcome,0,undefined,0,0,368,132323,770165
46,18,female,Belg,1,24,guess,win,5,left,2,guess_start,582,space,0,0,368,131740,770748
46,18,female,Belg,1,24,guess,win,5,left,2,guess_choice,753,f,0,0,368,130986,771502
46,18,female,Belg,1,24,guess,win,5,left,2,guess_outcome,0,undefined,0,0,388,129424,773064
46,18,female,Belg,1,24,ITC,win,5,left,2,ITC_start,387,space,0,0,388,129036,773452
46,18,female,Belg,1,24,ITC,win,5,left,2,ITC_choice,1024,j,0,0,388,128011,774477
46,18,female,Belg,1,24,ITC,win,5,left,2,ITC_wait,0,undefined,0,0,388,128009,774479
46,18,female,Belg,1,24,ITC,win,5,left,2,ITC_collect,966,k,0,0,388,127042,775446
46,18,female,Belg,1,24,ITC,win,5,left,2,ITC_outcome,0,undefined,0,0,390,126029,776459
46,18,female,Belg,1,25,guess,loss,5,left,2,guess_start,258,space,0,0,390,125770,776718
46,18,female,Belg,1,25,guess,loss,5,left,2,guess_choice,1038,f,0,0,390,124731,777757
46,18,female,Belg,1,25,guess,loss,5,left,2,guess_outcome,0,undefined,0,0,375,123169,779319
46,18,female,Belg,1,25,ITC,loss,5,left,2,ITC_start,447,space,0,0,375,122721,779767
46,18,female,Belg,1,25,ITC,loss,5,left,2,ITC_choice,1156,j,0,0,375,121564,780924
46,18,female,Belg,1,25,ITC,loss,5,left,2,ITC_wait,0,undefined,0,0,375,121562,780926
46,18,female,Belg,1,25,ITC,loss,5,left,2,ITC_collect,692,k,0,0,375,120869,781619
46,18,female,Belg,1,25,ITC,loss,5,left,2,ITC_outcome,0,undefined,0,0,377,119857,782631
46,18,female,Belg,1,26,guess,neutral,5,right,12,guess_start,34,space,0,0,377,119822,782666
46,18,female,Belg,1,26,guess,neutral,5,right,12,guess_choice,1481,j,0,0,377,118339,784149
46,18,female,Belg,1,26,guess,neutral,5,right,12,guess_outcome,0,undefined,0,0,377,116778,785710
46,18,female,Belg,1,26,ITC,neutral,5,right,12,ITC_start,320,space,0,0,377,116458,786030
46,18,female,Belg,1,26,ITC,neutral,5,right,12,ITC_choice,3284,j,0,0,377,113173,789315
46,18,female,Belg,1,26,ITC,neutral,5,right,12,ITC_wait,0,undefined,0,0,377,108161,794327
46,18,female,Belg,1,26,ITC,neutral,5,right,12,ITC_collect,1928,k,0,0,377,106231,796257
46,18,female,Belg,1,26,ITC,neutral,5,right,12,ITC_outcome,0,undefined,0,0,397,105217,797271
46,18,female,Belg,1,27,guess,loss,5,right,8,guess_start,670,space,0,0,397,104546,797942
46,18,female,Belg,1,27,guess,loss,5,right,8,guess_choice,1181,f,0,0,397,103364,799124
46,18,female,Belg,1,27,guess,loss,5,right,8,guess_outcome,0,undefined,0,0,382,101802,800686
46,18,female,Belg,1,27,ITC,loss,5,right,8,ITC_start,760,space,0,0,382,101041,801447
46,18,female,Belg,1,27,ITC,loss,5,right,8,ITC_choice,1529,f,0,0,382,99512,802976
46,18,female,Belg,1,27,ITC,loss,5,right,8,ITC_wait,0,undefined,0,0,382,99509,802979
46,18,female,Belg,1,27,ITC,loss,5,right,8,ITC_collect,776,k,0,0,382,98732,803756
46,18,female,Belg,1,27,ITC,loss,5,right,8,ITC_outcome,0,undefined,0,0,390,97730,804758
46,18,female,Belg,1,28,guess,win,10,left,4,guess_start,748,space,0,0,390,96981,805507
46,18,female,Belg,1,28,guess,win,10,left,4,guess_choice,664,j,0,0,390,96313,806175
46,18,female,Belg,1,28,guess,win,10,left,4,guess_outcome,0,undefined,0,0,410,94759,807729
46,18,female,Belg,1,28,ITC,win,10,left,4,ITC_start,598,space,0,0,410,94160,808328
46,18,female,Belg,1,28,ITC,win,10,left,4,ITC_choice,1082,f,0,0,410,93077,809411
46,18,female,Belg,1,28,ITC,win,10,left,4,ITC_wait,0,undefined,0,0,410,83074,819414
46,18,female,Belg,1,28,ITC,win,10,left,4,ITC_collect,6638,k,0,0,410,76435,826053
46,18,female,Belg,1,28,ITC,win,10,left,4,ITC_outcome,0,undefined,0,0,430,75427,827061
46,18,female,Belg,1,29,guess,neutral,5,left,10,guess_start,332,space,0,0,430,75094,827394
46,18,female,Belg,1,29,guess,neutral,5,left,10,guess_choice,1475,j,0,0,430,73617,828871
46,18,female,Belg,1,29,guess,neutral,5,left,10,guess_outcome,0,undefined,0,0,430,72051,830437
46,18,female,Belg,1,29,ITC,neutral,5,left,10,ITC_start,137,space,0,0,430,71913,830575
46,18,female,Belg,1,29,ITC,neutral,5,left,10,ITC_wait,0,undefined,0,0,430,70845,831643
46,18,female,Belg,1,29,ITC,neutral,5,left,10,ITC_choice,1065,j,0,0,430,70848,831640
46,18,female,Belg,1,29,ITC,neutral,5,left,10,ITC_collect,883,k,0,0,430,69961,832527
46,18,female,Belg,1,29,ITC,neutral,5,left,10,ITC_outcome,0,undefined,0,0,440,68949,833539
46,18,female,Belg,1,30,guess,neutral,5,left,2,guess_start,444,space,0,0,440,68504,833984
46,18,female,Belg,1,30,guess,neutral,5,left,2,guess_choice,1413,f,0,0,440,67089,835399
46,18,female,Belg,1,30,guess,neutral,5,left,2,guess_outcome,0,undefined,0,0,440,65527,836961
46,18,female,Belg,1,30,ITC,neutral,5,left,2,ITC_start,406,space,0,0,440,65119,837369
46,18,female,Belg,1,30,ITC,neutral,5,left,2,ITC_choice,1577,j,0,0,440,63542,838946
46,18,female,Belg,1,30,ITC,neutral,5,left,2,ITC_wait,0,undefined,0,0,440,63539,838949
46,18,female,Belg,1,30,ITC,neutral,5,left,2,ITC_collect,571,k,0,0,440,62968,839520
46,18,female,Belg,1,30,ITC,neutral,5,left,2,ITC_outcome,0,undefined,0,0,442,61954,840534
46,18,female,Belg,1,31,guess,loss,5,left,11,guess_start,716,space,0,0,442,61236,841252
46,18,female,Belg,1,31,guess,loss,5,left,11,guess_choice,1183,f,0,0,442,60053,842435
46,18,female,Belg,1,31,guess,loss,5,left,11,guess_outcome,0,undefined,0,0,427,58493,843995
46,18,female,Belg,1,31,ITC,loss,5,left,11,ITC_start,704,space,0,0,427,57789,844699
46,18,female,Belg,1,31,ITC,loss,5,left,11,ITC_choice,1138,j,0,0,427,56650,845838
46,18,female,Belg,1,31,ITC,loss,5,left,11,ITC_wait,0,undefined,0,0,427,56647,845841
46,18,female,Belg,1,31,ITC,loss,5,left,11,ITC_collect,879,k,0,0,427,55768,846720
46,18,female,Belg,1,31,ITC,loss,5,left,11,ITC_outcome,0,undefined,0,0,438,54765,847723
46,18,female,Belg,1,32,guess,loss,5,right,7,guess_start,595,space,0,0,438,54169,848319
46,18,female,Belg,1,32,guess,loss,5,right,7,guess_choice,718,j,0,0,438,53450,849038
46,18,female,Belg,1,32,guess,loss,5,right,7,guess_outcome,0,undefined,0,0,423,51883,850605
46,18,female,Belg,1,32,ITC,loss,5,right,7,ITC_start,409,space,0,0,423,51474,851014
46,18,female,Belg,1,32,ITC,loss,5,right,7,ITC_choice,14,j,0,0,423,51459,851029
46,18,female,Belg,1,32,ITC,loss,5,right,7,ITC_wait,0,undefined,0,0,423,46451,856037
46,18,female,Belg,1,32,ITC,loss,5,right,7,ITC_collect,3619,k,0,0,423,42831,859657
46,18,female,Belg,1,32,ITC,loss,5,right,7,ITC_outcome,0,undefined,0,0,443,41823,860665
46,18,female,Belg,1,33,guess,loss,5,right,6,guess_start,399,space,0,0,443,41423,861065
46,18,female,Belg,1,33,guess,loss,5,right,6,guess_choice,1088,f,0,0,443,40334,862154
46,18,female,Belg,1,33,guess,loss,5,right,6,guess_outcome,0,undefined,0,0,428,38776,863712
46,18,female,Belg,1,33,ITC,loss,5,right,6,ITC_start,756,space,0,0,428,38020,864468
46,18,female,Belg,1,33,ITC,loss,5,right,6,ITC_choice,1152,f,0,0,428,36867,865621
46,18,female,Belg,1,33,ITC,loss,5,right,6,ITC_wait,0,undefined,0,0,428,36865,865623
46,18,female,Belg,1,33,ITC,loss,5,right,6,ITC_collect,963,k,0,0,428,35901,866587
46,18,female,Belg,1,33,ITC,loss,5,right,6,ITC_outcome,0,undefined,0,0,434,34887,867601
46,18,female,Belg,1,34,guess,win,5,right,11,guess_start,473,space,0,0,434,34413,868075
46,18,female,Belg,1,34,guess,win,5,right,11,guess_choice,1108,f,0,0,434,33303,869185
46,18,female,Belg,1,34,guess,win,5,right,11,guess_outcome,0,undefined,0,0,454,31742,870746
46,18,female,Belg,1,34,ITC,win,5,right,11,ITC_start,477,space,0,0,454,31265,871223
46,18,female,Belg,1,34,ITC,win,5,right,11,ITC_choice,994,f,0,0,454,30270,872218
46,18,female,Belg,1,34,ITC,win,5,right,11,ITC_wait,0,undefined,0,0,454,30267,872221
46,18,female,Belg,1,34,ITC,win,5,right,11,ITC_collect,986,k,0,0,454,29281,873207
46,18,female,Belg,1,34,ITC,win,5,right,11,ITC_outcome,0,undefined,0,0,465,28266,874222
46,18,female,Belg,1,35,guess,win,5,left,12,guess_start,617,space,0,0,465,27648,874840
46,18,female,Belg,1,35,guess,win,5,left,12,guess_choice,570,f,0,0,465,27076,875412
46,18,female,Belg,1,35,guess,win,5,left,12,guess_outcome,0,undefined,0,0,485,25515,876973
46,18,female,Belg,1,35,ITC,win,5,left,12,ITC_start,516,space,0,0,485,24998,877490
46,18,female,Belg,1,35,ITC,win,5,left,12,ITC_choice,2434,f,0,0,485,22563,879925
46,18,female,Belg,1,35,ITC,win,5,left,12,ITC_wait,0,undefined,0,0,485,17547,884941
46,18,female,Belg,1,35,ITC,win,5,left,12,ITC_collect,343,k,0,0,485,17202,885286
46,18,female,Belg,1,35,ITC,win,5,left,12,ITC_outcome,0,undefined,0,0,505,16189,886299
46,18,female,Belg,1,36,guess,neutral,5,left,13,guess_start,608,space,0,0,505,15580,886908
46,18,female,Belg,1,36,guess,neutral,5,left,13,guess_choice,986,f,0,0,505,14592,887896
46,18,female,Belg,1,36,guess,neutral,5,left,13,guess_outcome,0,undefined,0,0,505,13028,889460
46,18,female,Belg,1,36,ITC,neutral,5,left,13,ITC_start,793,space,0,0,505,12233,890255
46,18,female,Belg,1,36,ITC,neutral,5,left,13,ITC_choice,1209,j,0,0,505,11024,891464
46,18,female,Belg,1,36,ITC,neutral,5,left,13,ITC_wait,0,undefined,0,0,505,11022,891466
46,18,female,Belg,1,36,ITC,neutral,5,left,13,ITC_collect,650,k,0,0,505,10370,892118
46,18,female,Belg,1,36,ITC,neutral,5,left,13,ITC_outcome,0,undefined,0,0,518,9354,893134
46,18,female,Belg,1,37,guess,neutral,10,left,5,guess_start,395,space,0,0,518,8958,893530
46,18,female,Belg,1,37,guess,neutral,10,left,5,guess_choice,604,f,0,0,518,8352,894136
46,18,female,Belg,1,37,guess,neutral,10,left,5,guess_outcome,0,undefined,0,0,518,6798,895690
46,18,female,Belg,1,37,ITC,neutral,10,left,5,ITC_start,528,space,0,0,518,6269,896219
46,18,female,Belg,1,37,ITC,neutral,10,left,5,ITC_choice,1081,j,0,0,518,5188,897300
46,18,female,Belg,1,37,ITC,neutral,10,left,5,ITC_wait,0,undefined,0,0,518,5185,897303
46,18,female,Belg,1,37,ITC,neutral,10,left,5,ITC_collect,570,k,0,0,518,4614,897874
46,18,female,Belg,1,37,ITC,neutral,10,left,5,ITC_outcome,0,undefined,0,0,523,3606,898882
46,18,female,Belg,1,38,guess,neutral,5,right,14,guess_start,550,space,0,0,523,3055,899433
46,18,female,Belg,1,38,guess,neutral,5,right,14,guess_choice,711,f,0,0,523,2341,900147
46,18,female,Belg,1,38,guess,neutral,5,right,14,guess_outcome,0,undefined,0,0,523,777,901711
46,18,female,Belg,1,38,ITC,neutral,5,right,14,ITC_start,104,space,0,0,523,673,901815
46,18,female,Belg,1,38,ITC,neutral,5,right,14,ITC_choice,0,undefined,0,0,523,-3,902491
46,18,female,Belg,2,39,guess,win,5,left,4,guess_start,1059,space,0,0,0,478940,978775
46,18,female,Belg,2,39,guess,win,5,left,4,guess_choice,1168,f,0,0,0,477770,979945
46,18,female,Belg,2,39,guess,win,5,left,4,guess_outcome,0,undefined,0,0,20,476204,981511
46,18,female,Belg,2,39,ITC,win,5,left,4,ITC_start,824,space,0,0,20,475379,982336
46,18,female,Belg,2,39,ITC,win,5,left,4,ITC_choice,1515,j,0,0,20,473863,983852
46,18,female,Belg,2,39,ITC,win,5,left,4,ITC_wait,0,undefined,0,0,20,473861,983854
46,18,female,Belg,2,39,ITC,win,5,left,4,ITC_collect,411,k,0,0,20,473449,984266
46,18,female,Belg,2,39,ITC,win,5,left,4,ITC_outcome,0,undefined,0,0,24,472446,985269
46,18,female,Belg,2,40,guess,neutral,10,left,3,guess_start,474,space,0,0,24,471971,985744
46,18,female,Belg,2,40,guess,neutral,10,left,3,guess_choice,1408,j,0,0,24,470561,987154
46,18,female,Belg,2,40,guess,neutral,10,left,3,guess_outcome,0,undefined,0,0,24,468993,988722
46,18,female,Belg,2,40,ITC,neutral,10,left,3,ITC_start,499,space,0,0,24,468493,989222
46,18,female,Belg,2,40,ITC,neutral,10,left,3,ITC_choice,763,f,0,0,24,467730,989985
46,18,female,Belg,2,40,ITC,neutral,10,left,3,ITC_wait,0,undefined,0,0,24,457725,999990
46,18,female,Belg,2,40,ITC,neutral,10,left,3,ITC_collect,325,k,0,0,24,457399,1000316
46,18,female,Belg,2,40,ITC,neutral,10,left,3,ITC_outcome,0,undefined,0,0,44,456391,1001324
46,18,female,Belg,2,41,guess,win,5,right,1,guess_start,381,space,0,0,44,456009,1001706
46,18,female,Belg,2,41,guess,win,5,right,1,guess_choice,706,f,0,0,44,455301,1002414
46,18,female,Belg,2,41,guess,win,5,right,1,guess_outcome,0,undefined,0,0,64,453748,1003967
46,18,female,Belg,2,41,ITC,win,5,right,1,ITC_start,677,space,0,0,64,453070,1004645
46,18,female,Belg,2,41,ITC,win,5,right,1,ITC_choice,1452,f,0,0,64,451617,1006098
46,18,female,Belg,2,41,ITC,win,5,right,1,ITC_wait,0,undefined,0,0,64,451615,1006100
46,18,female,Belg,2,41,ITC,win,5,right,1,ITC_collect,768,k,0,0,64,450846,1006869
46,18,female,Belg,2,41,ITC,win,5,right,1,ITC_outcome,0,undefined,0,0,65,449830,1007885
46,18,female,Belg,2,42,guess,neutral,5,right,7,guess_start,300,space,0,0,65,449527,1008188
46,18,female,Belg,2,42,guess,neutral,5,right,7,guess_choice,1647,j,0,0,65,447877,1009838
46,18,female,Belg,2,42,guess,neutral,5,right,7,guess_outcome,0,undefined,0,0,65,446307,1011408
46,18,female,Belg,2,42,ITC,neutral,5,right,7,ITC_start,593,space,0,0,65,445714,1012001
46,18,female,Belg,2,42,ITC,neutral,5,right,7,ITC_choice,1724,j,0,0,65,443988,1013727
46,18,female,Belg,2,42,ITC,neutral,5,right,7,ITC_wait,0,undefined,0,0,65,438987,1018728
46,18,female,Belg,2,42,ITC,neutral,5,right,7,ITC_collect,396,k,0,0,65,438590,1019125
46,18,female,Belg,2,42,ITC,neutral,5,right,7,ITC_outcome,0,undefined,0,0,85,437574,1020141
46,18,female,Belg,2,43,guess,neutral,5,right,3,guess_start,1879,space,0,0,85,435694,1022021
46,18,female,Belg,2,43,guess,neutral,5,right,3,guess_choice,1407,j,0,0,85,434285,1023430
46,18,female,Belg,2,43,guess,neutral,5,right,3,guess_outcome,0,undefined,0,0,85,432721,1024994
46,18,female,Belg,2,43,ITC,neutral,5,right,3,ITC_start,572,space,0,0,85,432147,1025568
46,18,female,Belg,2,43,ITC,neutral,5,right,3,ITC_choice,1768,j,0,0,85,430378,1027337
46,18,female,Belg,2,43,ITC,neutral,5,right,3,ITC_wait,0,undefined,0,0,85,425363,1032352
46,18,female,Belg,2,43,ITC,neutral,5,right,3,ITC_collect,1556,k,0,0,85,423806,1033909
46,18,female,Belg,2,43,ITC,neutral,5,right,3,ITC_outcome,0,undefined,0,0,105,422789,1034926
46,18,female,Belg,2,44,guess,loss,5,right,15,guess_start,795,space,0,0,105,421993,1035722
46,18,female,Belg,2,44,guess,loss,5,right,15,guess_choice,711,j,0,0,105,421280,1036435
46,18,female,Belg,2,44,guess,loss,5,right,15,guess_outcome,0,undefined,0,0,90,419726,1037989
46,18,female,Belg,2,44,ITC,loss,5,right,15,ITC_start,892,space,0,0,90,418832,1038883
46,18,female,Belg,2,44,ITC,loss,5,right,15,ITC_choice,1175,f,0,0,90,417656,1040059
46,18,female,Belg,2,44,ITC,loss,5,right,15,ITC_wait,0,undefined,0,0,90,417653,1040062
46,18,female,Belg,2,44,ITC,loss,5,right,15,ITC_collect,818,k,0,0,90,416834,1040881
46,18,female,Belg,2,44,ITC,loss,5,right,15,ITC_outcome,0,undefined,0,0,105,415827,1041888
46,18,female,Belg,2,45,guess,win,5,right,14,guess_start,1477,space,0,0,105,414349,1043366
46,18,female,Belg,2,45,guess,win,5,right,14,guess_choice,855,f,0,0,105,413493,1044222
46,18,female,Belg,2,45,guess,win,5,right,14,guess_outcome,0,undefined,0,0,125,411926,1045789
46,18,female,Belg,2,45,ITC,win,5,right,14,ITC_start,575,space,0,0,125,411350,1046365
46,18,female,Belg,2,45,ITC,win,5,right,14,ITC_choice,1613,f,0,0,125,409736,1047979
46,18,female,Belg,2,45,ITC,win,5,right,14,ITC_wait,0,undefined,0,0,125,409734,1047981
46,18,female,Belg,2,45,ITC,win,5,right,14,ITC_collect,794,k,0,0,125,408939,1048776
46,18,female,Belg,2,45,ITC,win,5,right,14,ITC_outcome,0,undefined,0,0,139,407936,1049779
46,18,female,Belg,2,46,guess,loss,5,right,9,guess_start,927,space,0,0,139,407008,1050707
46,18,female,Belg,2,46,guess,loss,5,right,9,guess_choice,1242,j,0,0,139,405764,1051951
46,18,female,Belg,2,46,guess,loss,5,right,9,guess_outcome,0,undefined,0,0,124,404201,1053514
46,18,female,Belg,2,46,ITC,loss,5,right,9,ITC_start,523,space,0,0,124,403677,1054038
46,18,female,Belg,2,46,ITC,loss,5,right,9,ITC_choice,3125,j,0,0,124,400551,1057164
46,18,female,Belg,2,46,ITC,loss,5,right,9,ITC_wait,0,undefined,0,0,124,395536,1062179
46,18,female,Belg,2,46,ITC,loss,5,right,9,ITC_collect,5038,k,0,0,124,390497,1067218
46,18,female,Belg,2,46,ITC,loss,5,right,9,ITC_outcome,0,undefined,0,0,144,389486,1068229
46,18,female,Belg,2,47,guess,loss,5,left,10,guess_start,397,space,0,0,144,389087,1068628
46,18,female,Belg,2,47,guess,loss,5,left,10,guess_choice,648,f,0,0,144,388438,1069277
46,18,female,Belg,2,47,guess,loss,5,left,10,guess_outcome,0,undefined,0,0,129,386880,1070835
46,18,female,Belg,2,47,ITC,loss,5,left,10,ITC_start,996,space,0,0,129,385883,1071832
46,18,female,Belg,2,47,ITC,loss,5,left,10,ITC_choice,1163,j,0,0,129,384718,1072997
46,18,female,Belg,2,47,ITC,loss,5,left,10,ITC_wait,0,undefined,0,0,129,384712,1073003
46,18,female,Belg,2,47,ITC,loss,5,left,10,ITC_collect,779,k,0,0,129,383931,1073784
46,18,female,Belg,2,47,ITC,loss,5,left,10,ITC_outcome,0,undefined,0,0,139,382924,1074791
46,18,female,Belg,2,48,guess,win,10,right,5,guess_start,341,space,0,0,139,382582,1075133
46,18,female,Belg,2,48,guess,win,10,right,5,guess_choice,1284,j,0,0,139,381296,1076419
46,18,female,Belg,2,48,guess,win,10,right,5,guess_outcome,0,undefined,0,0,159,379739,1077976
46,18,female,Belg,2,48,ITC,win,10,right,5,ITC_start,534,space,0,0,159,379204,1078511
46,18,female,Belg,2,48,ITC,win,10,right,5,ITC_choice,1,j,0,0,159,379203,1078512
46,18,female,Belg,2,48,ITC,win,10,right,5,ITC_wait,0,undefined,0,0,159,369200,1088515
46,18,female,Belg,2,48,ITC,win,10,right,5,ITC_collect,4508,k,0,0,159,364691,1093024
46,18,female,Belg,2,48,ITC,win,10,right,5,ITC_outcome,0,undefined,0,0,179,363678,1094037
46,18,female,Belg,2,49,guess,win,10,right,6,guess_start,470,space,0,0,179,363207,1094508
46,18,female,Belg,2,49,guess,win,10,right,6,guess_choice,1415,f,0,0,179,361789,1095926
46,18,female,Belg,2,49,guess,win,10,right,6,guess_outcome,0,undefined,0,0,199,360231,1097484
46,18,female,Belg,2,49,ITC,win,10,right,6,ITC_start,1783,space,0,0,199,358447,1099268
46,18,female,Belg,2,49,ITC,win,10,right,6,ITC_choice,1095,f,0,0,199,357351,1100364
46,18,female,Belg,2,49,ITC,win,10,right,6,ITC_wait,0,undefined,0,0,199,357349,1100366
46,18,female,Belg,2,49,ITC,win,10,right,6,ITC_collect,788,k,0,0,199,356560,1101155
46,18,female,Belg,2,49,ITC,win,10,right,6,ITC_outcome,0,undefined,0,0,205,355551,1102164
46,18,female,Belg,2,50,guess,win,5,left,16,guess_start,570,space,0,0,205,354981,1102734
46,18,female,Belg,2,50,guess,win,5,left,16,guess_choice,587,j,0,0,205,354392,1103323
46,18,female,Belg,2,50,guess,win,5,left,16,guess_outcome,0,undefined,0,0,225,352829,1104886
46,18,female,Belg,2,50,ITC,win,5,left,16,ITC_start,383,space,0,0,225,352445,1105270
46,18,female,Belg,2,50,ITC,win,5,left,16,ITC_choice,1401,f,0,0,225,351042,1106673
46,18,female,Belg,2,50,ITC,win,5,left,16,ITC_wait,0,undefined,0,0,225,346035,1111680
46,18,female,Belg,2,50,ITC,win,5,left,16,ITC_collect,1205,k,0,0,225,344828,1112887
46,18,female,Belg,2,50,ITC,win,5,left,16,ITC_outcome,0,undefined,0,0,245,343824,1113891
46,18,female,Belg,2,51,guess,win,5,right,13,guess_start,516,space,0,0,245,343306,1114409
46,18,female,Belg,2,51,guess,win,5,right,13,guess_choice,634,j,0,0,245,342670,1115045
46,18,female,Belg,2,51,guess,win,5,right,13,guess_outcome,0,undefined,0,0,265,341110,1116605
46,18,female,Belg,2,51,ITC,win,5,right,13,ITC_start,974,space,0,0,265,340135,1117580
46,18,female,Belg,2,51,ITC,win,5,right,13,ITC_choice,1112,f,0,0,265,339022,1118693
46,18,female,Belg,2,51,ITC,win,5,right,13,ITC_wait,0,undefined,0,0,265,339020,1118695
46,18,female,Belg,2,51,ITC,win,5,right,13,ITC_collect,751,k,0,0,265,338268,1119447
46,18,female,Belg,2,51,ITC,win,5,right,13,ITC_outcome,0,undefined,0,0,278,337264,1120451
46,18,female,Belg,2,52,guess,loss,10,left,3,guess_start,671,space,0,0,278,336592,1121123
46,18,female,Belg,2,52,guess,loss,10,left,3,guess_choice,516,f,0,0,278,336075,1121640
46,18,female,Belg,2,52,guess,loss,10,left,3,guess_outcome,0,undefined,0,0,263,334520,1123195
46,18,female,Belg,2,52,ITC,loss,10,left,3,ITC_start,400,space,0,0,263,334120,1123595
46,18,female,Belg,2,52,ITC,loss,10,left,3,ITC_choice,1328,f,0,0,263,332791,1124924
46,18,female,Belg,2,52,ITC,loss,10,left,3,ITC_wait,0,undefined,0,0,263,322787,1134928
46,18,female,Belg,2,52,ITC,loss,10,left,3,ITC_collect,817,k,0,0,263,321968,1135747
46,18,female,Belg,2,52,ITC,loss,10,left,3,ITC_outcome,0,undefined,0,0,283,320965,1136750
46,18,female,Belg,2,53,guess,neutral,5,right,4,guess_start,396,space,0,0,283,320567,1137148
46,18,female,Belg,2,53,guess,neutral,5,right,4,guess_choice,1131,j,0,0,283,319434,1138281
46,18,female,Belg,2,53,guess,neutral,5,right,4,guess_outcome,0,undefined,0,0,283,317868,1139847
46,18,female,Belg,2,53,ITC,neutral,5,right,4,ITC_start,482,space,0,0,283,317386,1140329
46,18,female,Belg,2,53,ITC,neutral,5,right,4,ITC_choice,850,j,0,0,283,316534,1141181
46,18,female,Belg,2,53,ITC,neutral,5,right,4,ITC_wait,0,undefined,0,0,283,311532,1146183
46,18,female,Belg,2,53,ITC,neutral,5,right,4,ITC_collect,744,k,0,0,283,310788,1146927
46,18,female,Belg,2,53,ITC,neutral,5,right,4,ITC_outcome,0,undefined,0,0,303,309776,1147939
46,18,female,Belg,2,54,guess,win,5,right,8,guess_start,365,space,0,0,303,309409,1148306
46,18,female,Belg,2,54,guess,win,5,right,8,guess_choice,584,f,0,0,303,308821,1148894
46,18,female,Belg,2,54,guess,win,5,right,8,guess_outcome,0,undefined,0,0,323,307253,1150462
46,18,female,Belg,2,54,ITC,win,5,right,8,ITC_start,790,space,0,0,323,306462,1151253
46,18,female,Belg,2,54,ITC,win,5,right,8,ITC_choice,882,f,0,0,323,305579,1152136
46,18,female,Belg,2,54,ITC,win,5,right,8,ITC_wait,0,undefined,0,0,323,305576,1152139
46,18,female,Belg,2,54,ITC,win,5,right,8,ITC_collect,763,k,0,0,323,304812,1152903
46,18,female,Belg,2,54,ITC,win,5,right,8,ITC_outcome,0,undefined,0,0,331,303803,1153912
46,18,female,Belg,2,55,guess,neutral,10,left,6,guess_start,674,space,0,0,331,303128,1154587
46,18,female,Belg,2,55,guess,neutral,10,left,6,guess_choice,1066,j,0,0,331,302061,1155654
46,18,female,Belg,2,55,guess,neutral,10,left,6,guess_outcome,0,undefined,0,0,331,300497,1157218
46,18,female,Belg,2,55,ITC,neutral,10,left,6,ITC_start,621,space,0,0,331,299875,1157840
46,18,female,Belg,2,55,ITC,neutral,10,left,6,ITC_choice,1177,f,0,0,331,298697,1159018
46,18,female,Belg,2,55,ITC,neutral,10,left,6,ITC_wait,0,undefined,0,0,331,288685,1169030
46,18,female,Belg,2,55,ITC,neutral,10,left,6,ITC_collect,1222,k,0,0,331,287462,1170253
46,18,female,Belg,2,55,ITC,neutral,10,left,6,ITC_outcome,0,undefined,0,0,351,286456,1171259
46,18,female,Belg,2,56,guess,win,10,left,1,guess_start,527,space,0,0,351,285927,1171788
46,18,female,Belg,2,56,guess,win,10,left,1,guess_choice,1106,j,0,0,351,284819,1172896
46,18,female,Belg,2,56,guess,win,10,left,1,guess_outcome,0,undefined,0,0,371,283264,1174451
46,18,female,Belg,2,56,ITC,win,10,left,1,ITC_start,543,space,0,0,371,282720,1174995
46,18,female,Belg,2,56,ITC,win,10,left,1,ITC_choice,1914,f,0,0,371,280805,1176910
46,18,female,Belg,2,56,ITC,win,10,left,1,ITC_wait,0,undefined,0,0,371,270797,1186918
46,18,female,Belg,2,56,ITC,win,10,left,1,ITC_collect,717,k,0,0,371,270079,1187636
46,18,female,Belg,2,56,ITC,win,10,left,1,ITC_outcome,0,undefined,0,0,391,269074,1188641
46,18,female,Belg,2,57,guess,loss,10,right,2,guess_start,56,space,0,0,391,269017,1188698
46,18,female,Belg,2,57,guess,loss,10,right,2,guess_choice,648,f,0,0,391,268367,1189348
46,18,female,Belg,2,57,guess,loss,10,right,2,guess_outcome,0,undefined,0,0,376,266801,1190914
46,18,female,Belg,2,57,ITC,loss,10,right,2,ITC_start,655,space,0,0,376,266145,1191570
46,18,female,Belg,2,57,ITC,loss,10,right,2,ITC_choice,1416,f,0,0,376,264729,1192986
46,18,female,Belg,2,57,ITC,loss,10,right,2,ITC_wait,0,undefined,0,0,376,264724,1192991
46,18,female,Belg,2,57,ITC,loss,10,right,2,ITC_collect,1048,k,0,0,376,263674,1194041
46,18,female,Belg,2,57,ITC,loss,10,right,2,ITC_outcome,0,undefined,0,0,378,262662,1195053
46,18,female,Belg,2,58,guess,win,5,right,6,guess_start,457,space,0,0,378,262204,1195511
46,18,female,Belg,2,58,guess,win,5,right,6,guess_choice,722,f,0,0,378,261480,1196235
46,18,female,Belg,2,58,guess,win,5,right,6,guess_outcome,0,undefined,0,0,398,259922,1197793
46,18,female,Belg,2,58,ITC,win,5,right,6,ITC_start,1006,space,0,0,398,258916,1198799
46,18,female,Belg,2,58,ITC,win,5,right,6,ITC_choice,866,f,0,0,398,258049,1199666
46,18,female,Belg,2,58,ITC,win,5,right,6,ITC_wait,0,undefined,0,0,398,258046,1199669
46,18,female,Belg,2,58,ITC,win,5,right,6,ITC_collect,920,k,0,0,398,257126,1200589
46,18,female,Belg,2,58,ITC,win,5,right,6,ITC_outcome,0,undefined,0,0,404,256117,1201598
46,18,female,Belg,2,59,guess,neutral,5,right,9,guess_start,852,space,0,0,404,255264,1202451
46,18,female,Belg,2,59,guess,neutral,5,right,9,guess_choice,1233,j,0,0,404,254029,1203686
46,18,female,Belg,2,59,guess,neutral,5,right,9,guess_outcome,0,undefined,0,0,404,252472,1205243
46,18,female,Belg,2,59,ITC,neutral,5,right,9,ITC_start,335,space,0,0,404,252136,1205579
46,18,female,Belg,2,59,ITC,neutral,5,right,9,ITC_choice,765,f,0,0,404,251371,1206344
46,18,female,Belg,2,59,ITC,neutral,5,right,9,ITC_wait,0,undefined,0,0,404,251369,1206346
46,18,female,Belg,2,59,ITC,neutral,5,right,9,ITC_collect,706,k,0,0,404,250662,1207053
46,18,female,Belg,2,59,ITC,neutral,5,right,9,ITC_outcome,0,undefined,0,0,413,249648,1208067
46,18,female,Belg,2,60,guess,loss,10,left,4,guess_start,515,space,0,0,413,249131,1208584
46,18,female,Belg,2,60,guess,loss,10,left,4,guess_choice,1374,f,0,0,413,247756,1209959
46,18,female,Belg,2,60,guess,loss,10,left,4,guess_outcome,0,undefined,0,0,398,246202,1211513
46,18,female,Belg,2,60,ITC,loss,10,left,4,ITC_start,366,space,0,0,398,245835,1211880
46,18,female,Belg,2,60,ITC,loss,10,left,4,ITC_choice,87,j,0,0,398,245747,1211968
46,18,female,Belg,2,60,ITC,loss,10,left,4,ITC_wait,0,undefined,0,0,398,245745,1211970
46,18,female,Belg,2,60,ITC,loss,10,left,4,ITC_collect,1717,k,0,0,398,244027,1213688
46,18,female,Belg,2,60,ITC,loss,10,left,4,ITC_outcome,0,undefined,0,0,402,243024,1214691
46,18,female,Belg,2,61,guess,win,10,right,2,guess_start,563,space,0,0,402,242460,1215255
46,18,female,Belg,2,61,guess,win,10,right,2,guess_choice,2100,j,0,0,402,240359,1217356
46,18,female,Belg,2,61,guess,win,10,right,2,guess_outcome,0,undefined,0,0,422,238792,1218923
46,18,female,Belg,2,61,ITC,win,10,right,2,ITC_start,402,space,0,0,422,238389,1219326
46,18,female,Belg,2,61,ITC,win,10,right,2,ITC_choice,880,f,0,0,422,237508,1220207
46,18,female,Belg,2,61,ITC,win,10,right,2,ITC_wait,0,undefined,0,0,422,237504,1220211
46,18,female,Belg,2,61,ITC,win,10,right,2,ITC_collect,393,k,0,0,422,237109,1220606
46,18,female,Belg,2,61,ITC,win,10,right,2,ITC_outcome,0,undefined,0,0,424,236107,1221608
46,18,female,Belg,2,62,guess,win,5,left,10,guess_start,445,space,0,0,424,235662,1222053
46,18,female,Belg,2,62,guess,win,5,left,10,guess_choice,1006,f,0,0,424,234654,1223061
46,18,female,Belg,2,62,guess,win,5,left,10,guess_outcome,0,undefined,0,0,444,233089,1224626
46,18,female,Belg,2,62,ITC,win,5,left,10,ITC_start,427,space,0,0,444,232661,1225054
46,18,female,Belg,2,62,ITC,win,5,left,10,ITC_choice,2925,j,0,0,444,229735,1227980
46,18,female,Belg,2,62,ITC,win,5,left,10,ITC_wait,0,undefined,0,0,444,229734,1227981
46,18,female,Belg,2,62,ITC,win,5,left,10,ITC_collect,408,k,0,0,444,229325,1228390
46,18,female,Belg,2,62,ITC,win,5,left,10,ITC_outcome,0,undefined,0,0,454,228315,1229400
46,18,female,Belg,2,63,guess,loss,5,left,1,guess_start,373,space,0,0,454,227941,1229774
46,18,female,Belg,2,63,guess,loss,5,left,1,guess_choice,1110,f,0,0,454,226829,1230886
46,18,female,Belg,2,63,guess,loss,5,left,1,guess_outcome,0,undefined,0,0,439,225277,1232438
46,18,female,Belg,2,63,ITC,loss,5,left,1,ITC_start,39,space,0,0,439,225237,1232478
46,18,female,Belg,2,63,ITC,loss,5,left,1,ITC_choice,866,f,0,0,439,224370,1233345
46,18,female,Belg,2,63,ITC,loss,5,left,1,ITC_wait,0,undefined,0,0,439,219368,1238347
46,18,female,Belg,2,63,ITC,loss,5,left,1,ITC_collect,1784,k,0,0,439,217582,1240133
46,18,female,Belg,2,63,ITC,loss,5,left,1,ITC_outcome,0,undefined,0,0,459,216576,1241139
46,18,female,Belg,2,64,guess,loss,10,left,1,guess_start,506,space,0,0,459,216069,1241646
46,18,female,Belg,2,64,guess,loss,10,left,1,guess_choice,1749,j,0,0,459,214318,1243397
46,18,female,Belg,2,64,guess,loss,10,left,1,guess_outcome,0,undefined,0,0,444,212760,1244955
46,18,female,Belg,2,64,ITC,loss,10,left,1,ITC_start,475,space,0,0,444,212284,1245431
46,18,female,Belg,2,64,ITC,loss,10,left,1,ITC_choice,830,f,0,0,444,211454,1246261
46,18,female,Belg,2,64,ITC,loss,10,left,1,ITC_wait,0,undefined,0,0,444,201445,1256270
46,18,female,Belg,2,64,ITC,loss,10,left,1,ITC_collect,582,k,0,0,444,200862,1256853
46,18,female,Belg,2,64,ITC,loss,10,left,1,ITC_outcome,0,undefined,0,0,464,199856,1257859
46,18,female,Belg,2,65,guess,neutral,10,left,4,guess_start,431,space,0,0,464,199424,1258291
46,18,female,Belg,2,65,guess,neutral,10,left,4,guess_choice,1038,j,0,0,464,198384,1259331
46,18,female,Belg,2,65,guess,neutral,10,left,4,guess_outcome,0,undefined,0,0,464,196818,1260897
46,18,female,Belg,2,65,ITC,neutral,10,left,4,ITC_start,327,space,0,0,464,196491,1261224
46,18,female,Belg,2,65,ITC,neutral,10,left,4,ITC_choice,1077,j,0,0,464,195412,1262303
46,18,female,Belg,2,65,ITC,neutral,10,left,4,ITC_wait,0,undefined,0,0,464,195409,1262306
46,18,female,Belg,2,65,ITC,neutral,10,left,4,ITC_collect,773,k,0,0,464,194636,1263079
46,18,female,Belg,2,65,ITC,neutral,10,left,4,ITC_outcome,0,undefined,0,0,468,193622,1264093
46,18,female,Belg,2,66,guess,loss,5,left,4,guess_start,370,space,0,0,468,193251,1264464
46,18,female,Belg,2,66,guess,loss,5,left,4,guess_choice,1030,f,0,0,468,192220,1265495
46,18,female,Belg,2,66,guess,loss,5,left,4,guess_outcome,0,undefined,0,0,453,190662,1267053
46,18,female,Belg,2,66,ITC,loss,5,left,4,ITC_start,424,space,0,0,453,190236,1267479
46,18,female,Belg,2,66,ITC,loss,5,left,4,ITC_choice,717,f,0,0,453,189518,1268197
46,18,female,Belg,2,66,ITC,loss,5,left,4,ITC_wait,0,undefined,0,0,453,184512,1273203
46,18,female,Belg,2,66,ITC,loss,5,left,4,ITC_collect,756,k,0,0,453,183755,1273960
46,18,female,Belg,2,66,ITC,loss,5,left,4,ITC_outcome,0,undefined,0,0,473,182752,1274963
46,18,female,Belg,2,67,guess,neutral,10,right,2,guess_start,424,space,0,0,473,182327,1275388
46,18,female,Belg,2,67,guess,neutral,10,right,2,guess_choice,715,j,0,0,473,181610,1276105
46,18,female,Belg,2,67,guess,neutral,10,right,2,guess_outcome,0,undefined,0,0,473,180051,1277664
46,18,female,Belg,2,67,ITC,neutral,10,right,2,ITC_start,366,space,0,0,473,179685,1278030
46,18,female,Belg,2,67,ITC,neutral,10,right,2,ITC_choice,961,f,0,0,473,178723,1278992
46,18,female,Belg,2,67,ITC,neutral,10,right,2,ITC_wait,0,undefined,0,0,473,178721,1278994
46,18,female,Belg,2,67,ITC,neutral,10,right,2,ITC_collect,508,k,0,0,473,178212,1279503
46,18,female,Belg,2,67,ITC,neutral,10,right,2,ITC_outcome,0,undefined,0,0,475,177196,1280519
46,18,female,Belg,2,68,guess,loss,10,right,5,guess_start,285,space,0,0,475,176909,1280806
46,18,female,Belg,2,68,guess,loss,10,right,5,guess_choice,909,f,0,0,475,175999,1281716
46,18,female,Belg,2,68,guess,loss,10,right,5,guess_outcome,0,undefined,0,0,460,174440,1283275
46,18,female,Belg,2,68,ITC,loss,10,right,5,ITC_start,451,space,0,0,460,173989,1283726
46,18,female,Belg,2,68,ITC,loss,10,right,5,ITC_choice,846,j,0,0,460,173142,1284573
46,18,female,Belg,2,68,ITC,loss,10,right,5,ITC_wait,0,undefined,0,0,460,163140,1294575
46,18,female,Belg,2,68,ITC,loss,10,right,5,ITC_collect,876,k,0,0,460,162263,1295452
46,18,female,Belg,2,68,ITC,loss,10,right,5,ITC_outcome,0,undefined,0,0,480,161247,1296468
46,18,female,Belg,2,69,guess,win,10,left,7,guess_start,601,space,0,0,480,160645,1297070
46,18,female,Belg,2,69,guess,win,10,left,7,guess_choice,1477,j,0,0,480,159166,1298549
46,18,female,Belg,2,69,guess,win,10,left,7,guess_outcome,0,undefined,0,0,500,157611,1300104
46,18,female,Belg,2,69,ITC,win,10,left,7,ITC_start,928,space,0,0,500,156682,1301033
46,18,female,Belg,2,69,ITC,win,10,left,7,ITC_choice,1406,j,0,0,500,155272,1302443
46,18,female,Belg,2,69,ITC,win,10,left,7,ITC_wait,0,undefined,0,0,500,155269,1302446
46,18,female,Belg,2,69,ITC,win,10,left,7,ITC_collect,244,k,0,0,500,155023,1302692
46,18,female,Belg,2,69,ITC,win,10,left,7,ITC_outcome,0,undefined,0,0,507,154015,1303700
46,18,female,Belg,2,70,guess,win,5,left,15,guess_start,691,space,0,0,507,153322,1304393
46,18,female,Belg,2,70,guess,win,5,left,15,guess_choice,653,f,0,0,507,152666,1305049
46,18,female,Belg,2,70,guess,win,5,left,15,guess_outcome,0,undefined,0,0,527,151109,1306606
46,18,female,Belg,2,70,ITC,win,5,left,15,ITC_start,712,space,0,0,527,150396,1307319
46,18,female,Belg,2,70,ITC,win,5,left,15,ITC_choice,1662,j,0,0,527,148732,1308983
46,18,female,Belg,2,70,ITC,win,5,left,15,ITC_wait,0,undefined,0,0,527,148728,1308987
46,18,female,Belg,2,70,ITC,win,5,left,15,ITC_collect,963,k,0,0,527,147765,1309950
46,18,female,Belg,2,70,ITC,win,5,left,15,ITC_outcome,0,undefined,0,0,542,146759,1310956
46,18,female,Belg,2,71,guess,loss,5,right,14,guess_start,291,space,0,0,542,146467,1311248
46,18,female,Belg,2,71,guess,loss,5,right,14,guess_choice,570,f,0,0,542,145896,1311819
46,18,female,Belg,2,71,guess,loss,5,right,14,guess_outcome,0,undefined,0,0,527,144342,1313373
46,18,female,Belg,2,71,ITC,loss,5,right,14,ITC_start,347,space,0,0,527,143994,1313721
46,18,female,Belg,2,71,ITC,loss,5,right,14,ITC_choice,760,f,0,0,527,143233,1314482
46,18,female,Belg,2,71,ITC,loss,5,right,14,ITC_wait,0,undefined,0,0,527,143231,1314484
46,18,female,Belg,2,71,ITC,loss,5,right,14,ITC_collect,588,k,0,0,527,142643,1315072
46,18,female,Belg,2,71,ITC,loss,5,right,14,ITC_outcome,0,undefined,0,0,541,141639,1316076
46,18,female,Belg,2,72,guess,neutral,5,right,11,guess_start,538,space,0,0,541,141100,1316615
46,18,female,Belg,2,72,guess,neutral,5,right,11,guess_choice,621,f,0,0,541,140477,1317238
46,18,female,Belg,2,72,guess,neutral,5,right,11,guess_outcome,0,undefined,0,0,541,138915,1318800
46,18,female,Belg,2,72,ITC,neutral,5,right,11,ITC_start,357,space,0,0,541,138556,1319159
46,18,female,Belg,2,72,ITC,neutral,5,right,11,ITC_choice,1250,f,0,0,541,137305,1320410
46,18,female,Belg,2,72,ITC,neutral,5,right,11,ITC_wait,0,undefined,0,0,541,137302,1320413
46,18,female,Belg,2,72,ITC,neutral,5,right,11,ITC_collect,722,k,0,0,541,136579,1321136
46,18,female,Belg,2,72,ITC,neutral,5,right,11,ITC_outcome,0,undefined,0,0,552,135562,1322153
46,18,female,Belg,2,73,guess,neutral,5,right,5,guess_start,417,space,0,0,552,135144,1322571
46,18,female,Belg,2,73,guess,neutral,5,right,5,guess_choice,764,f,0,0,552,134379,1323336
46,18,female,Belg,2,73,guess,neutral,5,right,5,guess_outcome,0,undefined,0,0,552,132814,1324901
46,18,female,Belg,2,73,ITC,neutral,5,right,5,ITC_start,442,space,0,0,552,132371,1325344
46,18,female,Belg,2,73,ITC,neutral,5,right,5,ITC_choice,1497,j,0,0,552,130872,1326843
46,18,female,Belg,2,73,ITC,neutral,5,right,5,ITC_wait,0,undefined,0,0,552,125870,1331845
46,18,female,Belg,2,73,ITC,neutral,5,right,5,ITC_collect,901,k,0,0,552,124968,1332747
46,18,female,Belg,2,73,ITC,neutral,5,right,5,ITC_outcome,0,undefined,0,0,572,123959,1333756
46,18,female,Belg,2,74,guess,neutral,10,left,8,guess_start,400,space,0,0,572,123558,1334157
46,18,female,Belg,2,74,guess,neutral,10,left,8,guess_choice,799,j,0,0,572,122756,1334959
46,18,female,Belg,2,74,guess,neutral,10,left,8,guess_outcome,0,undefined,0,0,572,121193,1336522
46,18,female,Belg,2,74,ITC,neutral,10,left,8,ITC_start,423,space,0,0,572,120768,1336947
46,18,female,Belg,2,74,ITC,neutral,10,left,8,ITC_choice,1197,j,0,0,572,119571,1338144
46,18,female,Belg,2,74,ITC,neutral,10,left,8,ITC_wait,0,undefined,0,0,572,119568,1338147
46,18,female,Belg,2,74,ITC,neutral,10,left,8,ITC_collect,13,k,0,0,572,119554,1338161
46,18,female,Belg,2,74,ITC,neutral,10,left,8,ITC_outcome,0,undefined,0,0,580,118545,1339170
46,18,female,Belg,2,75,guess,loss,5,left,6,guess_start,465,space,0,0,580,118079,1339636
46,18,female,Belg,2,75,guess,loss,5,left,6,guess_choice,1048,f,0,0,580,117027,1340688
46,18,female,Belg,2,75,guess,loss,5,left,6,guess_outcome,0,undefined,0,0,565,115466,1342249
46,18,female,Belg,2,75,ITC,loss,5,left,6,ITC_start,642,space,0,0,565,114824,1342891
46,18,female,Belg,2,75,ITC,loss,5,left,6,ITC_choice,971,f,0,0,565,113851,1343864
46,18,female,Belg,2,75,ITC,loss,5,left,6,ITC_wait,0,undefined,0,0,565,108838,1348877
46,18,female,Belg,2,75,ITC,loss,5,left,6,ITC_collect,763,k,0,0,565,108074,1349641
46,18,female,Belg,2,75,ITC,loss,5,left,6,ITC_outcome,0,undefined,0,0,585,107060,1350655
46,18,female,Belg,2,76,guess,win,10,left,4,guess_start,441,space,0,0,585,106618,1351097
46,18,female,Belg,2,76,guess,win,10,left,4,guess_choice,1356,j,0,0,585,105261,1352454
46,18,female,Belg,2,76,guess,win,10,left,4,guess_outcome,0,undefined,0,0,605,103698,1354017
46,18,female,Belg,2,76,ITC,win,10,left,4,ITC_start,762,space,0,0,605,102934,1354781
46,18,female,Belg,2,76,ITC,win,10,left,4,ITC_choice,1423,j,0,0,605,101511,1356204
46,18,female,Belg,2,76,ITC,win,10,left,4,ITC_wait,0,undefined,0,0,605,101507,1356208
46,18,female,Belg,2,76,ITC,win,10,left,4,ITC_collect,21,k,0,0,605,101485,1356230
46,18,female,Belg,2,76,ITC,win,10,left,4,ITC_outcome,0,undefined,0,0,609,100472,1357243
46,18,female,Belg,2,77,guess,win,5,right,13,guess_start,509,space,0,0,609,99962,1357753
46,18,female,Belg,2,77,guess,win,5,right,13,guess_choice,1099,f,0,0,609,98862,1358853
46,18,female,Belg,2,77,guess,win,5,right,13,guess_outcome,0,undefined,0,0,629,97305,1360410
46,18,female,Belg,2,77,ITC,win,5,right,13,ITC_start,760,space,0,0,629,96545,1361170
46,18,female,Belg,2,77,ITC,win,5,right,13,ITC_choice,1143,f,0,0,629,95401,1362314
46,18,female,Belg,2,77,ITC,win,5,right,13,ITC_wait,0,undefined,0,0,629,95398,1362317
46,18,female,Belg,2,77,ITC,win,5,right,13,ITC_collect,1295,k,0,0,629,94102,1363613
46,18,female,Belg,2,77,ITC,win,5,right,13,ITC_outcome,0,undefined,0,0,642,93101,1364614
46,18,female,Belg,2,78,guess,neutral,5,left,14,guess_start,514,space,0,0,642,92585,1365130
46,18,female,Belg,2,78,guess,neutral,5,left,14,guess_choice,1021,j,0,0,642,91563,1366152
46,18,female,Belg,2,78,guess,neutral,5,left,14,guess_outcome,0,undefined,0,0,642,90001,1367714
46,18,female,Belg,2,78,ITC,neutral,5,left,14,ITC_start,490,space,0,0,642,89510,1368205
46,18,female,Belg,2,78,ITC,neutral,5,left,14,ITC_choice,1062,j,0,0,642,88447,1369268
46,18,female,Belg,2,78,ITC,neutral,5,left,14,ITC_wait,0,undefined,0,0,642,88444,1369271
46,18,female,Belg,2,78,ITC,neutral,5,left,14,ITC_collect,966,k,0,0,642,87477,1370238
46,18,female,Belg,2,78,ITC,neutral,5,left,14,ITC_outcome,0,undefined,0,0,656,86465,1371250
46,18,female,Belg,2,79,guess,neutral,5,right,7,guess_start,472,space,0,0,656,85992,1371723
46,18,female,Belg,2,79,guess,neutral,5,right,7,guess_choice,559,j,0,0,656,85431,1372284
46,18,female,Belg,2,79,guess,neutral,5,right,7,guess_outcome,0,undefined,0,0,656,83870,1373845
46,18,female,Belg,2,79,ITC,neutral,5,right,7,ITC_start,640,space,0,0,656,83229,1374486
46,18,female,Belg,2,79,ITC,neutral,5,right,7,ITC_choice,963,f,0,0,656,82265,1375450
46,18,female,Belg,2,79,ITC,neutral,5,right,7,ITC_wait,0,undefined,0,0,656,82263,1375452
46,18,female,Belg,2,79,ITC,neutral,5,right,7,ITC_collect,688,k,0,0,656,81574,1376141
46,18,female,Belg,2,79,ITC,neutral,5,right,7,ITC_outcome,0,undefined,0,0,663,80562,1377153
46,18,female,Belg,2,80,guess,win,5,right,6,guess_start,338,space,0,0,663,80223,1377492
46,18,female,Belg,2,80,guess,win,5,right,6,guess_choice,871,f,0,0,663,79350,1378365
46,18,female,Belg,2,80,guess,win,5,right,6,guess_outcome,0,undefined,0,0,683,77798,1379917
46,18,female,Belg,2,80,ITC,win,5,right,6,ITC_start,492,space,0,0,683,77304,1380411
46,18,female,Belg,2,80,ITC,win,5,right,6,ITC_choice,1073,f,0,0,683,76230,1381485
46,18,female,Belg,2,80,ITC,win,5,right,6,ITC_wait,0,undefined,0,0,683,76226,1381489
46,18,female,Belg,2,80,ITC,win,5,right,6,ITC_collect,345,k,0,0,683,75878,1381837
46,18,female,Belg,2,80,ITC,win,5,right,6,ITC_outcome,0,undefined,0,0,689,74870,1382845
46,18,female,Belg,2,81,guess,win,10,left,3,guess_start,374,space,0,0,689,74495,1383220
46,18,female,Belg,2,81,guess,win,10,left,3,guess_choice,1350,j,0,0,689,73144,1384571
46,18,female,Belg,2,81,guess,win,10,left,3,guess_outcome,0,undefined,0,0,709,71584,1386131
46,18,female,Belg,2,81,ITC,win,10,left,3,ITC_start,399,space,0,0,709,71183,1386532
46,18,female,Belg,2,81,ITC,win,10,left,3,ITC_choice,1023,j,0,0,709,70157,1387558
46,18,female,Belg,2,81,ITC,win,10,left,3,ITC_wait,0,undefined,0,0,709,70156,1387559
46,18,female,Belg,2,81,ITC,win,10,left,3,ITC_collect,1269,k,0,0,709,68886,1388829
46,18,female,Belg,2,81,ITC,win,10,left,3,ITC_outcome,0,undefined,0,0,712,67874,1389841
46,18,female,Belg,2,82,guess,loss,10,left,6,guess_start,277,space,0,0,712,67594,1390121
46,18,female,Belg,2,82,guess,loss,10,left,6,guess_choice,648,j,0,0,712,66944,1390771
46,18,female,Belg,2,82,guess,loss,10,left,6,guess_outcome,0,undefined,0,0,697,65391,1392324
46,18,female,Belg,2,82,ITC,loss,10,left,6,ITC_start,371,space,0,0,697,65019,1392696
46,18,female,Belg,2,82,ITC,loss,10,left,6,ITC_choice,803,f,0,0,697,64215,1393500
46,18,female,Belg,2,82,ITC,loss,10,left,6,ITC_wait,0,undefined,0,0,697,54200,1403515
46,18,female,Belg,2,82,ITC,loss,10,left,6,ITC_collect,1806,k,0,0,697,52392,1405323
46,18,female,Belg,2,82,ITC,loss,10,left,6,ITC_outcome,0,undefined,0,0,717,51385,1406330
46,18,female,Belg,2,83,guess,win,5,right,8,guess_start,572,space,0,0,717,50812,1406903
46,18,female,Belg,2,83,guess,win,5,right,8,guess_choice,990,f,0,0,717,49820,1407895
46,18,female,Belg,2,83,guess,win,5,right,8,guess_outcome,0,undefined,0,0,737,48263,1409452
46,18,female,Belg,2,83,ITC,win,5,right,8,ITC_start,1101,space,0,0,737,47161,1410554
46,18,female,Belg,2,83,ITC,win,5,right,8,ITC_choice,933,f,0,0,737,46226,1411489
46,18,female,Belg,2,83,ITC,win,5,right,8,ITC_wait,0,undefined,0,0,737,46223,1411492
46,18,female,Belg,2,83,ITC,win,5,right,8,ITC_collect,405,k,0,0,737,45818,1411897
46,18,female,Belg,2,83,ITC,win,5,right,8,ITC_outcome,0,undefined,0,0,745,44809,1412906
46,18,female,Belg,2,84,guess,win,5,right,4,guess_start,841,space,0,0,745,43966,1413749
46,18,female,Belg,2,84,guess,win,5,right,4,guess_choice,1042,j,0,0,745,42922,1414793
46,18,female,Belg,2,84,guess,win,5,right,4,guess_outcome,0,undefined,0,0,765,41366,1416349
46,18,female,Belg,2,84,ITC,win,5,right,4,ITC_start,1028,space,0,0,765,40337,1417378
46,18,female,Belg,2,84,ITC,win,5,right,4,ITC_choice,899,f,0,0,765,39437,1418278
46,18,female,Belg,2,84,ITC,win,5,right,4,ITC_wait,0,undefined,0,0,765,39434,1418281
46,18,female,Belg,2,84,ITC,win,5,right,4,ITC_collect,373,k,0,0,765,39059,1418656
46,18,female,Belg,2,84,ITC,win,5,right,4,ITC_outcome,0,undefined,0,0,769,38053,1419662
46,18,female,Belg,2,85,guess,neutral,5,left,2,guess_start,328,space,0,0,769,37723,1419992
46,18,female,Belg,2,85,guess,neutral,5,left,2,guess_choice,657,f,0,0,769,37064,1420651
46,18,female,Belg,2,85,guess,neutral,5,left,2,guess_outcome,0,undefined,0,0,769,35506,1422209
46,18,female,Belg,2,85,ITC,neutral,5,left,2,ITC_start,307,space,0,0,769,35198,1422517
46,18,female,Belg,2,85,ITC,neutral,5,left,2,ITC_choice,1611,j,0,0,769,33586,1424129
46,18,female,Belg,2,85,ITC,neutral,5,left,2,ITC_wait,0,undefined,0,0,769,33584,1424131
46,18,female,Belg,2,85,ITC,neutral,5,left,2,ITC_collect,1566,k,0,0,769,32017,1425698
46,18,female,Belg,2,85,ITC,neutral,5,left,2,ITC_outcome,0,undefined,0,0,771,31015,1426700
46,18,female,Belg,2,86,guess,win,5,left,1,guess_start,230,space,0,0,771,30783,1426932
46,18,female,Belg,2,86,guess,win,5,left,1,guess_choice,646,f,0,0,771,30136,1427579
46,18,female,Belg,2,86,guess,win,5,left,1,guess_outcome,0,undefined,0,0,791,28581,1429134
46,18,female,Belg,2,86,ITC,win,5,left,1,ITC_start,587,space,0,0,791,27992,1429723
46,18,female,Belg,2,86,ITC,win,5,left,1,ITC_choice,761,f,0,0,791,27231,1430484
46,18,female,Belg,2,86,ITC,win,5,left,1,ITC_wait,0,undefined,0,0,791,22230,1435485
46,18,female,Belg,2,86,ITC,win,5,left,1,ITC_collect,370,k,0,0,791,21858,1435857
46,18,female,Belg,2,86,ITC,win,5,left,1,ITC_outcome,0,undefined,0,0,811,20853,1436862
46,18,female,Belg,2,87,guess,neutral,5,left,6,guess_start,756,space,0,0,811,20096,1437619
46,18,female,Belg,2,87,guess,neutral,5,left,6,guess_choice,1255,j,0,0,811,18839,1438876
46,18,female,Belg,2,87,guess,neutral,5,left,6,guess_outcome,0,undefined,0,0,811,17273,1440442
46,18,female,Belg,2,87,ITC,neutral,5,left,6,ITC_start,572,space,0,0,811,16700,1441015
46,18,female,Belg,2,87,ITC,neutral,5,left,6,ITC_choice,722,f,0,0,811,15976,1441739
46,18,female,Belg,2,87,ITC,neutral,5,left,6,ITC_wait,0,undefined,0,0,811,10974,1446741
46,18,female,Belg,2,87,ITC,neutral,5,left,6,ITC_collect,521,k,0,0,811,10453,1447262
46,18,female,Belg,2,87,ITC,neutral,5,left,6,ITC_outcome,0,undefined,0,0,831,9448,1448267
46,18,female,Belg,2,88,guess,neutral,10,left,6,guess_start,383,space,0,0,831,9064,1448651
46,18,female,Belg,2,88,guess,neutral,10,left,6,guess_choice,540,f,0,0,831,8522,1449193
46,18,female,Belg,2,88,guess,neutral,10,left,6,guess_outcome,0,undefined,0,0,831,6961,1450754
46,18,female,Belg,2,88,ITC,neutral,10,left,6,ITC_start,563,space,0,0,831,6398,1451317
46,18,female,Belg,2,88,ITC,neutral,10,left,6,ITC_choice,922,j,0,0,831,5475,1452240
46,18,female,Belg,2,88,ITC,neutral,10,left,6,ITC_wait,0,undefined,0,0,831,5472,1452243
46,18,female,Belg,2,88,ITC,neutral,10,left,6,ITC_collect,2165,k,0,0,831,3306,1454409
46,18,female,Belg,2,88,ITC,neutral,10,left,6,ITC_outcome,0,undefined,0,0,837,2294,1455421
46,18,female,Belg,2,89,guess,win,5,left,2,guess_start,362,space,0,0,837,1930,1455785
46,18,female,Belg,2,89,guess,win,5,left,2,guess_choice,808,f,0,0,837,1120,1456595
46,18,female,Belg,2,89,guess,win,5,left,2,guess_outcome,0,undefined,0,0,857,-3,1457718
46,18,female,Belg,3,90,guess,neutral,5,left,9,guess_start,2607,space,0,0,0,477393,1542981
46,18,female,Belg,3,90,guess,neutral,5,left,9,guess_choice,624,f,0,0,0,476767,1543607
46,18,female,Belg,3,90,guess,neutral,5,left,9,guess_outcome,0,undefined,0,0,0,475207,1545167
46,18,female,Belg,3,90,ITC,neutral,5,left,9,ITC_start,380,space,0,0,0,474826,1545548
46,18,female,Belg,3,90,ITC,neutral,5,left,9,ITC_choice,1315,j,0,0,0,473510,1546864
46,18,female,Belg,3,90,ITC,neutral,5,left,9,ITC_wait,0,undefined,0,0,0,473508,1546866
46,18,female,Belg,3,90,ITC,neutral,5,left,9,ITC_collect,1365,k,0,0,0,472142,1548232
46,18,female,Belg,3,90,ITC,neutral,5,left,9,ITC_outcome,0,undefined,0,0,9,471137,1549237
46,18,female,Belg,3,91,guess,neutral,5,right,15,guess_start,338,space,0,0,9,470798,1549576
46,18,female,Belg,3,91,guess,neutral,5,right,15,guess_choice,673,f,0,0,9,470123,1550251
46,18,female,Belg,3,91,guess,neutral,5,right,15,guess_outcome,0,undefined,0,0,9,468567,1551807
46,18,female,Belg,3,91,ITC,neutral,5,right,15,ITC_start,482,space,0,0,9,468084,1552290
46,18,female,Belg,3,91,ITC,neutral,5,right,15,ITC_choice,773,f,0,0,9,467310,1553064
46,18,female,Belg,3,91,ITC,neutral,5,right,15,ITC_wait,0,undefined,0,0,9,467307,1553067
46,18,female,Belg,3,91,ITC,neutral,5,right,15,ITC_collect,630,k,0,0,9,466675,1553699
46,18,female,Belg,3,91,ITC,neutral,5,right,15,ITC_outcome,0,undefined,0,0,24,465673,1554701
46,18,female,Belg,3,92,guess,win,5,right,7,guess_start,490,space,0,0,24,465181,1555193
46,18,female,Belg,3,92,guess,win,5,right,7,guess_choice,736,f,0,0,24,464443,1555931
46,18,female,Belg,3,92,guess,win,5,right,7,guess_outcome,0,undefined,0,0,44,462886,1557488
46,18,female,Belg,3,92,ITC,win,5,right,7,ITC_start,452,space,0,0,44,462433,1557941
46,18,female,Belg,3,92,ITC,win,5,right,7,ITC_choice,738,f,0,0,44,461692,1558682
46,18,female,Belg,3,92,ITC,win,5,right,7,ITC_wait,0,undefined,0,0,44,461689,1558685
46,18,female,Belg,3,92,ITC,win,5,right,7,ITC_collect,398,k,0,0,44,461291,1559083
46,18,female,Belg,3,92,ITC,win,5,right,7,ITC_outcome,0,undefined,0,0,51,460289,1560085
46,18,female,Belg,3,93,guess,loss,10,right,8,guess_start,348,space,0,0,51,459940,1560434
46,18,female,Belg,3,93,guess,loss,10,right,8,guess_choice,504,f,0,0,51,459435,1560939
46,18,female,Belg,3,93,guess,loss,10,right,8,guess_outcome,0,undefined,0,0,36,457871,1562503
46,18,female,Belg,3,93,ITC,loss,10,right,8,ITC_start,365,space,0,0,36,457505,1562869
46,18,female,Belg,3,93,ITC,loss,10,right,8,ITC_choice,763,f,0,0,36,456741,1563633
46,18,female,Belg,3,93,ITC,loss,10,right,8,ITC_wait,0,undefined,0,0,36,456736,1563638
46,18,female,Belg,3,93,ITC,loss,10,right,8,ITC_collect,367,k,0,0,36,456368,1564006
46,18,female,Belg,3,93,ITC,loss,10,right,8,ITC_outcome,0,undefined,0,0,44,455356,1565018
46,18,female,Belg,3,94,guess,win,10,left,8,guess_start,373,space,0,0,44,454981,1565393
46,18,female,Belg,3,94,guess,win,10,left,8,guess_choice,1424,j,0,0,44,453556,1566818
46,18,female,Belg,3,94,guess,win,10,left,8,guess_outcome,0,undefined,0,0,64,452003,1568371
46,18,female,Belg,3,94,ITC,win,10,left,8,ITC_start,561,space,0,0,64,451441,1568933
46,18,female,Belg,3,94,ITC,win,10,left,8,ITC_choice,950,j,0,0,64,450490,1569884
46,18,female,Belg,3,94,ITC,win,10,left,8,ITC_wait,0,undefined,0,0,64,450489,1569885
46,18,female,Belg,3,94,ITC,win,10,left,8,ITC_collect,716,k,0,0,64,449771,1570603
46,18,female,Belg,3,94,ITC,win,10,left,8,ITC_outcome,0,undefined,0,0,72,448761,1571613
46,18,female,Belg,3,95,guess,neutral,5,left,8,guess_start,381,space,0,0,72,448379,1571995
46,18,female,Belg,3,95,guess,neutral,5,left,8,guess_choice,498,f,0,0,72,447879,1572495
46,18,female,Belg,3,95,guess,neutral,5,left,8,guess_outcome,0,undefined,0,0,72,446317,1574057
46,18,female,Belg,3,95,ITC,neutral,5,left,8,ITC_start,425,space,0,0,72,445891,1574483
46,18,female,Belg,3,95,ITC,neutral,5,left,8,ITC_choice,670,j,0,0,72,445221,1575153
46,18,female,Belg,3,95,ITC,neutral,5,left,8,ITC_wait,0,undefined,0,0,72,445218,1575156
46,18,female,Belg,3,95,ITC,neutral,5,left,8,ITC_collect,796,k,0,0,72,444421,1575953
46,18,female,Belg,3,95,ITC,neutral,5,left,8,ITC_outcome,0,undefined,0,0,80,443415,1576959
46,18,female,Belg,3,96,guess,loss,10,right,4,guess_start,462,space,0,0,80,442952,1577422
46,18,female,Belg,3,96,guess,loss,10,right,4,guess_choice,627,f,0,0,80,442324,1578050
46,18,female,Belg,3,96,guess,loss,10,right,4,guess_outcome,0,undefined,0,0,65,440769,1579605
46,18,female,Belg,3,96,ITC,loss,10,right,4,ITC_start,396,space,0,0,65,440372,1580002
46,18,female,Belg,3,96,ITC,loss,10,right,4,ITC_choice,984,j,0,0,65,439386,1580988
46,18,female,Belg,3,96,ITC,loss,10,right,4,ITC_wait,0,undefined,0,0,65,429374,1591000
46,18,female,Belg,3,96,ITC,loss,10,right,4,ITC_collect,374,k,0,0,65,428999,1591375
46,18,female,Belg,3,96,ITC,loss,10,right,4,ITC_outcome,0,undefined,0,0,85,427994,1592380
46,18,female,Belg,3,97,guess,neutral,5,left,11,guess_start,389,space,0,0,85,427604,1592770
46,18,female,Belg,3,97,guess,neutral,5,left,11,guess_choice,1180,j,0,0,85,426422,1593952
46,18,female,Belg,3,97,guess,neutral,5,left,11,guess_outcome,0,undefined,0,0,85,424869,1595505
46,18,female,Belg,3,97,ITC,neutral,5,left,11,ITC_start,521,space,0,0,85,424347,1596027
46,18,female,Belg,3,97,ITC,neutral,5,left,11,ITC_choice,1325,j,0,0,85,423021,1597353
46,18,female,Belg,3,97,ITC,neutral,5,left,11,ITC_wait,0,undefined,0,0,85,423018,1597356
46,18,female,Belg,3,97,ITC,neutral,5,left,11,ITC_collect,454,k,0,0,85,422563,1597811
46,18,female,Belg,3,97,ITC,neutral,5,left,11,ITC_outcome,0,undefined,0,0,96,421561,1598813
46,18,female,Belg,3,98,guess,win,5,right,15,guess_start,636,space,0,0,96,420924,1599450
46,18,female,Belg,3,98,guess,win,5,right,15,guess_choice,881,f,0,0,96,420042,1600332
46,18,female,Belg,3,98,guess,win,5,right,15,guess_outcome,0,undefined,0,0,116,418476,1601898
46,18,female,Belg,3,98,ITC,win,5,right,15,ITC_start,2281,space,0,0,116,416194,1604180
46,18,female,Belg,3,98,ITC,win,5,right,15,ITC_choice,956,f,0,0,116,415238,1605136
46,18,female,Belg,3,98,ITC,win,5,right,15,ITC_wait,0,undefined,0,0,116,415235,1605139
46,18,female,Belg,3,98,ITC,win,5,right,15,ITC_collect,581,k,0,0,116,414653,1605721
46,18,female,Belg,3,98,ITC,win,5,right,15,ITC_outcome,0,undefined,0,0,131,413649,1606725
46,18,female,Belg,3,99,guess,loss,10,left,2,guess_start,431,space,0,0,131,413216,1607158
46,18,female,Belg,3,99,guess,loss,10,left,2,guess_choice,727,f,0,0,131,412487,1607887
46,18,female,Belg,3,99,guess,loss,10,left,2,guess_outcome,0,undefined,0,0,116,410934,1609440
46,18,female,Belg,3,99,ITC,loss,10,left,2,ITC_start,226,space,0,0,116,410708,1609666
46,18,female,Belg,3,99,ITC,loss,10,left,2,ITC_choice,1661,j,0,0,116,409046,1611328
46,18,female,Belg,3,99,ITC,loss,10,left,2,ITC_wait,0,undefined,0,0,116,409043,1611331
46,18,female,Belg,3,99,ITC,loss,10,left,2,ITC_collect,1008,k,0,0,116,408033,1612341
46,18,female,Belg,3,99,ITC,loss,10,left,2,ITC_outcome,0,undefined,0,0,118,407026,1613348
46,18,female,Belg,3,100,guess,win,10,right,7,guess_start,350,space,0,0,118,406674,1613700
46,18,female,Belg,3,100,guess,win,10,right,7,guess_choice,1212,j,0,0,118,405461,1614913
46,18,female,Belg,3,100,guess,win,10,right,7,guess_outcome,0,undefined,0,0,138,403894,1616480
46,18,female,Belg,3,100,ITC,win,10,right,7,ITC_start,442,space,0,0,138,403451,1616923
46,18,female,Belg,3,100,ITC,win,10,right,7,ITC_choice,937,f,0,0,138,402513,1617861
46,18,female,Belg,3,100,ITC,win,10,right,7,ITC_wait,0,undefined,0,0,138,402510,1617864
46,18,female,Belg,3,100,ITC,win,10,right,7,ITC_collect,357,k,0,0,138,402151,1618223
46,18,female,Belg,3,100,ITC,win,10,right,7,ITC_outcome,0,undefined,0,0,145,401144,1619230
46,18,female,Belg,3,101,guess,loss,5,right,13,guess_start,373,space,0,0,145,400769,1619605
46,18,female,Belg,3,101,guess,loss,5,right,13,guess_choice,828,f,0,0,145,399939,1620435
46,18,female,Belg,3,101,guess,loss,5,right,13,guess_outcome,0,undefined,0,0,130,398379,1621995
46,18,female,Belg,3,101,ITC,loss,5,right,13,ITC_start,364,space,0,0,130,398014,1622360
46,18,female,Belg,3,101,ITC,loss,5,right,13,ITC_choice,588,j,0,0,130,397425,1622949
46,18,female,Belg,3,101,ITC,loss,5,right,13,ITC_wait,0,undefined,0,0,130,392423,1627951
46,18,female,Belg,3,101,ITC,loss,5,right,13,ITC_collect,344,k,0,0,130,392078,1628296
46,18,female,Belg,3,101,ITC,loss,5,right,13,ITC_outcome,0,undefined,0,0,150,391063,1629311
46,18,female,Belg,3,102,guess,win,5,left,5,guess_start,340,space,0,0,150,390722,1629652
46,18,female,Belg,3,102,guess,win,5,left,5,guess_choice,585,f,0,0,150,390136,1630238
46,18,female,Belg,3,102,guess,win,5,left,5,guess_outcome,0,undefined,0,0,170,388579,1631795
46,18,female,Belg,3,102,ITC,win,5,left,5,ITC_start,469,space,0,0,170,388108,1632266
46,18,female,Belg,3,102,ITC,win,5,left,5,ITC_choice,1690,j,0,0,170,386418,1633956
46,18,female,Belg,3,102,ITC,win,5,left,5,ITC_wait,0,undefined,0,0,170,386415,1633959
46,18,female,Belg,3,102,ITC,win,5,left,5,ITC_collect,575,k,0,0,170,385839,1634535
46,18,female,Belg,3,102,ITC,win,5,left,5,ITC_outcome,0,undefined,0,0,175,384836,1635538
46,18,female,Belg,3,103,guess,neutral,5,right,13,guess_start,392,space,0,0,175,384442,1635932
46,18,female,Belg,3,103,guess,neutral,5,right,13,guess_choice,930,j,0,0,175,383509,1636865
46,18,female,Belg,3,103,guess,neutral,5,right,13,guess_outcome,0,undefined,0,0,175,381945,1638429
46,18,female,Belg,3,103,ITC,neutral,5,right,13,ITC_start,379,space,0,0,175,381563,1638811
46,18,female,Belg,3,103,ITC,neutral,5,right,13,ITC_choice,1185,f,0,0,175,380377,1639997
46,18,female,Belg,3,103,ITC,neutral,5,right,13,ITC_wait,0,undefined,0,0,175,380374,1640000
46,18,female,Belg,3,103,ITC,neutral,5,right,13,ITC_collect,359,k,0,0,175,380014,1640360
46,18,female,Belg,3,103,ITC,neutral,5,right,13,ITC_outcome,0,undefined,0,0,188,378998,1641376
46,18,female,Belg,3,104,guess,loss,5,left,8,guess_start,479,space,0,0,188,378518,1641856
46,18,female,Belg,3,104,guess,loss,5,left,8,guess_choice,1548,j,0,0,188,376968,1643406
46,18,female,Belg,3,104,guess,loss,5,left,8,guess_outcome,0,undefined,0,0,173,375403,1644971
46,18,female,Belg,3,104,ITC,loss,5,left,8,ITC_start,494,space,0,0,173,374907,1645467
46,18,female,Belg,3,104,ITC,loss,5,left,8,ITC_choice,691,j,0,0,173,374213,1646161
46,18,female,Belg,3,104,ITC,loss,5,left,8,ITC_wait,0,undefined,0,0,173,374211,1646163
46,18,female,Belg,3,104,ITC,loss,5,left,8,ITC_collect,661,k,0,0,173,373548,1646826
46,18,female,Belg,3,104,ITC,loss,5,left,8,ITC_outcome,0,undefined,0,0,181,372545,1647829
46,18,female,Belg,3,105,guess,win,5,left,11,guess_start,340,space,0,0,181,372203,1648171
46,18,female,Belg,3,105,guess,win,5,left,11,guess_choice,552,f,0,0,181,371646,1648728
46,18,female,Belg,3,105,guess,win,5,left,11,guess_outcome,0,undefined,0,0,201,370091,1650283
46,18,female,Belg,3,105,ITC,win,5,left,11,ITC_start,380,space,0,0,201,369711,1650663
46,18,female,Belg,3,105,ITC,win,5,left,11,ITC_choice,1377,f,0,0,201,368333,1652041
46,18,female,Belg,3,105,ITC,win,5,left,11,ITC_wait,0,undefined,0,0,201,363330,1657044
46,18,female,Belg,3,105,ITC,win,5,left,11,ITC_collect,812,k,0,0,201,362517,1657857
46,18,female,Belg,3,105,ITC,win,5,left,11,ITC_outcome,0,undefined,0,0,221,361510,1658864
46,18,female,Belg,3,106,guess,neutral,5,left,4,guess_start,469,space,0,0,221,361040,1659334
46,18,female,Belg,3,106,guess,neutral,5,left,4,guess_choice,574,f,0,0,221,360463,1659911
46,18,female,Belg,3,106,guess,neutral,5,left,4,guess_outcome,0,undefined,0,0,221,358904,1661470
46,18,female,Belg,3,106,ITC,neutral,5,left,4,ITC_start,471,space,0,0,221,358432,1661942
46,18,female,Belg,3,106,ITC,neutral,5,left,4,ITC_wait,0,undefined,0,0,221,357527,1662847
46,18,female,Belg,3,106,ITC,neutral,5,left,4,ITC_choice,900,j,0,0,221,357530,1662844
46,18,female,Belg,3,106,ITC,neutral,5,left,4,ITC_collect,516,k,0,0,221,357010,1663364
46,18,female,Belg,3,106,ITC,neutral,5,left,4,ITC_outcome,0,undefined,0,0,225,356000,1664374
46,18,female,Belg,3,107,guess,neutral,10,right,5,guess_start,398,space,0,0,225,355602,1664772
46,18,female,Belg,3,107,guess,neutral,10,right,5,guess_choice,1156,j,0,0,225,354444,1665930
46,18,female,Belg,3,107,guess,neutral,10,right,5,guess_outcome,0,undefined,0,0,225,352887,1667487
46,18,female,Belg,3,107,ITC,neutral,10,right,5,ITC_start,26,space,0,0,225,352861,1667513
46,18,female,Belg,3,107,ITC,neutral,10,right,5,ITC_choice,866,f,0,0,225,351994,1668380
46,18,female,Belg,3,107,ITC,neutral,10,right,5,ITC_wait,0,undefined,0,0,225,351991,1668383
46,18,female,Belg,3,107,ITC,neutral,10,right,5,ITC_collect,444,k,0,0,225,351545,1668829
46,18,female,Belg,3,107,ITC,neutral,10,right,5,ITC_outcome,0,undefined,0,0,230,350537,1669837
46,18,female,Belg,3,108,guess,win,10,left,6,guess_start,441,space,0,0,230,350096,1670278
46,18,female,Belg,3,108,guess,win,10,left,6,guess_choice,874,f,0,0,230,349220,1671154
46,18,female,Belg,3,108,guess,win,10,left,6,guess_outcome,0,undefined,0,0,250,347652,1672722
46,18,female,Belg,3,108,ITC,win,10,left,6,ITC_start,562,space,0,0,250,347089,1673285
46,18,female,Belg,3,108,ITC,win,10,left,6,ITC_choice,964,j,0,0,250,346125,1674249
46,18,female,Belg,3,108,ITC,win,10,left,6,ITC_wait,0,undefined,0,0,250,346122,1674252
46,18,female,Belg,3,108,ITC,win,10,left,6,ITC_collect,853,k,0,0,250,345268,1675106
46,18,female,Belg,3,108,ITC,win,10,left,6,ITC_outcome,0,undefined,0,0,256,344257,1676117
46,18,female,Belg,3,109,guess,win,5,right,3,guess_start,294,space,0,0,256,343962,1676412
46,18,female,Belg,3,109,guess,win,5,right,3,guess_choice,549,f,0,0,256,343411,1676963
46,18,female,Belg,3,109,guess,win,5,right,3,guess_outcome,0,undefined,0,0,276,341846,1678528
46,18,female,Belg,3,109,ITC,win,5,right,3,ITC_start,5697,space,0,0,276,336147,1684227
46,18,female,Belg,3,109,ITC,win,5,right,3,ITC_choice,1295,f,0,0,276,334851,1685523
46,18,female,Belg,3,109,ITC,win,5,right,3,ITC_wait,0,undefined,0,0,276,334848,1685526
46,18,female,Belg,3,109,ITC,win,5,right,3,ITC_collect,525,k,0,0,276,334322,1686052
46,18,female,Belg,3,109,ITC,win,5,right,3,ITC_outcome,0,undefined,0,0,279,333311,1687063
46,18,female,Belg,3,110,guess,loss,5,right,7,guess_start,343,space,0,0,279,332967,1687407
46,18,female,Belg,3,110,guess,loss,5,right,7,guess_choice,728,j,0,0,279,332237,1688137
46,18,female,Belg,3,110,guess,loss,5,right,7,guess_outcome,0,undefined,0,0,264,330675,1689699
46,18,female,Belg,3,110,ITC,loss,5,right,7,ITC_start,451,space,0,0,264,330224,1690150
46,18,female,Belg,3,110,ITC,loss,5,right,7,ITC_choice,629,j,0,0,264,329594,1690780
46,18,female,Belg,3,110,ITC,loss,5,right,7,ITC_wait,0,undefined,0,0,264,324590,1695784
46,18,female,Belg,3,110,ITC,loss,5,right,7,ITC_collect,469,k,0,0,264,324120,1696254
46,18,female,Belg,3,110,ITC,loss,5,right,7,ITC_outcome,0,undefined,0,0,284,323108,1697266
46,18,female,Belg,3,111,guess,loss,5,left,10,guess_start,383,space,0,0,284,322724,1697650
46,18,female,Belg,3,111,guess,loss,5,left,10,guess_choice,576,f,0,0,284,322146,1698228
46,18,female,Belg,3,111,guess,loss,5,left,10,guess_outcome,0,undefined,0,0,269,320577,1699797
46,18,female,Belg,3,111,ITC,loss,5,left,10,ITC_start,450,space,0,0,269,320126,1700248
46,18,female,Belg,3,111,ITC,loss,5,left,10,ITC_choice,1212,j,0,0,269,318913,1701461
46,18,female,Belg,3,111,ITC,loss,5,left,10,ITC_wait,0,undefined,0,0,269,318911,1701463
46,18,female,Belg,3,111,ITC,loss,5,left,10,ITC_collect,89,k,0,0,269,318821,1701553
46,18,female,Belg,3,111,ITC,loss,5,left,10,ITC_outcome,0,undefined,0,0,279,317810,1702564
46,18,female,Belg,3,112,guess,win,5,left,16,guess_start,336,space,0,0,279,317473,1702901
46,18,female,Belg,3,112,guess,win,5,left,16,guess_choice,993,f,0,0,279,316478,1703896
46,18,female,Belg,3,112,guess,win,5,left,16,guess_outcome,0,undefined,0,0,299,314923,1705451
46,18,female,Belg,3,112,ITC,win,5,left,16,ITC_start,918,space,0,0,299,314005,1706369
46,18,female,Belg,3,112,ITC,win,5,left,16,ITC_choice,824,j,0,0,299,313180,1707194
46,18,female,Belg,3,112,ITC,win,5,left,16,ITC_wait,0,undefined,0,0,299,313177,1707197
46,18,female,Belg,3,112,ITC,win,5,left,16,ITC_collect,493,k,0,0,299,312683,1707691
46,18,female,Belg,3,112,ITC,win,5,left,16,ITC_outcome,0,undefined,0,0,315,311670,1708704
46,18,female,Belg,3,113,guess,win,10,right,2,guess_start,864,space,0,0,315,310805,1709569
46,18,female,Belg,3,113,guess,win,10,right,2,guess_choice,496,j,0,0,315,310307,1710067
46,18,female,Belg,3,113,guess,win,10,right,2,guess_outcome,0,undefined,0,0,335,308749,1711625
46,18,female,Belg,3,113,ITC,win,10,right,2,ITC_start,475,space,0,0,335,308274,1712100
46,18,female,Belg,3,113,ITC,win,10,right,2,ITC_choice,1253,f,0,0,335,307020,1713354
46,18,female,Belg,3,113,ITC,win,10,right,2,ITC_wait,0,undefined,0,0,335,307017,1713357
46,18,female,Belg,3,113,ITC,win,10,right,2,ITC_collect,380,k,0,0,335,306636,1713738
46,18,female,Belg,3,113,ITC,win,10,right,2,ITC_outcome,0,undefined,0,0,337,305627,1714747
46,18,female,Belg,3,114,guess,loss,10,left,1,guess_start,346,space,0,0,337,305280,1715094
46,18,female,Belg,3,114,guess,loss,10,left,1,guess_choice,1139,j,0,0,337,304140,1716234
46,18,female,Belg,3,114,guess,loss,10,left,1,guess_outcome,0,undefined,0,0,322,302578,1717796
46,18,female,Belg,3,114,ITC,loss,10,left,1,ITC_start,886,space,0,0,322,301691,1718683
46,18,female,Belg,3,114,ITC,loss,10,left,1,ITC_choice,706,f,0,0,322,300984,1719390
46,18,female,Belg,3,114,ITC,loss,10,left,1,ITC_wait,0,undefined,0,0,322,290981,1729393
46,18,female,Belg,3,114,ITC,loss,10,left,1,ITC_collect,929,k,0,0,322,290051,1730323
46,18,female,Belg,3,114,ITC,loss,10,left,1,ITC_outcome,0,undefined,0,0,342,289048,1731326
46,18,female,Belg,3,115,guess,neutral,5,right,16,guess_start,129,space,0,0,342,288917,1731457
46,18,female,Belg,3,115,guess,neutral,5,right,16,guess_choice,663,f,0,0,342,288253,1732121
46,18,female,Belg,3,115,guess,neutral,5,right,16,guess_outcome,0,undefined,0,0,342,286687,1733687
46,18,female,Belg,3,115,ITC,neutral,5,right,16,ITC_start,851,space,0,0,342,285835,1734539
46,18,female,Belg,3,115,ITC,neutral,5,right,16,ITC_choice,990,f,0,0,342,284844,1735530
46,18,female,Belg,3,115,ITC,neutral,5,right,16,ITC_wait,0,undefined,0,0,342,284842,1735532
46,18,female,Belg,3,115,ITC,neutral,5,right,16,ITC_collect,1180,k,0,0,342,283660,1736714
46,18,female,Belg,3,115,ITC,neutral,5,right,16,ITC_outcome,0,undefined,0,0,358,282648,1737726
46,18,female,Belg,3,116,guess,win,5,right,12,guess_start,493,space,0,0,358,282153,1738221
46,18,female,Belg,3,116,guess,win,5,right,12,guess_choice,1251,f,0,0,358,280901,1739473
46,18,female,Belg,3,116,guess,win,5,right,12,guess_outcome,0,undefined,0,0,378,279335,1741039
46,18,female,Belg,3,116,ITC,win,5,right,12,ITC_start,556,space,0,0,378,278778,1741596
46,18,female,Belg,3,116,ITC,win,5,right,12,ITC_choice,943,f,0,0,378,277834,1742540
46,18,female,Belg,3,116,ITC,win,5,right,12,ITC_wait,0,undefined,0,0,378,277831,1742543
46,18,female,Belg,3,116,ITC,win,5,right,12,ITC_collect,387,k,0,0,378,277443,1742931
46,18,female,Belg,3,116,ITC,win,5,right,12,ITC_outcome,0,undefined,0,0,390,276429,1743945
46,18,female,Belg,3,117,guess,loss,10,left,5,guess_start,806,space,0,0,390,275622,1744752
46,18,female,Belg,3,117,guess,loss,10,left,5,guess_choice,597,f,0,0,390,275021,1745353
46,18,female,Belg,3,117,guess,loss,10,left,5,guess_outcome,0,undefined,0,0,375,273464,1746910
46,18,female,Belg,3,117,ITC,loss,10,left,5,ITC_start,436,space,0,0,375,273027,1747347
46,18,female,Belg,3,117,ITC,loss,10,left,5,ITC_choice,940,f,0,0,375,272087,1748287
46,18,female,Belg,3,117,ITC,loss,10,left,5,ITC_wait,0,undefined,0,0,375,262085,1758289
46,18,female,Belg,3,117,ITC,loss,10,left,5,ITC_collect,397,k,0,0,375,261686,1758688
46,18,female,Belg,3,117,ITC,loss,10,left,5,ITC_outcome,0,undefined,0,0,395,260673,1759701
46,18,female,Belg,3,118,guess,loss,5,right,2,guess_start,586,space,0,0,395,260084,1760290
46,18,female,Belg,3,118,guess,loss,5,right,2,guess_choice,1358,f,0,0,395,258725,1761649
46,18,female,Belg,3,118,guess,loss,5,right,2,guess_outcome,0,undefined,0,0,380,257162,1763212
46,18,female,Belg,3,118,ITC,loss,5,right,2,ITC_start,418,space,0,0,380,256743,1763631
46,18,female,Belg,3,118,ITC,loss,5,right,2,ITC_choice,2626,j,0,0,380,254116,1766258
46,18,female,Belg,3,118,ITC,loss,5,right,2,ITC_wait,0,undefined,0,0,380,249111,1771263
46,18,female,Belg,3,118,ITC,loss,5,right,2,ITC_collect,856,k,0,0,380,248254,1772120
46,18,female,Belg,3,118,ITC,loss,5,right,2,ITC_outcome,0,undefined,0,0,400,247249,1773125
46,18,female,Belg,3,119,guess,neutral,10,right,2,guess_start,499,space,0,0,400,246749,1773625
46,18,female,Belg,3,119,guess,neutral,10,right,2,guess_choice,860,j,0,0,400,245887,1774487
46,18,female,Belg,3,119,guess,neutral,10,right,2,guess_outcome,0,undefined,0,0,400,244329,1776045
46,18,female,Belg,3,119,ITC,neutral,10,right,2,ITC_start,1968,space,0,0,400,242361,1778013
46,18,female,Belg,3,119,ITC,neutral,10,right,2,ITC_choice,1385,f,0,0,400,240975,1779399
46,18,female,Belg,3,119,ITC,neutral,10,right,2,ITC_wait,0,undefined,0,0,400,240972,1779402
46,18,female,Belg,3,119,ITC,neutral,10,right,2,ITC_collect,418,k,0,0,400,240552,1779822
46,18,female,Belg,3,119,ITC,neutral,10,right,2,ITC_outcome,0,undefined,0,0,402,239539,1780835
46,18,female,Belg,3,120,guess,loss,5,right,15,guess_start,387,space,0,0,402,239151,1781223
46,18,female,Belg,3,120,guess,loss,5,right,15,guess_choice,950,f,0,0,402,238199,1782175
46,18,female,Belg,3,120,guess,loss,5,right,15,guess_outcome,0,undefined,0,0,387,236636,1783738
46,18,female,Belg,3,120,ITC,loss,5,right,15,ITC_start,657,space,0,0,387,235978,1784396
46,18,female,Belg,3,120,ITC,loss,5,right,15,ITC_choice,1519,f,0,0,387,234459,1785915
46,18,female,Belg,3,120,ITC,loss,5,right,15,ITC_wait,0,undefined,0,0,387,234457,1785917
46,18,female,Belg,3,120,ITC,loss,5,right,15,ITC_collect,407,k,0,0,387,234048,1786326
46,18,female,Belg,3,120,ITC,loss,5,right,15,ITC_outcome,0,undefined,0,0,402,233038,1787336
46,18,female,Belg,3,121,guess,neutral,10,right,4,guess_start,384,space,0,0,402,232652,1787722
46,18,female,Belg,3,121,guess,neutral,10,right,4,guess_choice,806,f,0,0,402,231844,1788530
46,18,female,Belg,3,121,guess,neutral,10,right,4,guess_outcome,0,undefined,0,0,402,230292,1790082
46,18,female,Belg,3,121,ITC,neutral,10,right,4,ITC_start,584,space,0,0,402,229707,1790667
46,18,female,Belg,3,121,ITC,neutral,10,right,4,ITC_choice,912,f,0,0,402,228793,1791581
46,18,female,Belg,3,121,ITC,neutral,10,right,4,ITC_wait,0,undefined,0,0,402,228791,1791583
46,18,female,Belg,3,121,ITC,neutral,10,right,4,ITC_collect,267,k,0,0,402,228523,1791851
46,18,female,Belg,3,121,ITC,neutral,10,right,4,ITC_outcome,0,undefined,0,0,406,227508,1792866
46,18,female,Belg,3,122,guess,loss,5,right,11,guess_start,410,space,0,0,406,227096,1793278
46,18,female,Belg,3,122,guess,loss,5,right,11,guess_choice,1087,j,0,0,406,226007,1794367
46,18,female,Belg,3,122,guess,loss,5,right,11,guess_outcome,0,undefined,0,0,391,224444,1795930
46,18,female,Belg,3,122,ITC,loss,5,right,11,ITC_start,435,space,0,0,391,224007,1796367
46,18,female,Belg,3,122,ITC,loss,5,right,11,ITC_choice,564,j,0,0,391,223443,1796931
46,18,female,Belg,3,122,ITC,loss,5,right,11,ITC_wait,0,undefined,0,0,391,218430,1801944
46,18,female,Belg,3,122,ITC,loss,5,right,11,ITC_collect,1115,k,0,0,391,217313,1803061
46,18,female,Belg,3,122,ITC,loss,5,right,11,ITC_outcome,0,undefined,0,0,411,216298,1804076
46,18,female,Belg,3,123,guess,loss,5,right,9,guess_start,311,space,0,0,411,215986,1804388
46,18,female,Belg,3,123,guess,loss,5,right,9,guess_choice,877,f,0,0,411,215107,1805267
46,18,female,Belg,3,123,guess,loss,5,right,9,guess_outcome,0,undefined,0,0,396,213551,1806823
46,18,female,Belg,3,123,ITC,loss,5,right,9,ITC_start,534,space,0,0,396,213015,1807359
46,18,female,Belg,3,123,ITC,loss,5,right,9,ITC_choice,784,j,0,0,396,212230,1808144
46,18,female,Belg,3,123,ITC,loss,5,right,9,ITC_wait,0,undefined,0,0,396,207215,1813159
46,18,female,Belg,3,123,ITC,loss,5,right,9,ITC_collect,353,k,0,0,396,206861,1813513
46,18,female,Belg,3,123,ITC,loss,5,right,9,ITC_outcome,0,undefined,0,0,416,205857,1814517
46,18,female,Belg,3,124,guess,loss,5,right,1,guess_start,413,space,0,0,416,205443,1814931
46,18,female,Belg,3,124,guess,loss,5,right,1,guess_choice,1130,j,0,0,416,204311,1816063
46,18,female,Belg,3,124,guess,loss,5,right,1,guess_outcome,0,undefined,0,0,401,202757,1817617
46,18,female,Belg,3,124,ITC,loss,5,right,1,ITC_start,220,space,0,0,401,202536,1817838
46,18,female,Belg,3,124,ITC,loss,5,right,1,ITC_choice,778,j,0,0,401,201757,1818617
46,18,female,Belg,3,124,ITC,loss,5,right,1,ITC_wait,0,undefined,0,0,401,196755,1823619
46,18,female,Belg,3,124,ITC,loss,5,right,1,ITC_collect,1174,k,0,0,401,195580,1824794
46,18,female,Belg,3,124,ITC,loss,5,right,1,ITC_outcome,0,undefined,0,0,421,194574,1825800
46,18,female,Belg,3,125,guess,neutral,5,right,3,guess_start,465,space,0,0,421,194108,1826266
46,18,female,Belg,3,125,guess,neutral,5,right,3,guess_choice,521,f,0,0,421,193585,1826789
46,18,female,Belg,3,125,guess,neutral,5,right,3,guess_outcome,0,undefined,0,0,421,192023,1828351
46,18,female,Belg,3,125,ITC,neutral,5,right,3,ITC_start,591,space,0,0,421,191431,1828943
46,18,female,Belg,3,125,ITC,neutral,5,right,3,ITC_choice,1271,j,0,0,421,190155,1830219
46,18,female,Belg,3,125,ITC,neutral,5,right,3,ITC_wait,0,undefined,0,0,421,185140,1835234
46,18,female,Belg,3,125,ITC,neutral,5,right,3,ITC_collect,1337,k,0,0,421,183802,1836572
46,18,female,Belg,3,125,ITC,neutral,5,right,3,ITC_outcome,0,undefined,0,0,441,182785,1837589
46,18,female,Belg,3,126,guess,win,10,left,5,guess_start,439,space,0,0,441,182344,1838030
46,18,female,Belg,3,126,guess,win,10,left,5,guess_choice,1117,f,0,0,441,181225,1839149
46,18,female,Belg,3,126,guess,win,10,left,5,guess_outcome,0,undefined,0,0,461,179668,1840706
46,18,female,Belg,3,126,ITC,win,10,left,5,ITC_start,190,space,0,0,461,179477,1840897
46,18,female,Belg,3,126,ITC,win,10,left,5,ITC_choice,1711,j,0,0,461,177764,1842610
46,18,female,Belg,3,126,ITC,win,10,left,5,ITC_wait,0,undefined,0,0,461,177762,1842612
46,18,female,Belg,3,126,ITC,win,10,left,5,ITC_collect,679,k,0,0,461,177082,1843292
46,18,female,Belg,3,126,ITC,win,10,left,5,ITC_outcome,0,undefined,0,0,466,176074,1844300
46,18,female,Belg,3,127,guess,neutral,10,right,1,guess_start,318,space,0,0,466,175751,1844623
46,18,female,Belg,3,127,guess,neutral,10,right,1,guess_choice,520,f,0,0,466,175228,1845146
46,18,female,Belg,3,127,guess,neutral,10,right,1,guess_outcome,0,undefined,0,0,466,173673,1846701
46,18,female,Belg,3,127,ITC,neutral,10,right,1,ITC_start,461,space,0,0,466,173211,1847163
46,18,female,Belg,3,127,ITC,neutral,10,right,1,ITC_choice,1361,j,0,0,466,171849,1848525
46,18,female,Belg,3,127,ITC,neutral,10,right,1,ITC_wait,0,undefined,0,0,466,161840,1858534
46,18,female,Belg,3,127,ITC,neutral,10,right,1,ITC_collect,1216,k,0,0,466,160621,1859753
46,18,female,Belg,3,127,ITC,neutral,10,right,1,ITC_outcome,0,undefined,0,0,486,159611,1860763
46,18,female,Belg,3,128,guess,neutral,10,left,7,guess_start,497,space,0,0,486,159113,1861261
46,18,female,Belg,3,128,guess,neutral,10,left,7,guess_choice,702,j,0,0,486,158409,1861965
46,18,female,Belg,3,128,guess,neutral,10,left,7,guess_outcome,0,undefined,0,0,486,156843,1863531
46,18,female,Belg,3,128,ITC,neutral,10,left,7,ITC_start,573,space,0,0,486,156269,1864105
46,18,female,Belg,3,128,ITC,neutral,10,left,7,ITC_choice,764,f,0,0,486,155504,1864870
46,18,female,Belg,3,128,ITC,neutral,10,left,7,ITC_wait,0,undefined,0,0,486,145502,1874872
46,18,female,Belg,3,128,ITC,neutral,10,left,7,ITC_collect,539,k,0,0,486,144962,1875412
46,18,female,Belg,3,128,ITC,neutral,10,left,7,ITC_outcome,0,undefined,0,0,506,143956,1876418
46,18,female,Belg,3,129,guess,loss,5,right,12,guess_start,390,space,0,0,506,143565,1876809
46,18,female,Belg,3,129,guess,loss,5,right,12,guess_choice,965,f,0,0,506,142598,1877776
46,18,female,Belg,3,129,guess,loss,5,right,12,guess_outcome,0,undefined,0,0,491,141032,1879342
46,18,female,Belg,3,129,ITC,loss,5,right,12,ITC_start,463,space,0,0,491,140568,1879806
46,18,female,Belg,3,129,ITC,loss,5,right,12,ITC_choice,1292,f,0,0,491,139275,1881099
46,18,female,Belg,3,129,ITC,loss,5,right,12,ITC_wait,0,undefined,0,0,491,139273,1881101
46,18,female,Belg,3,129,ITC,loss,5,right,12,ITC_collect,359,k,0,0,491,138913,1881461
46,18,female,Belg,3,129,ITC,loss,5,right,12,ITC_outcome,0,undefined,0,0,503,137908,1882466
46,18,female,Belg,3,130,guess,neutral,10,left,3,guess_start,322,space,0,0,503,137585,1882789
46,18,female,Belg,3,130,guess,neutral,10,left,3,guess_choice,632,f,0,0,503,136950,1883424
46,18,female,Belg,3,130,guess,neutral,10,left,3,guess_outcome,0,undefined,0,0,503,135396,1884978
46,18,female,Belg,3,130,ITC,neutral,10,left,3,ITC_start,734,space,0,0,503,134661,1885713
46,18,female,Belg,3,130,ITC,neutral,10,left,3,ITC_choice,1068,f,0,0,503,133587,1886787
46,18,female,Belg,3,130,ITC,neutral,10,left,3,ITC_wait,0,undefined,0,0,503,123580,1896794
46,18,female,Belg,3,130,ITC,neutral,10,left,3,ITC_collect,703,k,0,0,503,122874,1897500
46,18,female,Belg,3,130,ITC,neutral,10,left,3,ITC_outcome,0,undefined,0,0,523,121858,1898516
46,18,female,Belg,3,131,guess,loss,5,left,14,guess_start,505,space,0,0,523,121352,1899022
46,18,female,Belg,3,131,guess,loss,5,left,14,guess_choice,1046,j,0,0,523,120304,1900070
46,18,female,Belg,3,131,guess,loss,5,left,14,guess_outcome,0,undefined,0,0,508,118738,1901636
46,18,female,Belg,3,131,ITC,loss,5,left,14,ITC_start,516,space,0,0,508,118221,1902153
46,18,female,Belg,3,131,ITC,loss,5,left,14,ITC_choice,1746,j,0,0,508,116474,1903900
46,18,female,Belg,3,131,ITC,loss,5,left,14,ITC_wait,0,undefined,0,0,508,116472,1903902
46,18,female,Belg,3,131,ITC,loss,5,left,14,ITC_collect,687,k,0,0,508,115783,1904591
46,18,female,Belg,3,131,ITC,loss,5,left,14,ITC_outcome,0,undefined,0,0,522,114770,1905604
46,18,female,Belg,3,132,guess,loss,5,right,5,guess_start,351,space,0,0,522,114418,1905956
46,18,female,Belg,3,132,guess,loss,5,right,5,guess_choice,1204,f,0,0,522,113213,1907161
46,18,female,Belg,3,132,guess,loss,5,right,5,guess_outcome,0,undefined,0,0,507,111648,1908726
46,18,female,Belg,3,132,ITC,loss,5,right,5,ITC_start,658,space,0,0,507,110987,1909387
46,18,female,Belg,3,132,ITC,loss,5,right,5,ITC_choice,738,j,0,0,507,110248,1910126
46,18,female,Belg,3,132,ITC,loss,5,right,5,ITC_wait,0,undefined,0,0,507,105234,1915140
46,18,female,Belg,3,132,ITC,loss,5,right,5,ITC_collect,339,k,0,0,507,104893,1915481
46,18,female,Belg,3,132,ITC,loss,5,right,5,ITC_outcome,0,undefined,0,0,527,103884,1916490
46,18,female,Belg,3,133,guess,loss,10,right,7,guess_start,770,space,0,0,527,103113,1917261
46,18,female,Belg,3,133,guess,loss,10,right,7,guess_choice,1290,j,0,0,527,101821,1918553
46,18,female,Belg,3,133,guess,loss,10,right,7,guess_outcome,0,undefined,0,0,512,100262,1920112
46,18,female,Belg,3,133,ITC,loss,10,right,7,ITC_start,367,space,0,0,512,99894,1920480
46,18,female,Belg,3,133,ITC,loss,10,right,7,ITC_choice,685,j,0,0,512,99208,1921166
46,18,female,Belg,3,133,ITC,loss,10,right,7,ITC_wait,0,undefined,0,0,512,89199,1931175
46,18,female,Belg,3,133,ITC,loss,10,right,7,ITC_collect,526,k,0,0,512,88671,1931703
46,18,female,Belg,3,133,ITC,loss,10,right,7,ITC_outcome,0,undefined,0,0,532,87667,1932707
46,18,female,Belg,3,134,guess,neutral,5,right,10,guess_start,457,space,0,0,532,87209,1933165
46,18,female,Belg,3,134,guess,neutral,5,right,10,guess_choice,628,f,0,0,532,86579,1933795
46,18,female,Belg,3,134,guess,neutral,5,right,10,guess_outcome,0,undefined,0,0,532,85017,1935357
46,18,female,Belg,3,134,ITC,neutral,5,right,10,ITC_start,405,space,0,0,532,84611,1935763
46,18,female,Belg,3,134,ITC,neutral,5,right,10,ITC_choice,772,f,0,0,532,83838,1936536
46,18,female,Belg,3,134,ITC,neutral,5,right,10,ITC_wait,0,undefined,0,0,532,83835,1936539
46,18,female,Belg,3,134,ITC,neutral,5,right,10,ITC_collect,295,k,0,0,532,83540,1936834
46,18,female,Belg,3,134,ITC,neutral,5,right,10,ITC_outcome,0,undefined,0,0,542,82537,1937837
46,18,female,Belg,3,135,guess,win,5,left,14,guess_start,370,space,0,0,542,82165,1938209
46,18,female,Belg,3,135,guess,win,5,left,14,guess_choice,1035,j,0,0,542,81129,1939245
46,18,female,Belg,3,135,guess,win,5,left,14,guess_outcome,0,undefined,0,0,562,79572,1940802
46,18,female,Belg,3,135,ITC,win,5,left,14,ITC_start,448,space,0,0,562,79123,1941251
46,18,female,Belg,3,135,ITC,win,5,left,14,ITC_choice,1388,j,0,0,562,77735,1942639
46,18,female,Belg,3,135,ITC,win,5,left,14,ITC_wait,0,undefined,0,0,562,77732,1942642
46,18,female,Belg,3,135,ITC,win,5,left,14,ITC_collect,764,k,0,0,562,76967,1943407
46,18,female,Belg,3,135,ITC,win,5,left,14,ITC_outcome,0,undefined,0,0,576,75953,1944421
46,18,female,Belg,3,136,guess,loss,10,right,3,guess_start,349,space,0,0,576,75602,1944772
46,18,female,Belg,3,136,guess,loss,10,right,3,guess_choice,616,j,0,0,576,74984,1945390
46,18,female,Belg,3,136,guess,loss,10,right,3,guess_outcome,0,undefined,0,0,561,73424,1946950
46,18,female,Belg,3,136,ITC,loss,10,right,3,ITC_start,443,space,0,0,561,72981,1947393
46,18,female,Belg,3,136,ITC,loss,10,right,3,ITC_choice,1175,j,0,0,561,71804,1948570
46,18,female,Belg,3,136,ITC,loss,10,right,3,ITC_wait,0,undefined,0,0,561,61803,1958571
46,18,female,Belg,3,136,ITC,loss,10,right,3,ITC_collect,1043,k,0,0,561,60757,1959617
46,18,female,Belg,3,136,ITC,loss,10,right,3,ITC_outcome,0,undefined,0,0,581,59754,1960620
46,18,female,Belg,3,137,guess,loss,5,right,16,guess_start,408,space,0,0,581,59345,1961029
46,18,female,Belg,3,137,guess,loss,5,right,16,guess_choice,835,f,0,0,581,58508,1961866
46,18,female,Belg,3,137,guess,loss,5,right,16,guess_outcome,0,undefined,0,0,566,56955,1963419
46,18,female,Belg,3,137,ITC,loss,5,right,16,ITC_start,213,space,0,0,566,56741,1963633
46,18,female,Belg,3,137,ITC,loss,5,right,16,ITC_choice,1170,f,0,0,566,55569,1964805
46,18,female,Belg,3,137,ITC,loss,5,right,16,ITC_wait,0,undefined,0,0,566,55567,1964807
46,18,female,Belg,3,137,ITC,loss,5,right,16,ITC_collect,308,k,0,0,566,55257,1965117
46,18,female,Belg,3,137,ITC,loss,5,right,16,ITC_outcome,0,undefined,0,0,582,54246,1966128
46,18,female,Belg,3,138,guess,win,10,right,1,guess_start,412,space,0,0,582,53832,1966542
46,18,female,Belg,3,138,guess,win,10,right,1,guess_choice,782,j,0,0,582,53048,1967326
46,18,female,Belg,3,138,guess,win,10,right,1,guess_outcome,0,undefined,0,0,602,51480,1968894
46,18,female,Belg,3,138,ITC,win,10,right,1,ITC_start,418,space,0,0,602,51062,1969312
46,18,female,Belg,3,138,ITC,win,10,right,1,ITC_choice,2586,j,0,0,602,48474,1971900
46,18,female,Belg,3,138,ITC,win,10,right,1,ITC_wait,0,undefined,0,0,602,38458,1981916
46,18,female,Belg,3,138,ITC,win,10,right,1,ITC_collect,348,k,0,0,602,38108,1982266
46,18,female,Belg,3,138,ITC,win,10,right,1,ITC_outcome,0,undefined,0,0,622,37089,1983285
46,18,female,Belg,3,139,guess,loss,5,left,3,guess_start,345,space,0,0,622,36743,1983631
46,18,female,Belg,3,139,guess,loss,5,left,3,guess_choice,620,f,0,0,622,36121,1984253
46,18,female,Belg,3,139,guess,loss,5,left,3,guess_outcome,0,undefined,0,0,607,34568,1985806
46,18,female,Belg,3,139,ITC,loss,5,left,3,ITC_start,479,space,0,0,607,34088,1986286
46,18,female,Belg,3,139,ITC,loss,5,left,3,ITC_choice,958,j,0,0,607,33128,1987246
46,18,female,Belg,3,139,ITC,loss,5,left,3,ITC_wait,0,undefined,0,0,607,33126,1987248
46,18,female,Belg,3,139,ITC,loss,5,left,3,ITC_collect,1026,k,0,0,607,32099,1988275
46,18,female,Belg,3,139,ITC,loss,5,left,3,ITC_outcome,0,undefined,0,0,610,31093,1989281
46,18,female,Belg,3,140,guess,win,5,left,9,guess_start,112,space,0,0,610,30979,1989395
46,18,female,Belg,3,140,guess,win,5,left,9,guess_choice,666,f,0,0,610,30308,1990066
46,18,female,Belg,3,140,guess,win,5,left,9,guess_outcome,0,undefined,0,0,630,28753,1991621
46,18,female,Belg,3,140,ITC,win,5,left,9,ITC_start,272,space,0,0,630,28480,1991894
46,18,female,Belg,3,140,ITC,win,5,left,9,ITC_choice,1113,j,0,0,630,27363,1993011
46,18,female,Belg,3,140,ITC,win,5,left,9,ITC_wait,0,undefined,0,0,630,27361,1993013
46,18,female,Belg,3,140,ITC,win,5,left,9,ITC_collect,878,k,0,0,630,26482,1993892
46,18,female,Belg,3,140,ITC,win,5,left,9,ITC_outcome,0,undefined,0,0,639,25470,1994904
46,18,female,Belg,3,141,guess,neutral,5,left,1,guess_start,667,space,0,0,639,24802,1995572
46,18,female,Belg,3,141,guess,neutral,5,left,1,guess_choice,974,j,0,0,639,23826,1996548
46,18,female,Belg,3,141,guess,neutral,5,left,1,guess_outcome,0,undefined,0,0,639,22264,1998110
46,18,female,Belg,3,141,ITC,neutral,5,left,1,ITC_start,334,space,0,0,639,21929,1998445
46,18,female,Belg,3,141,ITC,neutral,5,left,1,ITC_choice,1732,f,0,0,639,20196,2000178
46,18,female,Belg,3,141,ITC,neutral,5,left,1,ITC_wait,0,undefined,0,0,639,15180,2005194
46,18,female,Belg,3,141,ITC,neutral,5,left,1,ITC_collect,1977,k,0,0,639,13202,2007172
46,18,female,Belg,3,141,ITC,neutral,5,left,1,ITC_outcome,0,undefined,0,0,659,12197,2008177
46,18,female,Belg,3,142,guess,neutral,5,right,12,guess_start,580,space,0,0,659,11615,2008759
46,18,female,Belg,3,142,guess,neutral,5,right,12,guess_choice,729,f,0,0,659,10883,2009491
46,18,female,Belg,3,142,guess,neutral,5,right,12,guess_outcome,0,undefined,0,0,659,9321,2011053
46,18,female,Belg,3,142,ITC,neutral,5,right,12,ITC_start,485,space,0,0,659,8836,2011538
46,18,female,Belg,3,142,ITC,neutral,5,right,12,ITC_choice,962,f,0,0,659,7873,2012501
46,18,female,Belg,3,142,ITC,neutral,5,right,12,ITC_wait,0,undefined,0,0,659,7869,2012505
46,18,female,Belg,3,142,ITC,neutral,5,right,12,ITC_collect,357,k,0,0,659,7511,2012863
46,18,female,Belg,3,142,ITC,neutral,5,right,12,ITC_outcome,0,undefined,0,0,671,6498,2013876
46,18,female,Belg,3,143,guess,loss,5,left,4,guess_start,320,space,0,0,671,6177,2014197
46,18,female,Belg,3,143,guess,loss,5,left,4,guess_choice,728,f,0,0,671,5446,2014928
46,18,female,Belg,3,143,guess,loss,5,left,4,guess_outcome,0,undefined,0,0,656,3885,2016489
46,18,female,Belg,3,143,ITC,loss,5,left,4,ITC_start,355,space,0,0,656,3529,2016845
46,18,female,Belg,3,143,ITC,loss,5,left,4,ITC_choice,1418,j,0,0,656,2110,2018264
46,18,female,Belg,3,143,ITC,loss,5,left,4,ITC_wait,0,undefined,0,0,656,2106,2018268
46,18,female,Belg,3,143,ITC,loss,5,left,4,ITC_collect,597,k,0,0,656,1509,2018865
46,18,female,Belg,3,143,ITC,loss,5,left,4,ITC_outcome,0,undefined,0,0,660,503,2019871
46,18,female,Belg,3,144,guess,win,5,right,10,guess_start,320,space,0,0,660,181,2020193
46,18,female,Belg,3,144,guess,win,5,right,10,guess_choice,0,undefined,0,0,660,-4,2020378
46,18,female,Belg,4,145,guess,loss,5,right,6,guess_start,11284,space,0,0,0,468716,2136881
46,18,female,Belg,4,145,guess,loss,5,right,6,guess_choice,1593,j,0,0,0,467121,2138476
46,18,female,Belg,4,145,guess,loss,5,right,6,guess_outcome,0,undefined,0,0,-15,465561,2140036
46,18,female,Belg,4,145,ITC,loss,5,right,6,ITC_start,1005,space,0,0,-15,464553,2141044
46,18,female,Belg,4,145,ITC,loss,5,right,6,ITC_choice,2006,f,0,0,-15,462547,2143050
46,18,female,Belg,4,145,ITC,loss,5,right,6,ITC_wait,0,undefined,0,0,-15,462545,2143052
