subjectID,age,gender,nationality,block_number,trial_number,trial_type,guess_outcome,delay_time,delay_pos,immediate_amount,stage,respRT,respKey,blur_count,focus_count,total_points,remaining_duration,time_elapsed
5,24,male,Greek,1,1,guess,loss,5,left,12,guess_start,2053,space,0,0,0,477946,346782
5,24,male,Greek,1,1,guess,loss,5,left,12,guess_choice,1227,j,0,0,0,476715,348013
5,24,male,Greek,1,1,guess,loss,5,left,12,guess_outcome,0,undefined,0,0,-15,475158,349570
5,24,male,Greek,1,1,ITC,loss,5,left,12,ITC_start,1946,space,0,0,-15,473210,351518
5,24,male,Greek,1,1,ITC,loss,5,left,12,ITC_choice,1191,j,0,0,-15,472017,352711
5,24,male,Greek,1,1,ITC,loss,5,left,12,ITC_wait,0,undefined,0,0,-15,472014,352714
5,24,male,Greek,1,1,ITC,loss,5,left,12,ITC_collect,5532,k,0,0,-15,466480,358248
5,24,male,Greek,1,1,ITC,loss,5,left,12,ITC_outcome,0,undefined,0,0,-3,465471,359257
5,24,male,Greek,1,2,guess,neutral,5,left,9,guess_start,1238,space,0,0,-3,464230,360498
5,24,male,Greek,1,2,guess,neutral,5,left,9,guess_choice,1212,j,0,0,-3,463014,361714
5,24,male,Greek,1,2,guess,neutral,5,left,9,guess_outcome,0,undefined,0,0,-3,461458,363270
5,24,male,Greek,1,2,ITC,neutral,5,left,9,ITC_start,2061,space,0,0,-3,459396,365332
5,24,male,Greek,1,2,ITC,neutral,5,left,9,ITC_choice,2162,f,0,0,-3,457232,367496
5,24,male,Greek,1,2,ITC,neutral,5,left,9,ITC_wait,0,undefined,0,0,-3,452221,372507
5,24,male,Greek,1,2,ITC,neutral,5,left,9,ITC_collect,1098,k,0,0,-3,451121,373607
5,24,male,Greek,1,2,ITC,neutral,5,left,9,ITC_outcome,0,undefined,0,0,17,450107,374621
5,24,male,Greek,1,3,guess,loss,5,right,3,guess_start,1175,space,0,0,17,448931,375797
5,24,male,Greek,1,3,guess,loss,5,right,3,guess_choice,1007,f,0,0,17,447921,376807
5,24,male,Greek,1,3,guess,loss,5,right,3,guess_outcome,0,undefined,0,0,2,446351,378377
5,24,male,Greek,1,3,ITC,loss,5,right,3,ITC_start,1083,space,0,0,2,445267,379461
5,24,male,Greek,1,3,ITC,loss,5,right,3,ITC_choice,2941,j,0,0,2,442325,382403
5,24,male,Greek,1,3,ITC,loss,5,right,3,ITC_wait,0,undefined,0,0,2,437311,387417
5,24,male,Greek,1,3,ITC,loss,5,right,3,ITC_collect,644,k,0,0,2,436665,388063
5,24,male,Greek,1,3,ITC,loss,5,right,3,ITC_outcome,0,undefined,0,0,22,435655,389073
5,24,male,Greek,1,4,guess,win,5,right,13,guess_start,671,space,0,0,22,434983,389745
5,24,male,Greek,1,4,guess,win,5,right,13,guess_choice,1434,j,0,0,22,433545,391183
5,24,male,Greek,1,4,guess,win,5,right,13,guess_outcome,0,undefined,0,0,42,431983,392745
5,24,male,Greek,1,4,ITC,win,5,right,13,ITC_start,1709,space,0,0,42,430273,394455
5,24,male,Greek,1,4,ITC,win,5,right,13,ITC_choice,2202,f,0,0,42,428069,396659
5,24,male,Greek,1,4,ITC,win,5,right,13,ITC_wait,0,undefined,0,0,42,428066,396662
5,24,male,Greek,1,4,ITC,win,5,right,13,ITC_collect,1221,k,0,0,42,426843,397885
5,24,male,Greek,1,4,ITC,win,5,right,13,ITC_outcome,0,undefined,0,0,55,425826,398902
5,24,male,Greek,1,5,guess,neutral,10,right,3,guess_start,613,space,0,0,55,425211,399517
5,24,male,Greek,1,5,guess,neutral,10,right,3,guess_choice,828,f,0,0,55,424380,400348
5,24,male,Greek,1,5,guess,neutral,10,right,3,guess_outcome,0,undefined,0,0,55,422812,401916
5,24,male,Greek,1,5,ITC,neutral,10,right,3,ITC_start,1881,space,0,0,55,420929,403799
5,24,male,Greek,1,5,ITC,neutral,10,right,3,ITC_choice,1548,j,0,0,55,419380,405348
5,24,male,Greek,1,5,ITC,neutral,10,right,3,ITC_wait,0,undefined,0,0,55,409365,415363
5,24,male,Greek,1,5,ITC,neutral,10,right,3,ITC_collect,699,k,0,0,55,408665,416063
5,24,male,Greek,1,5,ITC,neutral,10,right,3,ITC_outcome,0,undefined,0,0,75,407658,417070
5,24,male,Greek,1,6,guess,loss,5,right,9,guess_start,795,space,0,0,75,406861,417867
5,24,male,Greek,1,6,guess,loss,5,right,9,guess_choice,854,j,0,0,75,406004,418724
5,24,male,Greek,1,6,guess,loss,5,right,9,guess_outcome,0,undefined,0,0,60,404450,420278
5,24,male,Greek,1,6,ITC,loss,5,right,9,ITC_start,1105,space,0,0,60,403343,421385
5,24,male,Greek,1,6,ITC,loss,5,right,9,ITC_choice,2274,j,0,0,60,401067,423661
5,24,male,Greek,1,6,ITC,loss,5,right,9,ITC_wait,0,undefined,0,0,60,396065,428663
5,24,male,Greek,1,6,ITC,loss,5,right,9,ITC_collect,238,k,0,0,60,395825,428903
5,24,male,Greek,1,6,ITC,loss,5,right,9,ITC_outcome,0,undefined,0,0,80,394811,429917
5,24,male,Greek,1,7,guess,win,5,left,11,guess_start,483,space,0,0,80,394326,430402
5,24,male,Greek,1,7,guess,win,5,left,11,guess_choice,746,f,0,0,80,393577,431151
5,24,male,Greek,1,7,guess,win,5,left,11,guess_outcome,0,undefined,0,0,100,392023,432705
5,24,male,Greek,1,7,ITC,win,5,left,11,ITC_start,55,space,0,0,100,391966,432762
5,24,male,Greek,1,7,ITC,win,5,left,11,ITC_choice,1348,f,0,0,100,390617,434111
5,24,male,Greek,1,7,ITC,win,5,left,11,ITC_wait,0,undefined,0,0,100,385601,439127
5,24,male,Greek,1,7,ITC,win,5,left,11,ITC_collect,261,k,0,0,100,385338,439390
5,24,male,Greek,1,7,ITC,win,5,left,11,ITC_outcome,0,undefined,0,0,120,384331,440397
5,24,male,Greek,1,8,guess,loss,10,right,4,guess_start,592,space,0,0,120,383737,440991
5,24,male,Greek,1,8,guess,loss,10,right,4,guess_choice,793,f,0,0,120,382942,441786
5,24,male,Greek,1,8,guess,loss,10,right,4,guess_outcome,0,undefined,0,0,105,381379,443349
5,24,male,Greek,1,8,ITC,loss,10,right,4,ITC_start,630,space,0,0,105,380748,443980
5,24,male,Greek,1,8,ITC,loss,10,right,4,ITC_choice,1248,j,0,0,105,379499,445229
5,24,male,Greek,1,8,ITC,loss,10,right,4,ITC_wait,0,undefined,0,0,105,369487,455241
5,24,male,Greek,1,8,ITC,loss,10,right,4,ITC_collect,263,k,0,0,105,369223,455505
5,24,male,Greek,1,8,ITC,loss,10,right,4,ITC_outcome,0,undefined,0,0,125,368212,456516
5,24,male,Greek,1,9,guess,neutral,10,left,5,guess_start,469,space,0,0,125,367742,456986
5,24,male,Greek,1,9,guess,neutral,10,left,5,guess_choice,896,j,0,0,125,366843,457885
5,24,male,Greek,1,9,guess,neutral,10,left,5,guess_outcome,0,undefined,0,0,125,365276,459452
5,24,male,Greek,1,9,ITC,neutral,10,left,5,ITC_start,1384,space,0,0,125,363891,460837
5,24,male,Greek,1,9,ITC,neutral,10,left,5,ITC_choice,922,f,0,0,125,362968,461760
5,24,male,Greek,1,9,ITC,neutral,10,left,5,ITC_wait,0,undefined,0,0,125,352962,471766
5,24,male,Greek,1,9,ITC,neutral,10,left,5,ITC_collect,333,k,0,0,125,352627,472101
5,24,male,Greek,1,9,ITC,neutral,10,left,5,ITC_outcome,0,undefined,0,0,145,351615,473113
5,24,male,Greek,1,10,guess,loss,10,left,6,guess_start,459,space,0,0,145,351154,473574
5,24,male,Greek,1,10,guess,loss,10,left,6,guess_choice,870,j,0,0,145,350281,474447
5,24,male,Greek,1,10,guess,loss,10,left,6,guess_outcome,0,undefined,0,0,130,348714,476014
5,24,male,Greek,1,10,ITC,loss,10,left,6,ITC_start,421,space,0,0,130,348292,476436
5,24,male,Greek,1,10,ITC,loss,10,left,6,ITC_choice,2051,j,0,0,130,346239,478489
5,24,male,Greek,1,10,ITC,loss,10,left,6,ITC_wait,0,undefined,0,0,130,346237,478491
5,24,male,Greek,1,10,ITC,loss,10,left,6,ITC_collect,803,k,0,0,130,345432,479296
5,24,male,Greek,1,10,ITC,loss,10,left,6,ITC_outcome,0,undefined,0,0,136,344414,480314
5,24,male,Greek,1,11,guess,win,10,left,6,guess_start,459,space,0,0,136,343953,480775
5,24,male,Greek,1,11,guess,win,10,left,6,guess_choice,615,f,0,0,136,343335,481393
5,24,male,Greek,1,11,guess,win,10,left,6,guess_outcome,0,undefined,0,0,156,341782,482946
5,24,male,Greek,1,11,ITC,win,10,left,6,ITC_start,503,space,0,0,156,341277,483451
5,24,male,Greek,1,11,ITC,win,10,left,6,ITC_choice,1628,j,0,0,156,339648,485080
5,24,male,Greek,1,11,ITC,win,10,left,6,ITC_wait,0,undefined,0,0,156,339645,485083
5,24,male,Greek,1,11,ITC,win,10,left,6,ITC_collect,756,k,0,0,156,338887,485841
5,24,male,Greek,1,11,ITC,win,10,left,6,ITC_outcome,0,undefined,0,0,162,337886,486842
5,24,male,Greek,1,12,guess,neutral,10,left,1,guess_start,567,space,0,0,162,337316,487412
5,24,male,Greek,1,12,guess,neutral,10,left,1,guess_choice,640,f,0,0,162,336673,488055
5,24,male,Greek,1,12,guess,neutral,10,left,1,guess_outcome,0,undefined,0,0,162,335116,489612
5,24,male,Greek,1,12,ITC,neutral,10,left,1,ITC_start,474,space,0,0,162,334641,490087
5,24,male,Greek,1,12,ITC,neutral,10,left,1,ITC_choice,1198,j,0,0,162,333442,491286
5,24,male,Greek,1,12,ITC,neutral,10,left,1,ITC_wait,0,undefined,0,0,162,333439,491289
5,24,male,Greek,1,12,ITC,neutral,10,left,1,ITC_collect,912,k,0,0,162,332525,492203
5,24,male,Greek,1,12,ITC,neutral,10,left,1,ITC_outcome,0,undefined,0,0,163,331520,493208
5,24,male,Greek,1,13,guess,win,5,left,2,guess_start,428,space,0,0,163,331089,493639
5,24,male,Greek,1,13,guess,win,5,left,2,guess_choice,598,f,0,0,163,330489,494239
5,24,male,Greek,1,13,guess,win,5,left,2,guess_outcome,0,undefined,0,0,183,328936,495792
5,24,male,Greek,1,13,ITC,win,5,left,2,ITC_start,696,space,0,0,183,328239,496489
5,24,male,Greek,1,13,ITC,win,5,left,2,ITC_choice,1292,j,0,0,183,326946,497782
5,24,male,Greek,1,13,ITC,win,5,left,2,ITC_wait,0,undefined,0,0,183,326944,497784
5,24,male,Greek,1,13,ITC,win,5,left,2,ITC_collect,732,k,0,0,183,326210,498518
5,24,male,Greek,1,13,ITC,win,5,left,2,ITC_outcome,0,undefined,0,0,185,325201,499527
5,24,male,Greek,1,14,guess,neutral,10,left,6,guess_start,292,space,0,0,185,324907,499821
5,24,male,Greek,1,14,guess,neutral,10,left,6,guess_choice,571,f,0,0,185,324334,500394
5,24,male,Greek,1,14,guess,neutral,10,left,6,guess_outcome,0,undefined,0,0,185,322768,501960
5,24,male,Greek,1,14,ITC,neutral,10,left,6,ITC_start,2944,space,0,0,185,319822,504906
5,24,male,Greek,1,14,ITC,neutral,10,left,6,ITC_choice,1287,j,0,0,185,318534,506194
5,24,male,Greek,1,14,ITC,neutral,10,left,6,ITC_wait,0,undefined,0,0,185,318530,506198
5,24,male,Greek,1,14,ITC,neutral,10,left,6,ITC_collect,968,k,0,0,185,317561,507167
5,24,male,Greek,1,14,ITC,neutral,10,left,6,ITC_outcome,0,undefined,0,0,191,316557,508171
5,24,male,Greek,1,15,guess,neutral,5,left,2,guess_start,499,space,0,0,191,316057,508671
5,24,male,Greek,1,15,guess,neutral,5,left,2,guess_choice,646,f,0,0,191,315407,509321
5,24,male,Greek,1,15,guess,neutral,5,left,2,guess_outcome,0,undefined,0,0,191,313841,510887
5,24,male,Greek,1,15,ITC,neutral,5,left,2,ITC_start,587,space,0,0,191,313252,511476
5,24,male,Greek,1,15,ITC,neutral,5,left,2,ITC_choice,1064,j,0,0,191,312187,512541
5,24,male,Greek,1,15,ITC,neutral,5,left,2,ITC_wait,0,undefined,0,0,191,312184,512544
5,24,male,Greek,1,15,ITC,neutral,5,left,2,ITC_collect,774,k,0,0,191,311408,513320
5,24,male,Greek,1,15,ITC,neutral,5,left,2,ITC_outcome,0,undefined,0,0,193,310397,514331
5,24,male,Greek,1,16,guess,win,5,left,16,guess_start,479,space,0,0,193,309916,514812
5,24,male,Greek,1,16,guess,win,5,left,16,guess_choice,664,f,0,0,193,309249,515479
5,24,male,Greek,1,16,guess,win,5,left,16,guess_outcome,0,undefined,0,0,213,307681,517047
5,24,male,Greek,1,16,ITC,win,5,left,16,ITC_start,478,space,0,0,213,307201,517527
5,24,male,Greek,1,16,ITC,win,5,left,16,ITC_choice,987,j,0,0,213,306214,518514
5,24,male,Greek,1,16,ITC,win,5,left,16,ITC_wait,0,undefined,0,0,213,306211,518517
5,24,male,Greek,1,16,ITC,win,5,left,16,ITC_collect,478,k,0,0,213,305732,518996
5,24,male,Greek,1,16,ITC,win,5,left,16,ITC_outcome,0,undefined,0,0,229,304724,520004
5,24,male,Greek,1,17,guess,loss,5,left,10,guess_start,21,space,0,0,229,304701,520027
5,24,male,Greek,1,17,guess,loss,5,left,10,guess_choice,1022,j,0,0,229,303677,521051
5,24,male,Greek,1,17,guess,loss,5,left,10,guess_outcome,0,undefined,0,0,214,302115,522613
5,24,male,Greek,1,17,ITC,loss,5,left,10,ITC_start,385,space,0,0,214,301729,522999
5,24,male,Greek,1,17,ITC,loss,5,left,10,ITC_choice,860,j,0,0,214,300868,523860
5,24,male,Greek,1,17,ITC,loss,5,left,10,ITC_wait,0,undefined,0,0,214,300865,523863
5,24,male,Greek,1,17,ITC,loss,5,left,10,ITC_collect,341,k,0,0,214,300522,524206
5,24,male,Greek,1,17,ITC,loss,5,left,10,ITC_outcome,0,undefined,0,0,224,299514,525214
5,24,male,Greek,1,18,guess,win,10,right,2,guess_start,313,space,0,0,224,299200,525528
5,24,male,Greek,1,18,guess,win,10,right,2,guess_choice,614,f,0,0,224,298584,526144
5,24,male,Greek,1,18,guess,win,10,right,2,guess_outcome,0,undefined,0,0,244,297020,527708
5,24,male,Greek,1,18,ITC,win,10,right,2,ITC_start,463,space,0,0,244,296556,528172
5,24,male,Greek,1,18,ITC,win,10,right,2,ITC_choice,1549,f,0,0,244,295006,529722
5,24,male,Greek,1,18,ITC,win,10,right,2,ITC_wait,0,undefined,0,0,244,295002,529726
5,24,male,Greek,1,18,ITC,win,10,right,2,ITC_collect,488,k,0,0,244,294513,530215
5,24,male,Greek,1,18,ITC,win,10,right,2,ITC_outcome,0,undefined,0,0,246,293508,531220
5,24,male,Greek,1,19,guess,neutral,5,left,1,guess_start,179,space,0,0,246,293327,531401
5,24,male,Greek,1,19,guess,neutral,5,left,1,guess_choice,798,j,0,0,246,292527,532201
5,24,male,Greek,1,19,guess,neutral,5,left,1,guess_outcome,0,undefined,0,0,246,290962,533766
5,24,male,Greek,1,19,ITC,neutral,5,left,1,ITC_start,401,space,0,0,246,290559,534169
5,24,male,Greek,1,19,ITC,neutral,5,left,1,ITC_choice,886,j,0,0,246,289672,535056
5,24,male,Greek,1,19,ITC,neutral,5,left,1,ITC_wait,0,undefined,0,0,246,289670,535058
5,24,male,Greek,1,19,ITC,neutral,5,left,1,ITC_collect,396,k,0,0,246,289272,535456
5,24,male,Greek,1,19,ITC,neutral,5,left,1,ITC_outcome,0,undefined,0,0,247,288269,536459
5,24,male,Greek,1,20,guess,loss,10,right,2,guess_start,385,space,0,0,247,287882,536846
5,24,male,Greek,1,20,guess,loss,10,right,2,guess_choice,634,f,0,0,247,287245,537483
5,24,male,Greek,1,20,guess,loss,10,right,2,guess_outcome,0,undefined,0,0,232,285688,539040
5,24,male,Greek,1,20,ITC,loss,10,right,2,ITC_start,279,space,0,0,232,285408,539320
5,24,male,Greek,1,20,ITC,loss,10,right,2,ITC_choice,910,f,0,0,232,284497,540231
5,24,male,Greek,1,20,ITC,loss,10,right,2,ITC_wait,0,undefined,0,0,232,284494,540234
5,24,male,Greek,1,20,ITC,loss,10,right,2,ITC_collect,1554,k,0,0,232,282939,541789
5,24,male,Greek,1,20,ITC,loss,10,right,2,ITC_outcome,0,undefined,0,0,234,281929,542799
5,24,male,Greek,1,21,guess,neutral,5,left,8,guess_start,313,space,0,0,234,281614,543114
5,24,male,Greek,1,21,guess,neutral,5,left,8,guess_choice,673,f,0,0,234,280938,543790
5,24,male,Greek,1,21,guess,neutral,5,left,8,guess_outcome,0,undefined,0,0,234,279378,545350
5,24,male,Greek,1,21,ITC,neutral,5,left,8,ITC_start,978,space,0,0,234,278399,546329
5,24,male,Greek,1,21,ITC,neutral,5,left,8,ITC_choice,1022,j,0,0,234,277376,547352
5,24,male,Greek,1,21,ITC,neutral,5,left,8,ITC_wait,0,undefined,0,0,234,277373,547355
5,24,male,Greek,1,21,ITC,neutral,5,left,8,ITC_collect,573,k,0,0,234,276799,547929
5,24,male,Greek,1,21,ITC,neutral,5,left,8,ITC_outcome,0,undefined,0,0,242,275789,548939
5,24,male,Greek,1,22,guess,neutral,5,left,12,guess_start,146,space,0,0,242,275642,549086
5,24,male,Greek,1,22,guess,neutral,5,left,12,guess_choice,642,f,0,0,242,274996,549732
5,24,male,Greek,1,22,guess,neutral,5,left,12,guess_outcome,0,undefined,0,0,242,273430,551298
5,24,male,Greek,1,22,ITC,neutral,5,left,12,ITC_start,442,space,0,0,242,272986,551742
5,24,male,Greek,1,22,ITC,neutral,5,left,12,ITC_choice,914,j,0,0,242,272071,552657
5,24,male,Greek,1,22,ITC,neutral,5,left,12,ITC_wait,0,undefined,0,0,242,272068,552660
5,24,male,Greek,1,22,ITC,neutral,5,left,12,ITC_collect,313,k,0,0,242,271753,552975
5,24,male,Greek,1,22,ITC,neutral,5,left,12,ITC_outcome,0,undefined,0,0,254,270738,553990
5,24,male,Greek,1,23,guess,neutral,5,right,6,guess_start,325,space,0,0,254,270412,554316
5,24,male,Greek,1,23,guess,neutral,5,right,6,guess_choice,567,f,0,0,254,269842,554886
5,24,male,Greek,1,23,guess,neutral,5,right,6,guess_outcome,0,undefined,0,0,254,268284,556444
5,24,male,Greek,1,23,ITC,neutral,5,right,6,ITC_start,685,space,0,0,254,267598,557130
5,24,male,Greek,1,23,ITC,neutral,5,right,6,ITC_choice,947,f,0,0,254,266650,558078
5,24,male,Greek,1,23,ITC,neutral,5,right,6,ITC_wait,0,undefined,0,0,254,266647,558081
5,24,male,Greek,1,23,ITC,neutral,5,right,6,ITC_collect,552,k,0,0,254,266093,558635
5,24,male,Greek,1,23,ITC,neutral,5,right,6,ITC_outcome,0,undefined,0,0,260,265081,559647
5,24,male,Greek,1,24,guess,loss,10,left,8,guess_start,274,space,0,0,260,264806,559922
5,24,male,Greek,1,24,guess,loss,10,left,8,guess_choice,751,j,0,0,260,264051,560677
5,24,male,Greek,1,24,guess,loss,10,left,8,guess_outcome,0,undefined,0,0,245,262491,562237
5,24,male,Greek,1,24,ITC,loss,10,left,8,ITC_start,320,space,0,0,245,262170,562558
5,24,male,Greek,1,24,ITC,loss,10,left,8,ITC_choice,711,j,0,0,245,261457,563271
5,24,male,Greek,1,24,ITC,loss,10,left,8,ITC_wait,0,undefined,0,0,245,261455,563273
5,24,male,Greek,1,24,ITC,loss,10,left,8,ITC_collect,324,k,0,0,245,261129,563599
5,24,male,Greek,1,24,ITC,loss,10,left,8,ITC_outcome,0,undefined,0,0,253,260113,564615
5,24,male,Greek,1,25,guess,loss,5,right,15,guess_start,174,space,0,0,253,259937,564791
5,24,male,Greek,1,25,guess,loss,5,right,15,guess_choice,525,f,0,0,253,259409,565319
5,24,male,Greek,1,25,guess,loss,5,right,15,guess_outcome,0,undefined,0,0,238,257852,566876
5,24,male,Greek,1,25,ITC,loss,5,right,15,ITC_start,494,space,0,0,238,257356,567372
5,24,male,Greek,1,25,ITC,loss,5,right,15,ITC_choice,1010,f,0,0,238,256345,568383
5,24,male,Greek,1,25,ITC,loss,5,right,15,ITC_wait,0,undefined,0,0,238,256342,568386
5,24,male,Greek,1,25,ITC,loss,5,right,15,ITC_collect,729,k,0,0,238,255612,569116
5,24,male,Greek,1,25,ITC,loss,5,right,15,ITC_outcome,0,undefined,0,0,253,254598,570130
5,24,male,Greek,1,26,guess,neutral,5,left,13,guess_start,368,space,0,0,253,254229,570499
5,24,male,Greek,1,26,guess,neutral,5,left,13,guess_choice,865,j,0,0,253,253360,571368
5,24,male,Greek,1,26,guess,neutral,5,left,13,guess_outcome,0,undefined,0,0,253,251801,572927
5,24,male,Greek,1,26,ITC,neutral,5,left,13,ITC_start,490,space,0,0,253,251311,573417
5,24,male,Greek,1,26,ITC,neutral,5,left,13,ITC_choice,759,j,0,0,253,250550,574178
5,24,male,Greek,1,26,ITC,neutral,5,left,13,ITC_wait,0,undefined,0,0,253,250548,574180
5,24,male,Greek,1,26,ITC,neutral,5,left,13,ITC_collect,341,k,0,0,253,250205,574523
5,24,male,Greek,1,26,ITC,neutral,5,left,13,ITC_outcome,0,undefined,0,0,266,249194,575534
5,24,male,Greek,1,27,guess,win,5,left,5,guess_start,394,space,0,0,266,248799,575929
5,24,male,Greek,1,27,guess,win,5,left,5,guess_choice,667,j,0,0,266,248130,576598
5,24,male,Greek,1,27,guess,win,5,left,5,guess_outcome,0,undefined,0,0,286,246572,578156
5,24,male,Greek,1,27,ITC,win,5,left,5,ITC_start,204,space,0,0,286,246366,578362
5,24,male,Greek,1,27,ITC,win,5,left,5,ITC_choice,676,j,0,0,286,245689,579039
5,24,male,Greek,1,27,ITC,win,5,left,5,ITC_wait,0,undefined,0,0,286,245686,579042
5,24,male,Greek,1,27,ITC,win,5,left,5,ITC_collect,240,k,0,0,286,245445,579283
5,24,male,Greek,1,27,ITC,win,5,left,5,ITC_outcome,0,undefined,0,0,291,244438,580290
5,24,male,Greek,1,28,guess,neutral,5,right,4,guess_start,207,space,0,0,291,244230,580498
5,24,male,Greek,1,28,guess,neutral,5,right,4,guess_choice,515,f,0,0,291,243713,581015
5,24,male,Greek,1,28,guess,neutral,5,right,4,guess_outcome,0,undefined,0,0,291,242158,582570
5,24,male,Greek,1,28,ITC,neutral,5,right,4,ITC_start,443,space,0,0,291,241713,583015
5,24,male,Greek,1,28,ITC,neutral,5,right,4,ITC_choice,683,f,0,0,291,241028,583700
5,24,male,Greek,1,28,ITC,neutral,5,right,4,ITC_wait,0,undefined,0,0,291,241026,583702
5,24,male,Greek,1,28,ITC,neutral,5,right,4,ITC_collect,1132,k,0,0,291,239892,584836
5,24,male,Greek,1,28,ITC,neutral,5,right,4,ITC_outcome,0,undefined,0,0,295,238877,585851
5,24,male,Greek,1,29,guess,neutral,5,right,15,guess_start,510,space,0,0,295,238365,586363
5,24,male,Greek,1,29,guess,neutral,5,right,15,guess_choice,537,f,0,0,295,237825,586903
5,24,male,Greek,1,29,guess,neutral,5,right,15,guess_outcome,0,undefined,0,0,295,236271,588457
5,24,male,Greek,1,29,ITC,neutral,5,right,15,ITC_start,505,space,0,0,295,235765,588963
5,24,male,Greek,1,29,ITC,neutral,5,right,15,ITC_choice,761,f,0,0,295,235003,589725
5,24,male,Greek,1,29,ITC,neutral,5,right,15,ITC_wait,0,undefined,0,0,295,235000,589728
5,24,male,Greek,1,29,ITC,neutral,5,right,15,ITC_collect,580,k,0,0,295,234418,590310
5,24,male,Greek,1,29,ITC,neutral,5,right,15,ITC_outcome,0,undefined,0,0,310,233414,591314
5,24,male,Greek,1,30,guess,win,10,right,7,guess_start,302,space,0,0,310,233111,591617
5,24,male,Greek,1,30,guess,win,10,right,7,guess_choice,660,j,0,0,310,232448,592280
5,24,male,Greek,1,30,guess,win,10,right,7,guess_outcome,0,undefined,0,0,330,230880,593848
5,24,male,Greek,1,30,ITC,win,10,right,7,ITC_start,307,space,0,0,330,230571,594157
5,24,male,Greek,1,30,ITC,win,10,right,7,ITC_choice,689,f,0,0,330,229881,594847
5,24,male,Greek,1,30,ITC,win,10,right,7,ITC_wait,0,undefined,0,0,330,229878,594850
5,24,male,Greek,1,30,ITC,win,10,right,7,ITC_collect,1305,k,0,0,330,228571,596157
5,24,male,Greek,1,30,ITC,win,10,right,7,ITC_outcome,0,undefined,0,0,337,227558,597170
5,24,male,Greek,1,31,guess,loss,5,right,8,guess_start,361,space,0,0,337,227196,597532
5,24,male,Greek,1,31,guess,loss,5,right,8,guess_choice,610,j,0,0,337,226582,598146
5,24,male,Greek,1,31,guess,loss,5,right,8,guess_outcome,0,undefined,0,0,322,225018,599710
5,24,male,Greek,1,31,ITC,loss,5,right,8,ITC_start,79,space,0,0,322,224937,599791
5,24,male,Greek,1,31,ITC,loss,5,right,8,ITC_choice,610,f,0,0,322,224327,600401
5,24,male,Greek,1,31,ITC,loss,5,right,8,ITC_wait,0,undefined,0,0,322,224324,600404
5,24,male,Greek,1,31,ITC,loss,5,right,8,ITC_collect,528,k,0,0,322,223795,600933
5,24,male,Greek,1,31,ITC,loss,5,right,8,ITC_outcome,0,undefined,0,0,330,222778,601950
5,24,male,Greek,1,32,guess,loss,5,right,4,guess_start,70,space,0,0,330,222706,602022
5,24,male,Greek,1,32,guess,loss,5,right,4,guess_choice,622,f,0,0,330,222082,602646
5,24,male,Greek,1,32,guess,loss,5,right,4,guess_outcome,0,undefined,0,0,315,220518,604210
5,24,male,Greek,1,32,ITC,loss,5,right,4,ITC_start,46,space,0,0,315,220470,604258
5,24,male,Greek,1,32,ITC,loss,5,right,4,ITC_choice,748,f,0,0,315,219721,605007
5,24,male,Greek,1,32,ITC,loss,5,right,4,ITC_wait,0,undefined,0,0,315,219718,605010
5,24,male,Greek,1,32,ITC,loss,5,right,4,ITC_collect,612,k,0,0,315,219105,605623
5,24,male,Greek,1,32,ITC,loss,5,right,4,ITC_outcome,0,undefined,0,0,319,218098,606630
5,24,male,Greek,1,33,guess,loss,10,right,1,guess_start,267,space,0,0,319,217829,606899
5,24,male,Greek,1,33,guess,loss,10,right,1,guess_choice,844,j,0,0,319,216982,607746
5,24,male,Greek,1,33,ITC,loss,10,right,1,ITC_choice,793,f,0,0,304,214594,610134
5,24,male,Greek,1,33,ITC,loss,10,right,1,ITC_wait,0,undefined,0,0,304,214592,610136
5,24,male,Greek,1,33,ITC,loss,10,right,1,ITC_start,26,space,0,0,304,215388,609340
5,24,male,Greek,1,33,ITC,loss,10,right,1,ITC_collect,685,k,0,0,304,213904,610824
5,24,male,Greek,1,33,guess,loss,10,right,1,guess_outcome,0,undefined,0,0,304,215415,609313
5,24,male,Greek,1,33,ITC,loss,10,right,1,ITC_outcome,0,undefined,0,0,305,212898,611830
5,24,male,Greek,1,34,guess,neutral,5,right,16,guess_start,432,space,0,0,305,212464,612264
5,24,male,Greek,1,34,guess,neutral,5,right,16,guess_choice,878,f,0,0,305,211584,613144
5,24,male,Greek,1,34,guess,neutral,5,right,16,guess_outcome,0,undefined,0,0,305,210024,614704
5,24,male,Greek,1,34,ITC,neutral,5,right,16,ITC_start,759,space,0,0,305,209264,615464
5,24,male,Greek,1,34,ITC,neutral,5,right,16,ITC_choice,1534,f,0,0,305,207729,616999
5,24,male,Greek,1,34,ITC,neutral,5,right,16,ITC_wait,0,undefined,0,0,305,207726,617002
5,24,male,Greek,1,34,ITC,neutral,5,right,16,ITC_collect,627,k,0,0,305,207098,617630
5,24,male,Greek,1,34,ITC,neutral,5,right,16,ITC_outcome,0,undefined,0,0,321,206090,618638
5,24,male,Greek,1,35,guess,loss,5,left,6,guess_start,49,space,0,0,321,206039,618689
5,24,male,Greek,1,35,guess,loss,5,left,6,guess_choice,582,j,0,0,321,205454,619274
5,24,male,Greek,1,35,guess,loss,5,left,6,guess_outcome,0,undefined,0,0,306,203887,620841
5,24,male,Greek,1,35,ITC,loss,5,left,6,ITC_start,20,space,0,0,306,203866,620862
5,24,male,Greek,1,35,ITC,loss,5,left,6,ITC_choice,2755,j,0,0,306,201109,623619
5,24,male,Greek,1,35,ITC,loss,5,left,6,ITC_wait,0,undefined,0,0,306,201107,623621
5,24,male,Greek,1,35,ITC,loss,5,left,6,ITC_collect,573,k,0,0,306,200532,624196
5,24,male,Greek,1,35,ITC,loss,5,left,6,ITC_outcome,0,undefined,0,0,312,199530,625198
5,24,male,Greek,1,36,guess,win,10,right,8,guess_start,273,space,0,0,312,199256,625472
5,24,male,Greek,1,36,guess,win,10,right,8,guess_choice,484,f,0,0,312,198770,625958
5,24,male,Greek,1,36,guess,win,10,right,8,guess_outcome,0,undefined,0,0,332,197202,627526
5,24,male,Greek,1,36,ITC,win,10,right,8,ITC_start,34,space,0,0,332,197167,627561
5,24,male,Greek,1,36,ITC,win,10,right,8,ITC_choice,1025,f,0,0,332,196140,628588
5,24,male,Greek,1,36,ITC,win,10,right,8,ITC_wait,0,undefined,0,0,332,196138,628590
5,24,male,Greek,1,36,ITC,win,10,right,8,ITC_collect,908,k,0,0,332,195229,629499
5,24,male,Greek,1,36,ITC,win,10,right,8,ITC_outcome,0,undefined,0,0,340,194221,630507
5,24,male,Greek,1,37,guess,win,5,left,3,guess_start,360,space,0,0,340,193859,630869
5,24,male,Greek,1,37,guess,win,5,left,3,guess_choice,653,j,0,0,340,193204,631524
5,24,male,Greek,1,37,guess,win,5,left,3,guess_outcome,0,undefined,0,0,360,191647,633081
5,24,male,Greek,1,37,ITC,win,5,left,3,ITC_start,363,space,0,0,360,191283,633445
5,24,male,Greek,1,37,ITC,win,5,left,3,ITC_choice,1788,f,0,0,360,189494,635234
5,24,male,Greek,1,37,ITC,win,5,left,3,ITC_wait,0,undefined,0,0,360,184486,640242
5,24,male,Greek,1,37,ITC,win,5,left,3,ITC_collect,38,k,0,0,360,184447,640281
5,24,male,Greek,1,37,ITC,win,5,left,3,ITC_outcome,0,undefined,0,0,380,183434,641294
5,24,male,Greek,1,38,guess,loss,5,left,16,guess_start,365,space,0,0,380,183068,641660
5,24,male,Greek,1,38,guess,loss,5,left,16,guess_choice,1016,j,0,0,380,182048,642680
5,24,male,Greek,1,38,guess,loss,5,left,16,guess_outcome,0,undefined,0,0,365,180483,644245
5,24,male,Greek,1,38,ITC,loss,5,left,16,ITC_start,378,space,0,0,365,180103,644625
5,24,male,Greek,1,38,ITC,loss,5,left,16,ITC_choice,1510,j,0,0,365,178592,646136
5,24,male,Greek,1,38,ITC,loss,5,left,16,ITC_wait,0,undefined,0,0,365,178588,646140
5,24,male,Greek,1,38,ITC,loss,5,left,16,ITC_collect,615,k,0,0,365,177971,646757
5,24,male,Greek,1,38,ITC,loss,5,left,16,ITC_outcome,0,undefined,0,0,381,176956,647772
5,24,male,Greek,1,39,guess,neutral,10,right,7,guess_start,306,space,0,0,381,176649,648079
5,24,male,Greek,1,39,guess,neutral,10,right,7,guess_choice,589,f,0,0,381,176057,648671
5,24,male,Greek,1,39,guess,neutral,10,right,7,guess_outcome,0,undefined,0,0,381,174499,650229
5,24,male,Greek,1,39,ITC,neutral,10,right,7,ITC_start,312,space,0,0,381,174186,650542
5,24,male,Greek,1,39,ITC,neutral,10,right,7,ITC_choice,815,f,0,0,381,173370,651358
5,24,male,Greek,1,39,ITC,neutral,10,right,7,ITC_wait,0,undefined,0,0,381,173368,651360
5,24,male,Greek,1,39,ITC,neutral,10,right,7,ITC_collect,570,k,0,0,381,172796,651932
5,24,male,Greek,1,39,ITC,neutral,10,right,7,ITC_outcome,0,undefined,0,0,388,171781,652947
5,24,male,Greek,1,40,guess,neutral,10,left,8,guess_start,432,space,0,0,388,171347,653381
5,24,male,Greek,1,40,guess,neutral,10,left,8,guess_choice,557,f,0,0,388,170787,653941
5,24,male,Greek,1,40,guess,neutral,10,left,8,guess_outcome,0,undefined,0,0,388,169228,655500
5,24,male,Greek,1,40,ITC,neutral,10,left,8,ITC_start,540,space,0,0,388,168687,656041
5,24,male,Greek,1,40,ITC,neutral,10,left,8,ITC_choice,1192,j,0,0,388,167494,657234
5,24,male,Greek,1,40,ITC,neutral,10,left,8,ITC_wait,0,undefined,0,0,388,167490,657238
5,24,male,Greek,1,40,ITC,neutral,10,left,8,ITC_collect,392,k,0,0,388,167096,657632
5,24,male,Greek,1,41,guess,loss,5,left,5,guess_start,0,space,0,0,396,166081,658647
5,24,male,Greek,1,40,ITC,neutral,10,left,8,ITC_outcome,0,undefined,0,0,396,166082,658646
5,24,male,Greek,1,41,guess,loss,5,left,5,guess_choice,679,f,0,0,396,165398,659330
5,24,male,Greek,1,41,guess,loss,5,left,5,guess_outcome,0,undefined,0,0,381,163837,660891
5,24,male,Greek,1,41,ITC,loss,5,left,5,ITC_start,558,space,0,0,381,163277,661451
5,24,male,Greek,1,41,ITC,loss,5,left,5,ITC_choice,1325,f,0,0,381,161951,662777
5,24,male,Greek,1,41,ITC,loss,5,left,5,ITC_wait,0,undefined,0,0,381,156937,667791
5,24,male,Greek,1,41,ITC,loss,5,left,5,ITC_collect,309,k,0,0,381,156627,668101
5,24,male,Greek,1,41,ITC,loss,5,left,5,ITC_outcome,0,undefined,0,0,401,155621,669107
5,24,male,Greek,1,42,guess,win,5,right,4,guess_start,332,space,0,0,401,155287,669441
5,24,male,Greek,1,42,guess,win,5,right,4,guess_choice,545,f,0,0,401,154740,669988
5,24,male,Greek,1,42,guess,win,5,right,4,guess_outcome,0,undefined,0,0,421,153176,671552
5,24,male,Greek,1,42,ITC,win,5,right,4,ITC_start,478,space,0,0,421,152696,672032
5,24,male,Greek,1,42,ITC,win,5,right,4,ITC_choice,845,f,0,0,421,151850,672878
5,24,male,Greek,1,42,ITC,win,5,right,4,ITC_wait,0,undefined,0,0,421,151847,672881
5,24,male,Greek,1,42,ITC,win,5,right,4,ITC_collect,840,k,0,0,421,151006,673722
5,24,male,Greek,1,42,ITC,win,5,right,4,ITC_outcome,0,undefined,0,0,425,150002,674726
5,24,male,Greek,1,43,guess,win,5,left,15,guess_start,417,space,0,0,425,149583,675145
5,24,male,Greek,1,43,guess,win,5,left,15,guess_choice,656,j,0,0,425,148923,675805
5,24,male,Greek,1,43,guess,win,5,left,15,guess_outcome,0,undefined,0,0,445,147358,677370
5,24,male,Greek,1,43,ITC,win,5,left,15,ITC_start,372,space,0,0,445,146985,677743
5,24,male,Greek,1,43,ITC,win,5,left,15,ITC_choice,1178,j,0,0,445,145806,678922
5,24,male,Greek,1,43,ITC,win,5,left,15,ITC_wait,0,undefined,0,0,445,145803,678925
5,24,male,Greek,1,43,ITC,win,5,left,15,ITC_collect,310,k,0,0,445,145491,679237
5,24,male,Greek,1,43,ITC,win,5,left,15,ITC_outcome,0,undefined,0,0,460,144485,680243
5,24,male,Greek,1,44,guess,loss,5,left,13,guess_start,297,space,0,0,460,144186,680542
5,24,male,Greek,1,44,guess,loss,5,left,13,guess_choice,527,j,0,0,460,143657,681071
5,24,male,Greek,1,44,guess,loss,5,left,13,guess_outcome,0,undefined,0,0,445,142102,682626
5,24,male,Greek,1,44,ITC,loss,5,left,13,ITC_start,473,space,0,0,445,141627,683101
5,24,male,Greek,1,44,ITC,loss,5,left,13,ITC_choice,998,j,0,0,445,140627,684101
5,24,male,Greek,1,44,ITC,loss,5,left,13,ITC_wait,0,undefined,0,0,445,140625,684103
5,24,male,Greek,1,44,ITC,loss,5,left,13,ITC_collect,268,k,0,0,445,140355,684373
5,24,male,Greek,1,44,ITC,loss,5,left,13,ITC_outcome,0,undefined,0,0,458,139352,685376
5,24,male,Greek,1,45,guess,win,5,left,6,guess_start,559,space,0,0,458,138791,685937
5,24,male,Greek,1,45,guess,win,5,left,6,guess_choice,406,f,0,0,458,138381,686347
5,24,male,Greek,1,45,guess,win,5,left,6,guess_outcome,0,undefined,0,0,478,136821,687907
5,24,male,Greek,1,45,ITC,win,5,left,6,ITC_start,364,space,0,0,478,136456,688272
5,24,male,Greek,1,45,ITC,win,5,left,6,ITC_choice,865,j,0,0,478,135590,689138
5,24,male,Greek,1,45,ITC,win,5,left,6,ITC_wait,0,undefined,0,0,478,135588,689140
5,24,male,Greek,1,45,ITC,win,5,left,6,ITC_collect,194,k,0,0,478,135392,689336
5,24,male,Greek,1,45,ITC,win,5,left,6,ITC_outcome,0,undefined,0,0,484,134384,690344
5,24,male,Greek,1,46,guess,win,10,right,3,guess_start,233,space,0,0,484,134149,690579
5,24,male,Greek,1,46,guess,win,10,right,3,guess_choice,536,f,0,0,484,133610,691118
5,24,male,Greek,1,46,guess,win,10,right,3,guess_outcome,0,undefined,0,0,504,132042,692686
5,24,male,Greek,1,46,ITC,win,10,right,3,ITC_start,340,space,0,0,504,131700,693028
5,24,male,Greek,1,46,ITC,win,10,right,3,ITC_choice,1282,f,0,0,504,130417,694311
5,24,male,Greek,1,46,ITC,win,10,right,3,ITC_wait,0,undefined,0,0,504,130414,694314
5,24,male,Greek,1,46,ITC,win,10,right,3,ITC_collect,621,k,0,0,504,129791,694937
5,24,male,Greek,1,46,ITC,win,10,right,3,ITC_outcome,0,undefined,0,0,507,128785,695943
5,24,male,Greek,1,47,guess,loss,5,left,14,guess_start,285,space,0,0,507,128497,696231
5,24,male,Greek,1,47,guess,loss,5,left,14,guess_choice,585,f,0,0,507,127909,696819
5,24,male,Greek,1,47,guess,loss,5,left,14,guess_outcome,0,undefined,0,0,492,126356,698372
5,24,male,Greek,1,47,ITC,loss,5,left,14,ITC_start,66,space,0,0,492,126289,698439
5,24,male,Greek,1,47,ITC,loss,5,left,14,ITC_choice,1092,j,0,0,492,125195,699533
5,24,male,Greek,1,47,ITC,loss,5,left,14,ITC_wait,0,undefined,0,0,492,125192,699536
5,24,male,Greek,1,47,ITC,loss,5,left,14,ITC_collect,244,k,0,0,492,124946,699782
5,24,male,Greek,1,47,ITC,loss,5,left,14,ITC_outcome,0,undefined,0,0,506,123938,700790
5,24,male,Greek,1,48,guess,loss,10,left,5,guess_start,485,space,0,0,506,123450,701278
5,24,male,Greek,1,48,guess,loss,10,left,5,guess_choice,576,j,0,0,506,122871,701857
5,24,male,Greek,1,48,guess,loss,10,left,5,guess_outcome,0,undefined,0,0,491,121303,703425
5,24,male,Greek,1,48,ITC,loss,10,left,5,ITC_start,366,space,0,0,491,120936,703792
5,24,male,Greek,1,48,ITC,loss,10,left,5,ITC_choice,1388,j,0,0,491,119546,705182
5,24,male,Greek,1,48,ITC,loss,10,left,5,ITC_wait,0,undefined,0,0,491,119543,705185
5,24,male,Greek,1,48,ITC,loss,10,left,5,ITC_collect,251,k,0,0,491,119290,705438
5,24,male,Greek,1,48,ITC,loss,10,left,5,ITC_outcome,0,undefined,0,0,496,118276,706452
5,24,male,Greek,1,49,guess,loss,5,right,11,guess_start,32,space,0,0,496,118242,706486
5,24,male,Greek,1,49,guess,loss,5,right,11,guess_choice,681,f,0,0,496,117557,707171
5,24,male,Greek,1,49,guess,loss,5,right,11,guess_outcome,0,undefined,0,0,481,115990,708738
5,24,male,Greek,1,49,ITC,loss,5,right,11,ITC_start,335,space,0,0,481,115654,709074
5,24,male,Greek,1,49,ITC,loss,5,right,11,ITC_choice,787,f,0,0,481,114865,709863
5,24,male,Greek,1,49,ITC,loss,5,right,11,ITC_wait,0,undefined,0,0,481,114862,709866
5,24,male,Greek,1,49,ITC,loss,5,right,11,ITC_collect,977,k,0,0,481,113883,710845
5,24,male,Greek,1,49,ITC,loss,5,right,11,ITC_outcome,0,undefined,0,0,492,112873,711855
5,24,male,Greek,1,50,guess,win,5,left,1,guess_start,228,space,0,0,492,112643,712085
5,24,male,Greek,1,50,guess,win,5,left,1,guess_choice,628,j,0,0,492,112012,712716
5,24,male,Greek,1,50,guess,win,5,left,1,guess_outcome,0,undefined,0,0,512,110458,714270
5,24,male,Greek,1,50,ITC,win,5,left,1,ITC_start,446,space,0,0,512,110010,714718
5,24,male,Greek,1,50,ITC,win,5,left,1,ITC_choice,1976,f,0,0,512,108033,716695
5,24,male,Greek,1,50,ITC,win,5,left,1,ITC_wait,0,undefined,0,0,512,103015,721713
5,24,male,Greek,1,50,ITC,win,5,left,1,ITC_collect,2988,k,0,0,512,100025,724703
5,24,male,Greek,1,50,ITC,win,5,left,1,ITC_outcome,0,undefined,0,0,532,99016,725712
5,24,male,Greek,1,51,guess,neutral,5,right,3,guess_start,90,space,0,0,532,98924,725804
5,24,male,Greek,1,51,guess,neutral,5,right,3,guess_choice,1060,j,0,0,532,97861,726867
5,24,male,Greek,1,51,guess,neutral,5,right,3,guess_outcome,0,undefined,0,0,532,96296,728432
5,24,male,Greek,1,51,ITC,neutral,5,right,3,ITC_start,401,space,0,0,532,95893,728835
5,24,male,Greek,1,51,ITC,neutral,5,right,3,ITC_choice,773,f,0,0,532,95118,729610
5,24,male,Greek,1,51,ITC,neutral,5,right,3,ITC_wait,0,undefined,0,0,532,95116,729612
5,24,male,Greek,1,51,ITC,neutral,5,right,3,ITC_collect,873,k,0,0,532,94241,730487
5,24,male,Greek,1,51,ITC,neutral,5,right,3,ITC_outcome,0,undefined,0,0,535,93232,731496
5,24,male,Greek,1,52,guess,neutral,10,left,2,guess_start,285,space,0,0,535,92946,731782
5,24,male,Greek,1,52,guess,neutral,10,left,2,guess_choice,683,j,0,0,535,92260,732468
5,24,male,Greek,1,52,guess,neutral,10,left,2,guess_outcome,0,undefined,0,0,535,90701,734027
5,24,male,Greek,1,52,ITC,neutral,10,left,2,ITC_start,447,space,0,0,535,90252,734476
5,24,male,Greek,1,52,ITC,neutral,10,left,2,ITC_choice,1312,j,0,0,535,88939,735789
5,24,male,Greek,1,52,ITC,neutral,10,left,2,ITC_wait,0,undefined,0,0,535,88936,735792
5,24,male,Greek,1,52,ITC,neutral,10,left,2,ITC_collect,355,k,0,0,535,88580,736148
5,24,male,Greek,1,52,ITC,neutral,10,left,2,ITC_outcome,0,undefined,0,0,537,87572,737156
5,24,male,Greek,1,53,guess,win,10,left,4,guess_start,202,space,0,0,537,87368,737360
5,24,male,Greek,1,53,guess,win,10,left,4,guess_choice,600,f,0,0,537,86766,737962
5,24,male,Greek,1,53,guess,win,10,left,4,guess_outcome,0,undefined,0,0,557,85212,739516
5,24,male,Greek,1,53,ITC,win,10,left,4,ITC_start,303,space,0,0,557,84906,739822
5,24,male,Greek,1,53,ITC,win,10,left,4,ITC_choice,740,j,0,0,557,84165,740563
5,24,male,Greek,1,53,ITC,win,10,left,4,ITC_wait,0,undefined,0,0,557,84162,740566
5,24,male,Greek,1,53,ITC,win,10,left,4,ITC_collect,280,k,0,0,557,83881,740847
5,24,male,Greek,1,53,ITC,win,10,left,4,ITC_outcome,0,undefined,0,0,561,82865,741863
5,24,male,Greek,1,54,guess,neutral,5,left,11,guess_start,288,space,0,0,561,82575,742153
5,24,male,Greek,1,54,guess,neutral,5,left,11,guess_choice,716,j,0,0,561,81856,742872
5,24,male,Greek,1,54,guess,neutral,5,left,11,guess_outcome,0,undefined,0,0,561,80293,744435
5,24,male,Greek,1,54,ITC,neutral,5,left,11,ITC_start,221,space,0,0,561,80070,744658
5,24,male,Greek,1,54,ITC,neutral,5,left,11,ITC_choice,659,j,0,0,561,79411,745317
5,24,male,Greek,1,54,ITC,neutral,5,left,11,ITC_wait,0,undefined,0,0,561,79408,745320
5,24,male,Greek,1,54,ITC,neutral,5,left,11,ITC_collect,412,k,0,0,561,78994,745734
5,24,male,Greek,1,54,ITC,neutral,5,left,11,ITC_outcome,0,undefined,0,0,572,77982,746746
5,24,male,Greek,1,55,guess,neutral,5,left,5,guess_start,192,space,0,0,572,77788,746940
5,24,male,Greek,1,55,guess,neutral,5,left,5,guess_choice,563,f,0,0,572,77223,747505
5,24,male,Greek,1,55,guess,neutral,5,left,5,guess_outcome,0,undefined,0,0,572,75655,749073
5,24,male,Greek,1,55,ITC,neutral,5,left,5,ITC_start,88,space,0,0,572,75566,749162
5,24,male,Greek,1,55,ITC,neutral,5,left,5,ITC_choice,681,j,0,0,572,74884,749844
5,24,male,Greek,1,55,ITC,neutral,5,left,5,ITC_wait,0,undefined,0,0,572,74880,749848
5,24,male,Greek,1,55,ITC,neutral,5,left,5,ITC_collect,137,k,0,0,572,74741,749987
5,24,male,Greek,1,55,ITC,neutral,5,left,5,ITC_outcome,0,undefined,0,0,577,73728,751000
5,24,male,Greek,1,56,guess,win,5,left,14,guess_start,133,space,0,0,577,73594,751134
5,24,male,Greek,1,56,guess,win,5,left,14,guess_choice,608,j,0,0,577,72983,751745
5,24,male,Greek,1,56,guess,win,5,left,14,guess_outcome,0,undefined,0,0,597,71428,753300
5,24,male,Greek,1,56,ITC,win,5,left,14,ITC_start,274,space,0,0,597,71152,753576
5,24,male,Greek,1,56,ITC,win,5,left,14,ITC_choice,597,j,0,0,597,70554,754174
5,24,male,Greek,1,56,ITC,win,5,left,14,ITC_wait,0,undefined,0,0,597,70551,754177
5,24,male,Greek,1,56,ITC,win,5,left,14,ITC_collect,114,k,0,0,597,70435,754293
5,24,male,Greek,1,56,ITC,win,5,left,14,ITC_outcome,0,undefined,0,0,611,69424,755304
5,24,male,Greek,1,57,guess,win,5,left,8,guess_start,263,space,0,0,611,69159,755569
5,24,male,Greek,1,57,guess,win,5,left,8,guess_choice,534,f,0,0,611,68622,756106
5,24,male,Greek,1,57,guess,win,5,left,8,guess_outcome,0,undefined,0,0,631,67062,757666
5,24,male,Greek,1,57,ITC,win,5,left,8,ITC_start,756,space,0,0,631,66304,758424
5,24,male,Greek,1,57,ITC,win,5,left,8,ITC_choice,646,j,0,0,631,65657,759071
5,24,male,Greek,1,57,ITC,win,5,left,8,ITC_wait,0,undefined,0,0,631,65654,759074
5,24,male,Greek,1,57,ITC,win,5,left,8,ITC_collect,122,k,0,0,631,65530,759198
5,24,male,Greek,1,57,ITC,win,5,left,8,ITC_outcome,0,undefined,0,0,639,64515,760213
5,24,male,Greek,1,58,guess,loss,5,right,2,guess_start,369,space,0,0,639,64144,760584
5,24,male,Greek,1,58,guess,loss,5,right,2,guess_choice,580,f,0,0,639,63560,761168
5,24,male,Greek,1,58,guess,loss,5,right,2,guess_outcome,0,undefined,0,0,624,61991,762737
5,24,male,Greek,1,58,ITC,loss,5,right,2,ITC_start,26,space,0,0,624,61963,762765
5,24,male,Greek,1,58,ITC,loss,5,right,2,ITC_choice,1076,f,0,0,624,60885,763843
5,24,male,Greek,1,58,ITC,loss,5,right,2,ITC_wait,0,undefined,0,0,624,60881,763847
5,24,male,Greek,1,58,ITC,loss,5,right,2,ITC_collect,342,k,0,0,624,60538,764190
5,24,male,Greek,1,58,ITC,loss,5,right,2,ITC_outcome,0,undefined,0,0,626,59525,765203
5,24,male,Greek,1,59,guess,loss,10,right,7,guess_start,430,space,0,0,626,59094,765634
5,24,male,Greek,1,59,guess,loss,10,right,7,guess_choice,541,j,0,0,626,58549,766179
5,24,male,Greek,1,59,guess,loss,10,right,7,guess_outcome,0,undefined,0,0,611,56984,767744
5,24,male,Greek,1,59,ITC,loss,10,right,7,ITC_start,163,space,0,0,611,56820,767908
5,24,male,Greek,1,59,ITC,loss,10,right,7,ITC_choice,802,f,0,0,611,56016,768712
5,24,male,Greek,1,59,ITC,loss,10,right,7,ITC_wait,0,undefined,0,0,611,56014,768714
5,24,male,Greek,1,59,ITC,loss,10,right,7,ITC_collect,289,k,0,0,611,55723,769005
5,24,male,Greek,1,59,ITC,loss,10,right,7,ITC_outcome,0,undefined,0,0,618,54711,770017
5,24,male,Greek,1,60,guess,loss,10,right,3,guess_start,95,space,0,0,618,54615,770113
5,24,male,Greek,1,60,guess,loss,10,right,3,guess_choice,583,j,0,0,618,54029,770699
5,24,male,Greek,1,60,guess,loss,10,right,3,guess_outcome,0,undefined,0,0,603,52473,772255
5,24,male,Greek,1,60,ITC,loss,10,right,3,ITC_start,30,space,0,0,603,52442,772286
5,24,male,Greek,1,60,ITC,loss,10,right,3,ITC_choice,921,f,0,0,603,51520,773208
5,24,male,Greek,1,60,ITC,loss,10,right,3,ITC_wait,0,undefined,0,0,603,51518,773210
5,24,male,Greek,1,60,ITC,loss,10,right,3,ITC_collect,218,k,0,0,603,51300,773428
5,24,male,Greek,1,60,ITC,loss,10,right,3,ITC_outcome,0,undefined,0,0,606,50294,774434
5,24,male,Greek,1,61,guess,neutral,5,right,7,guess_start,300,space,0,0,606,49992,774736
5,24,male,Greek,1,61,guess,neutral,5,right,7,guess_choice,437,f,0,0,606,49552,775176
5,24,male,Greek,1,61,guess,neutral,5,right,7,guess_outcome,0,undefined,0,0,606,47988,776740
5,24,male,Greek,1,61,ITC,neutral,5,right,7,ITC_start,140,space,0,0,606,47846,776882
5,24,male,Greek,1,61,ITC,neutral,5,right,7,ITC_choice,595,f,0,0,606,47249,777479
5,24,male,Greek,1,61,ITC,neutral,5,right,7,ITC_wait,0,undefined,0,0,606,47246,777482
5,24,male,Greek,1,61,ITC,neutral,5,right,7,ITC_collect,198,k,0,0,606,47047,777681
5,24,male,Greek,1,61,ITC,neutral,5,right,7,ITC_outcome,0,undefined,0,0,613,46043,778685
5,24,male,Greek,1,62,guess,win,5,right,7,guess_start,20,space,0,0,613,46022,778706
5,24,male,Greek,1,62,guess,win,5,right,7,guess_choice,472,j,0,0,613,45546,779182
5,24,male,Greek,1,62,guess,win,5,right,7,guess_outcome,0,undefined,0,0,633,43978,780750
5,24,male,Greek,1,62,ITC,win,5,right,7,ITC_start,35,space,0,0,633,43942,780786
5,24,male,Greek,1,62,ITC,win,5,right,7,ITC_choice,568,f,0,0,633,43372,781356
5,24,male,Greek,1,62,ITC,win,5,right,7,ITC_wait,0,undefined,0,0,633,43369,781359
5,24,male,Greek,1,62,ITC,win,5,right,7,ITC_collect,185,k,0,0,633,43183,781545
5,24,male,Greek,1,62,ITC,win,5,right,7,ITC_outcome,0,undefined,0,0,640,42172,782556
5,24,male,Greek,1,63,guess,win,5,left,12,guess_start,247,space,0,0,640,41923,782805
5,24,male,Greek,1,63,guess,win,5,left,12,guess_choice,518,f,0,0,640,41403,783325
5,24,male,Greek,1,63,guess,win,5,left,12,guess_outcome,0,undefined,0,0,660,39834,784894
5,24,male,Greek,1,63,ITC,win,5,left,12,ITC_start,318,space,0,0,660,39515,785213
5,24,male,Greek,1,63,ITC,win,5,left,12,ITC_choice,835,j,0,0,660,38679,786049
5,24,male,Greek,1,63,ITC,win,5,left,12,ITC_wait,0,undefined,0,0,660,38676,786052
5,24,male,Greek,1,63,ITC,win,5,left,12,ITC_collect,105,k,0,0,660,38570,786158
5,24,male,Greek,1,63,ITC,win,5,left,12,ITC_outcome,0,undefined,0,0,672,37556,787172
5,24,male,Greek,1,64,guess,win,5,right,10,guess_start,400,space,0,0,672,37155,787573
5,24,male,Greek,1,64,guess,win,5,right,10,guess_choice,420,f,0,0,672,36732,787996
5,24,male,Greek,1,64,guess,win,5,right,10,guess_outcome,0,undefined,0,0,692,35165,789563
5,24,male,Greek,1,64,ITC,win,5,right,10,ITC_start,414,space,0,0,692,34750,789978
5,24,male,Greek,1,64,ITC,win,5,right,10,ITC_choice,883,f,0,0,692,33865,790863
5,24,male,Greek,1,64,ITC,win,5,right,10,ITC_wait,0,undefined,0,0,692,33862,790866
5,24,male,Greek,1,64,ITC,win,5,right,10,ITC_collect,131,k,0,0,692,33730,790998
5,24,male,Greek,1,64,ITC,win,5,right,10,ITC_outcome,0,undefined,0,0,702,32726,792002
5,24,male,Greek,1,65,guess,neutral,5,left,10,guess_start,171,space,0,0,702,32553,792175
5,24,male,Greek,1,65,guess,neutral,5,left,10,guess_choice,484,f,0,0,702,32066,792662
5,24,male,Greek,1,65,guess,neutral,5,left,10,guess_outcome,0,undefined,0,0,702,30499,794229
5,24,male,Greek,1,65,ITC,neutral,5,left,10,ITC_start,203,space,0,0,702,30295,794433
5,24,male,Greek,1,65,ITC,neutral,5,left,10,ITC_choice,640,j,0,0,702,29654,795074
5,24,male,Greek,1,65,ITC,neutral,5,left,10,ITC_wait,0,undefined,0,0,702,29651,795077
5,24,male,Greek,1,65,ITC,neutral,5,left,10,ITC_collect,79,k,0,0,702,29571,795157
5,24,male,Greek,1,65,ITC,neutral,5,left,10,ITC_outcome,0,undefined,0,0,712,28554,796174
5,24,male,Greek,1,66,guess,win,5,right,9,guess_start,218,space,0,0,712,28334,796394
5,24,male,Greek,1,66,guess,win,5,right,9,guess_choice,498,f,0,0,712,27833,796895
5,24,male,Greek,1,66,guess,win,5,right,9,guess_outcome,0,undefined,0,0,732,26280,798448
5,24,male,Greek,1,66,ITC,win,5,right,9,ITC_start,56,space,0,0,732,26223,798505
5,24,male,Greek,1,66,ITC,win,5,right,9,ITC_choice,782,f,0,0,732,25440,799288
5,24,male,Greek,1,66,ITC,win,5,right,9,ITC_wait,0,undefined,0,0,732,25437,799291
5,24,male,Greek,1,66,ITC,win,5,right,9,ITC_collect,128,k,0,0,732,25309,799419
5,24,male,Greek,1,66,ITC,win,5,right,9,ITC_outcome,0,undefined,0,0,741,24301,800427
5,24,male,Greek,1,67,guess,neutral,10,right,4,guess_start,249,space,0,0,741,24051,800677
5,24,male,Greek,1,67,guess,neutral,10,right,4,guess_choice,677,j,0,0,741,23371,801357
5,24,male,Greek,1,67,guess,neutral,10,right,4,guess_outcome,0,undefined,0,0,741,21810,802918
5,24,male,Greek,1,67,ITC,neutral,10,right,4,ITC_start,268,space,0,0,741,21540,803188
5,24,male,Greek,1,67,ITC,neutral,10,right,4,ITC_choice,645,f,0,0,741,20894,803834
5,24,male,Greek,1,67,ITC,neutral,10,right,4,ITC_wait,0,undefined,0,0,741,20891,803837
5,24,male,Greek,1,67,ITC,neutral,10,right,4,ITC_collect,118,k,0,0,741,20771,803957
5,24,male,Greek,1,67,ITC,neutral,10,right,4,ITC_outcome,0,undefined,0,0,745,19758,804970
5,24,male,Greek,1,68,guess,win,10,left,1,guess_start,111,space,0,0,745,19645,805083
5,24,male,Greek,1,68,guess,win,10,left,1,guess_choice,547,j,0,0,745,19094,805634
5,24,male,Greek,1,68,guess,win,10,left,1,guess_outcome,0,undefined,0,0,765,17538,807190
5,24,male,Greek,1,68,ITC,win,10,left,1,ITC_start,117,space,0,0,765,17420,807308
5,24,male,Greek,1,68,ITC,win,10,left,1,ITC_wait,0,undefined,0,0,765,16743,807985
5,24,male,Greek,1,68,ITC,win,10,left,1,ITC_choice,673,j,0,0,765,16746,807982
5,24,male,Greek,1,68,ITC,win,10,left,1,ITC_collect,169,k,0,0,765,16573,808155
5,24,male,Greek,1,68,ITC,win,10,left,1,ITC_outcome,0,undefined,0,0,766,15562,809166
5,24,male,Greek,1,69,guess,win,10,left,5,guess_start,85,space,0,0,766,15475,809253
5,24,male,Greek,1,69,guess,win,10,left,5,guess_choice,796,f,0,0,766,14677,810051
5,24,male,Greek,1,69,guess,win,10,left,5,guess_outcome,0,undefined,0,0,786,13112,811616
5,24,male,Greek,1,69,ITC,win,10,left,5,ITC_start,118,space,0,0,786,12993,811735
5,24,male,Greek,1,69,ITC,win,10,left,5,ITC_choice,884,j,0,0,786,12107,812621
5,24,male,Greek,1,69,ITC,win,10,left,5,ITC_wait,0,undefined,0,0,786,12104,812624
5,24,male,Greek,1,69,ITC,win,10,left,5,ITC_collect,108,k,0,0,786,11994,812734
5,24,male,Greek,1,69,ITC,win,10,left,5,ITC_outcome,0,undefined,0,0,791,10986,813742
5,24,male,Greek,1,70,guess,neutral,5,right,14,guess_start,133,space,0,0,791,10851,813877
5,24,male,Greek,1,70,guess,neutral,5,right,14,guess_choice,628,j,0,0,791,10220,814508
5,24,male,Greek,1,70,guess,neutral,5,right,14,guess_outcome,0,undefined,0,0,791,8656,816072
5,24,male,Greek,1,70,ITC,neutral,5,right,14,ITC_start,43,space,0,0,791,8612,816116
5,24,male,Greek,1,70,ITC,neutral,5,right,14,ITC_choice,680,f,0,0,791,7930,816798
5,24,male,Greek,1,70,ITC,neutral,5,right,14,ITC_wait,0,undefined,0,0,791,7927,816801
5,24,male,Greek,1,70,ITC,neutral,5,right,14,ITC_collect,166,k,0,0,791,7760,816968
5,24,male,Greek,1,70,ITC,neutral,5,right,14,ITC_outcome,0,undefined,0,0,805,6744,817984
5,24,male,Greek,1,71,guess,loss,5,right,7,guess_start,162,space,0,0,805,6580,818148
5,24,male,Greek,1,71,guess,loss,5,right,7,guess_choice,521,f,0,0,805,6056,818672
5,24,male,Greek,1,71,guess,loss,5,right,7,guess_outcome,0,undefined,0,0,790,4502,820226
5,24,male,Greek,1,71,ITC,loss,5,right,7,ITC_start,607,space,0,0,790,3893,820835
5,24,male,Greek,1,71,ITC,loss,5,right,7,ITC_choice,722,f,0,0,790,3170,821558
5,24,male,Greek,1,71,ITC,loss,5,right,7,ITC_wait,0,undefined,0,0,790,3167,821561
5,24,male,Greek,1,71,ITC,loss,5,right,7,ITC_collect,175,k,0,0,790,2991,821737
5,24,male,Greek,1,71,ITC,loss,5,right,7,ITC_outcome,0,undefined,0,0,797,1977,822751
5,24,male,Greek,1,72,guess,loss,5,right,1,guess_start,409,space,0,0,797,1566,823162
5,24,male,Greek,1,72,guess,loss,5,right,1,guess_choice,436,j,0,0,797,1127,823601
5,24,male,Greek,1,72,guess,loss,5,right,1,guess_outcome,0,undefined,0,0,782,-7,824735
5,24,male,Greek,2,73,guess,win,5,left,5,guess_start,609,space,0,0,0,479390,834726
5,24,male,Greek,2,73,guess,win,5,left,5,guess_choice,606,f,0,0,0,478781,835335
5,24,male,Greek,2,73,guess,win,5,left,5,guess_outcome,0,undefined,0,0,20,477224,836892
5,24,male,Greek,2,73,ITC,win,5,left,5,ITC_start,42,space,0,0,20,477181,836935
5,24,male,Greek,2,73,ITC,win,5,left,5,ITC_choice,733,j,0,0,20,476447,837669
5,24,male,Greek,2,73,ITC,win,5,left,5,ITC_wait,0,undefined,0,0,20,476444,837672
5,24,male,Greek,2,73,ITC,win,5,left,5,ITC_collect,102,k,0,0,20,476341,837775
5,24,male,Greek,2,73,ITC,win,5,left,5,ITC_outcome,0,undefined,0,0,25,475322,838794
5,24,male,Greek,2,74,guess,neutral,5,right,14,guess_start,148,space,0,0,25,475173,838943
5,24,male,Greek,2,74,guess,neutral,5,right,14,guess_choice,1067,j,0,0,25,474103,840013
5,24,male,Greek,2,74,guess,neutral,5,right,14,guess_outcome,0,undefined,0,0,25,472538,841578
5,24,male,Greek,2,74,ITC,neutral,5,right,14,ITC_start,73,space,0,0,25,472464,841652
5,24,male,Greek,2,74,ITC,neutral,5,right,14,ITC_choice,539,f,0,0,25,471924,842192
5,24,male,Greek,2,74,ITC,neutral,5,right,14,ITC_wait,0,undefined,0,0,25,471921,842195
5,24,male,Greek,2,74,ITC,neutral,5,right,14,ITC_collect,135,k,0,0,25,471785,842331
5,24,male,Greek,2,74,ITC,neutral,5,right,14,ITC_outcome,0,undefined,0,0,39,470777,843339
5,24,male,Greek,2,75,guess,neutral,5,right,16,guess_start,355,space,0,0,39,470419,843697
5,24,male,Greek,2,75,guess,neutral,5,right,16,guess_choice,588,j,0,0,39,469827,844289
5,24,male,Greek,2,75,guess,neutral,5,right,16,guess_outcome,0,undefined,0,0,39,468268,845848
5,24,male,Greek,2,75,ITC,neutral,5,right,16,ITC_start,22,space,0,0,39,468245,845871
5,24,male,Greek,2,75,ITC,neutral,5,right,16,ITC_choice,589,f,0,0,39,467654,846462
5,24,male,Greek,2,75,ITC,neutral,5,right,16,ITC_wait,0,undefined,0,0,39,467652,846464
5,24,male,Greek,2,75,ITC,neutral,5,right,16,ITC_collect,179,k,0,0,39,467471,846645
5,24,male,Greek,2,75,ITC,neutral,5,right,16,ITC_outcome,0,undefined,0,0,55,466466,847650
5,24,male,Greek,2,76,guess,neutral,10,left,4,guess_start,224,space,0,0,55,466240,847876
5,24,male,Greek,2,76,guess,neutral,10,left,4,guess_choice,506,f,0,0,55,465732,848384
5,24,male,Greek,2,76,guess,neutral,10,left,4,guess_outcome,0,undefined,0,0,55,464168,849948
5,24,male,Greek,2,76,ITC,neutral,10,left,4,ITC_start,572,space,0,0,55,463595,850521
5,24,male,Greek,2,76,ITC,neutral,10,left,4,ITC_choice,643,j,0,0,55,462951,851165
5,24,male,Greek,2,76,ITC,neutral,10,left,4,ITC_wait,0,undefined,0,0,55,462948,851168
5,24,male,Greek,2,76,ITC,neutral,10,left,4,ITC_collect,149,k,0,0,55,462798,851318
5,24,male,Greek,2,76,ITC,neutral,10,left,4,ITC_outcome,0,undefined,0,0,59,461792,852324
5,24,male,Greek,2,77,guess,neutral,5,right,13,guess_start,57,space,0,0,59,461733,852383
5,24,male,Greek,2,77,guess,neutral,5,right,13,guess_choice,513,j,0,0,59,461217,852899
5,24,male,Greek,2,77,guess,neutral,5,right,13,guess_outcome,0,undefined,0,0,59,459654,854462
5,24,male,Greek,2,77,ITC,neutral,5,right,13,ITC_start,356,space,0,0,59,459297,854819
5,24,male,Greek,2,77,ITC,neutral,5,right,13,ITC_choice,659,f,0,0,59,458637,855479
5,24,male,Greek,2,77,ITC,neutral,5,right,13,ITC_wait,0,undefined,0,0,59,458635,855481
5,24,male,Greek,2,77,ITC,neutral,5,right,13,ITC_collect,86,k,0,0,59,458547,855569
5,24,male,Greek,2,77,ITC,neutral,5,right,13,ITC_outcome,0,undefined,0,0,72,457530,856586
5,24,male,Greek,2,78,guess,win,5,left,2,guess_start,334,space,0,0,72,457194,856922
5,24,male,Greek,2,78,guess,win,5,left,2,guess_choice,588,j,0,0,72,456603,857513
5,24,male,Greek,2,78,guess,win,5,left,2,guess_outcome,0,undefined,0,0,92,455041,859075
5,24,male,Greek,2,78,ITC,win,5,left,2,ITC_start,324,space,0,0,92,454716,859400
5,24,male,Greek,2,78,ITC,win,5,left,2,ITC_choice,620,j,0,0,92,454094,860022
5,24,male,Greek,2,78,ITC,win,5,left,2,ITC_wait,0,undefined,0,0,92,454091,860025
5,24,male,Greek,2,78,ITC,win,5,left,2,ITC_collect,97,k,0,0,92,453993,860123
5,24,male,Greek,2,78,ITC,win,5,left,2,ITC_outcome,0,undefined,0,0,94,452979,861137
5,24,male,Greek,2,79,guess,win,5,right,13,guess_start,274,space,0,0,94,452704,861412
5,24,male,Greek,2,79,guess,win,5,right,13,guess_choice,612,j,0,0,94,452089,862027
5,24,male,Greek,2,79,guess,win,5,right,13,guess_outcome,0,undefined,0,0,114,450529,863587
5,24,male,Greek,2,79,ITC,win,5,right,13,ITC_start,147,space,0,0,114,450381,863735
5,24,male,Greek,2,79,ITC,win,5,right,13,ITC_choice,568,f,0,0,114,449812,864304
5,24,male,Greek,2,79,ITC,win,5,right,13,ITC_wait,0,undefined,0,0,114,449809,864307
5,24,male,Greek,2,79,ITC,win,5,right,13,ITC_collect,146,k,0,0,114,449661,864455
5,24,male,Greek,2,79,ITC,win,5,right,13,ITC_outcome,0,undefined,0,0,127,448652,865464
5,24,male,Greek,2,80,guess,win,5,left,16,guess_start,310,space,0,0,127,448340,865776
5,24,male,Greek,2,80,guess,win,5,left,16,guess_choice,552,f,0,0,127,447785,866331
5,24,male,Greek,2,80,guess,win,5,left,16,guess_outcome,0,undefined,0,0,147,446229,867887
5,24,male,Greek,2,80,ITC,win,5,left,16,ITC_start,59,space,0,0,147,446168,867948
5,24,male,Greek,2,80,ITC,win,5,left,16,ITC_choice,582,j,0,0,147,445585,868531
5,24,male,Greek,2,80,ITC,win,5,left,16,ITC_wait,0,undefined,0,0,147,445582,868534
5,24,male,Greek,2,80,ITC,win,5,left,16,ITC_collect,108,k,0,0,147,445472,868644
5,24,male,Greek,2,80,ITC,win,5,left,16,ITC_outcome,0,undefined,0,0,163,444465,869651
5,24,male,Greek,2,81,guess,neutral,5,right,4,guess_start,35,space,0,0,163,444427,869689
5,24,male,Greek,2,81,guess,neutral,5,right,4,guess_choice,561,f,0,0,163,443863,870253
5,24,male,Greek,2,81,guess,neutral,5,right,4,guess_outcome,0,undefined,0,0,163,442306,871810
5,24,male,Greek,2,81,ITC,neutral,5,right,4,ITC_start,421,space,0,0,163,441884,872232
5,24,male,Greek,2,81,ITC,neutral,5,right,4,ITC_choice,503,f,0,0,163,441379,872737
5,24,male,Greek,2,81,ITC,neutral,5,right,4,ITC_wait,0,undefined,0,0,163,441377,872739
5,24,male,Greek,2,81,ITC,neutral,5,right,4,ITC_collect,195,k,0,0,163,441181,872935
5,24,male,Greek,2,81,ITC,neutral,5,right,4,ITC_outcome,0,undefined,0,0,167,440171,873945
5,24,male,Greek,2,82,guess,neutral,5,right,7,guess_start,6,space,0,0,167,440163,873953
5,24,male,Greek,2,82,guess,neutral,5,right,7,guess_choice,526,j,0,0,167,439634,874482
5,24,male,Greek,2,82,guess,neutral,5,right,7,guess_outcome,0,undefined,0,0,167,438068,876048
5,24,male,Greek,2,82,ITC,neutral,5,right,7,ITC_start,35,space,0,0,167,438032,876084
5,24,male,Greek,2,82,ITC,neutral,5,right,7,ITC_wait,0,undefined,0,0,167,437474,876642
5,24,male,Greek,2,82,ITC,neutral,5,right,7,ITC_choice,553,f,0,0,167,437477,876639
5,24,male,Greek,2,82,ITC,neutral,5,right,7,ITC_collect,164,k,0,0,167,437309,876807
5,24,male,Greek,2,82,ITC,neutral,5,right,7,ITC_outcome,0,undefined,0,0,174,436304,877812
5,24,male,Greek,2,83,guess,neutral,5,right,9,guess_start,49,space,0,0,174,436254,877862
5,24,male,Greek,2,83,guess,neutral,5,right,9,guess_choice,510,j,0,0,174,435741,878375
5,24,male,Greek,2,83,guess,neutral,5,right,9,guess_outcome,0,undefined,0,0,174,434175,879941
5,24,male,Greek,2,83,ITC,neutral,5,right,9,ITC_start,329,space,0,0,174,433845,880271
5,24,male,Greek,2,83,ITC,neutral,5,right,9,ITC_choice,605,f,0,0,174,433238,880878
5,24,male,Greek,2,83,ITC,neutral,5,right,9,ITC_wait,0,undefined,0,0,174,433235,880881
5,24,male,Greek,2,83,ITC,neutral,5,right,9,ITC_collect,161,k,0,0,174,433072,881044
5,24,male,Greek,2,83,ITC,neutral,5,right,9,ITC_outcome,0,undefined,0,0,183,432060,882056
5,24,male,Greek,2,84,guess,neutral,5,left,11,guess_start,467,space,0,0,183,431592,882524
5,24,male,Greek,2,84,guess,neutral,5,left,11,guess_choice,1028,j,0,0,183,430562,883554
5,24,male,Greek,2,84,guess,neutral,5,left,11,guess_outcome,0,undefined,0,0,183,429008,885108
5,24,male,Greek,2,84,ITC,neutral,5,left,11,ITC_start,122,space,0,0,183,428884,885232
5,24,male,Greek,2,84,ITC,neutral,5,left,11,ITC_choice,703,j,0,0,183,428180,885936
5,24,male,Greek,2,84,ITC,neutral,5,left,11,ITC_wait,0,undefined,0,0,183,428177,885939
5,24,male,Greek,2,84,ITC,neutral,5,left,11,ITC_collect,124,k,0,0,183,428051,886065
5,24,male,Greek,2,84,ITC,neutral,5,left,11,ITC_outcome,0,undefined,0,0,194,427046,887070
5,24,male,Greek,2,85,guess,win,10,left,3,guess_start,332,space,0,0,194,426712,887404
5,24,male,Greek,2,85,guess,win,10,left,3,guess_choice,583,f,0,0,194,426125,887991
5,24,male,Greek,2,85,guess,win,10,left,3,guess_outcome,0,undefined,0,0,214,424564,889552
5,24,male,Greek,2,85,ITC,win,10,left,3,ITC_start,282,space,0,0,214,424280,889836
5,24,male,Greek,2,85,ITC,win,10,left,3,ITC_choice,544,j,0,0,214,423734,890382
5,24,male,Greek,2,85,ITC,win,10,left,3,ITC_wait,0,undefined,0,0,214,423732,890384
5,24,male,Greek,2,85,ITC,win,10,left,3,ITC_collect,127,k,0,0,214,423603,890513
5,24,male,Greek,2,85,ITC,win,10,left,3,ITC_outcome,0,undefined,0,0,217,422592,891524
5,24,male,Greek,2,86,guess,win,5,right,11,guess_start,22,space,0,0,217,422568,891548
5,24,male,Greek,2,86,guess,win,5,right,11,guess_choice,560,f,0,0,217,422005,892111
5,24,male,Greek,2,86,guess,win,5,right,11,guess_outcome,0,undefined,0,0,237,420439,893677
5,24,male,Greek,2,86,ITC,win,5,right,11,ITC_start,143,space,0,0,237,420295,893821
5,24,male,Greek,2,86,ITC,win,5,right,11,ITC_choice,677,f,0,0,237,419616,894500
5,24,male,Greek,2,86,ITC,win,5,right,11,ITC_wait,0,undefined,0,0,237,419614,894502
5,24,male,Greek,2,86,ITC,win,5,right,11,ITC_collect,64,k,0,0,237,419548,894568
5,24,male,Greek,2,86,ITC,win,5,right,11,ITC_outcome,0,undefined,0,0,248,418538,895578
5,24,male,Greek,2,87,guess,win,5,right,9,guess_start,439,space,0,0,248,418096,896020
5,24,male,Greek,2,87,guess,win,5,right,9,guess_choice,568,j,0,0,248,417525,896591
5,24,male,Greek,2,87,guess,win,5,right,9,guess_outcome,0,undefined,0,0,268,415957,898159
5,24,male,Greek,2,87,ITC,win,5,right,9,ITC_start,62,space,0,0,268,415894,898222
5,24,male,Greek,2,87,ITC,win,5,right,9,ITC_choice,560,f,0,0,268,415332,898784
5,24,male,Greek,2,87,ITC,win,5,right,9,ITC_wait,0,undefined,0,0,268,415330,898786
5,24,male,Greek,2,87,ITC,win,5,right,9,ITC_collect,72,k,0,0,268,415256,898860
5,24,male,Greek,2,87,ITC,win,5,right,9,ITC_outcome,0,undefined,0,0,277,414239,899877
5,24,male,Greek,2,88,guess,neutral,10,left,5,guess_start,145,space,0,0,277,414091,900025
5,24,male,Greek,2,88,guess,neutral,10,left,5,guess_choice,540,f,0,0,277,413549,900567
5,24,male,Greek,2,88,guess,neutral,10,left,5,guess_outcome,0,undefined,0,0,277,411990,902126
5,24,male,Greek,2,88,ITC,neutral,10,left,5,ITC_start,52,space,0,0,277,411937,902179
5,24,male,Greek,2,88,ITC,neutral,10,left,5,ITC_choice,559,j,0,0,277,411377,902739
5,24,male,Greek,2,88,ITC,neutral,10,left,5,ITC_wait,0,undefined,0,0,277,411374,902742
5,24,male,Greek,2,88,ITC,neutral,10,left,5,ITC_collect,136,k,0,0,277,411237,902879
5,24,male,Greek,2,88,ITC,neutral,10,left,5,ITC_outcome,0,undefined,0,0,282,410231,903885
5,24,male,Greek,2,89,guess,loss,5,right,3,guess_start,24,space,0,0,282,410205,903911
5,24,male,Greek,2,89,guess,loss,5,right,3,guess_choice,571,j,0,0,282,409632,904484
5,24,male,Greek,2,89,guess,loss,5,right,3,guess_outcome,0,undefined,0,0,267,408070,906046
5,24,male,Greek,2,89,ITC,loss,5,right,3,ITC_start,196,space,0,0,267,407873,906243
5,24,male,Greek,2,89,ITC,loss,5,right,3,ITC_choice,740,f,0,0,267,407131,906985
5,24,male,Greek,2,89,ITC,loss,5,right,3,ITC_wait,0,undefined,0,0,267,407129,906987
5,24,male,Greek,2,89,ITC,loss,5,right,3,ITC_collect,76,k,0,0,267,407051,907065
5,24,male,Greek,2,89,ITC,loss,5,right,3,ITC_outcome,0,undefined,0,0,270,406045,908071
5,24,male,Greek,2,90,guess,neutral,10,right,1,guess_start,356,space,0,0,270,405688,908428
5,24,male,Greek,2,90,guess,neutral,10,right,1,guess_choice,615,f,0,0,270,405071,909045
5,24,male,Greek,2,90,guess,neutral,10,right,1,guess_outcome,0,undefined,0,0,270,403512,910604
5,24,male,Greek,2,90,ITC,neutral,10,right,1,ITC_start,892,space,0,0,270,402619,911497
5,24,male,Greek,2,90,ITC,neutral,10,right,1,ITC_choice,699,f,0,0,270,401918,912198
5,24,male,Greek,2,90,ITC,neutral,10,right,1,ITC_wait,0,undefined,0,0,270,401915,912201
5,24,male,Greek,2,90,ITC,neutral,10,right,1,ITC_collect,500,k,0,0,270,401413,912703
5,24,male,Greek,2,90,ITC,neutral,10,right,1,ITC_outcome,0,undefined,0,0,271,400398,913718
5,24,male,Greek,2,91,guess,win,5,right,6,guess_start,85,space,0,0,271,400311,913805
5,24,male,Greek,2,91,guess,win,5,right,6,guess_choice,452,f,0,0,271,399857,914259
5,24,male,Greek,2,91,guess,win,5,right,6,guess_outcome,0,undefined,0,0,291,398290,915826
5,24,male,Greek,2,91,ITC,win,5,right,6,ITC_start,357,space,0,0,291,397931,916185
5,24,male,Greek,2,91,ITC,win,5,right,6,ITC_choice,518,f,0,0,291,397412,916704
5,24,male,Greek,2,91,ITC,win,5,right,6,ITC_wait,0,undefined,0,0,291,397409,916707
5,24,male,Greek,2,91,ITC,win,5,right,6,ITC_collect,116,k,0,0,291,397292,916824
5,24,male,Greek,2,91,ITC,win,5,right,6,ITC_outcome,0,undefined,0,0,297,396280,917836
5,24,male,Greek,2,92,guess,loss,10,left,3,guess_start,109,space,0,0,297,396170,917946
5,24,male,Greek,2,92,guess,loss,10,left,3,guess_choice,590,f,0,0,297,395577,918539
5,24,male,Greek,2,92,guess,loss,10,left,3,guess_outcome,0,undefined,0,0,282,394017,920099
5,24,male,Greek,2,92,ITC,loss,10,left,3,ITC_start,47,space,0,0,282,393968,920148
5,24,male,Greek,2,92,ITC,loss,10,left,3,ITC_choice,652,j,0,0,282,393314,920802
5,24,male,Greek,2,92,ITC,loss,10,left,3,ITC_wait,0,undefined,0,0,282,393312,920804
5,24,male,Greek,2,92,ITC,loss,10,left,3,ITC_collect,106,k,0,0,282,393204,920912
5,24,male,Greek,2,92,ITC,loss,10,left,3,ITC_outcome,0,undefined,0,0,285,392198,921918
5,24,male,Greek,2,93,guess,loss,10,left,8,guess_start,116,space,0,0,285,392080,922036
5,24,male,Greek,2,93,guess,loss,10,left,8,guess_choice,596,f,0,0,285,391482,922634
5,24,male,Greek,2,93,guess,loss,10,left,8,guess_outcome,0,undefined,0,0,270,389918,924198
5,24,male,Greek,2,93,ITC,loss,10,left,8,ITC_start,174,space,0,0,270,389742,924374
5,24,male,Greek,2,93,ITC,loss,10,left,8,ITC_choice,584,j,0,0,270,389157,924959
5,24,male,Greek,2,93,ITC,loss,10,left,8,ITC_wait,0,undefined,0,0,270,389155,924961
5,24,male,Greek,2,93,ITC,loss,10,left,8,ITC_collect,112,k,0,0,270,389042,925074
5,24,male,Greek,2,93,ITC,loss,10,left,8,ITC_outcome,0,undefined,0,0,278,388029,926087
5,24,male,Greek,2,94,guess,loss,5,right,4,guess_start,352,space,0,0,278,387675,926441
5,24,male,Greek,2,94,guess,loss,5,right,4,guess_choice,672,j,0,0,278,386999,927117
5,24,male,Greek,2,94,guess,loss,5,right,4,guess_outcome,0,undefined,0,0,263,385438,928678
5,24,male,Greek,2,94,ITC,loss,5,right,4,ITC_start,79,space,0,0,263,385358,928758
5,24,male,Greek,2,94,ITC,loss,5,right,4,ITC_choice,560,f,0,0,263,384796,929320
5,24,male,Greek,2,94,ITC,loss,5,right,4,ITC_wait,0,undefined,0,0,263,384794,929322
5,24,male,Greek,2,94,ITC,loss,5,right,4,ITC_collect,101,k,0,0,263,384691,929425
5,24,male,Greek,2,94,ITC,loss,5,right,4,ITC_outcome,0,undefined,0,0,267,383686,930430
5,24,male,Greek,2,95,guess,loss,5,right,6,guess_start,259,space,0,0,267,383425,930691
5,24,male,Greek,2,95,guess,loss,5,right,6,guess_choice,503,f,0,0,267,382919,931197
5,24,male,Greek,2,95,guess,loss,5,right,6,guess_outcome,0,undefined,0,0,252,381351,932765
5,24,male,Greek,2,95,ITC,loss,5,right,6,ITC_start,446,space,0,0,252,380904,933212
5,24,male,Greek,2,95,ITC,loss,5,right,6,ITC_choice,616,f,0,0,252,380286,933830
5,24,male,Greek,2,95,ITC,loss,5,right,6,ITC_wait,0,undefined,0,0,252,380284,933832
5,24,male,Greek,2,95,ITC,loss,5,right,6,ITC_collect,106,k,0,0,252,380176,933940
5,24,male,Greek,2,95,ITC,loss,5,right,6,ITC_outcome,0,undefined,0,0,258,379173,934943
5,24,male,Greek,2,96,guess,win,10,left,2,guess_start,334,space,0,0,258,378837,935279
5,24,male,Greek,2,96,guess,win,10,left,2,guess_choice,541,j,0,0,258,378294,935822
5,24,male,Greek,2,96,guess,win,10,left,2,guess_outcome,0,undefined,0,0,278,376733,937383
5,24,male,Greek,2,96,ITC,win,10,left,2,ITC_start,200,space,0,0,278,376532,937584
5,24,male,Greek,2,96,ITC,win,10,left,2,ITC_choice,537,j,0,0,278,375993,938123
5,24,male,Greek,2,96,ITC,win,10,left,2,ITC_wait,0,undefined,0,0,278,375991,938125
5,24,male,Greek,2,96,ITC,win,10,left,2,ITC_collect,93,k,0,0,278,375896,938220
5,24,male,Greek,2,96,ITC,win,10,left,2,ITC_outcome,0,undefined,0,0,280,374890,939226
5,24,male,Greek,2,97,guess,win,5,left,4,guess_start,237,space,0,0,280,374652,939464
5,24,male,Greek,2,97,guess,win,5,left,4,guess_choice,543,f,0,0,280,374106,940010
5,24,male,Greek,2,97,guess,win,5,left,4,guess_outcome,0,undefined,0,0,300,372547,941569
5,24,male,Greek,2,97,ITC,win,5,left,4,ITC_start,388,space,0,0,300,372157,941959
5,24,male,Greek,2,97,ITC,win,5,left,4,ITC_choice,607,j,0,0,300,371549,942567
5,24,male,Greek,2,97,ITC,win,5,left,4,ITC_wait,0,undefined,0,0,300,371547,942569
5,24,male,Greek,2,97,ITC,win,5,left,4,ITC_collect,105,k,0,0,300,371440,942676
5,24,male,Greek,2,97,ITC,win,5,left,4,ITC_outcome,0,undefined,0,0,304,370427,943689
5,24,male,Greek,2,98,guess,loss,10,right,6,guess_start,365,space,0,0,304,370060,944056
5,24,male,Greek,2,98,guess,loss,10,right,6,guess_choice,561,f,0,0,304,369496,944620
5,24,male,Greek,2,98,guess,loss,10,right,6,guess_outcome,0,undefined,0,0,289,367929,946187
5,24,male,Greek,2,98,ITC,loss,10,right,6,ITC_start,392,space,0,0,289,367536,946580
5,24,male,Greek,2,98,ITC,loss,10,right,6,ITC_wait,0,undefined,0,0,289,366738,947378
5,24,male,Greek,2,98,ITC,loss,10,right,6,ITC_choice,794,f,0,0,289,366741,947375
5,24,male,Greek,2,98,ITC,loss,10,right,6,ITC_collect,47,k,0,0,289,366690,947426
5,24,male,Greek,2,98,ITC,loss,10,right,6,ITC_outcome,0,undefined,0,0,295,365680,948436
5,24,male,Greek,2,99,guess,win,5,left,14,guess_start,112,space,0,0,295,365565,948551
5,24,male,Greek,2,99,guess,win,5,left,14,guess_choice,497,j,0,0,295,365066,949050
5,24,male,Greek,2,99,guess,win,5,left,14,guess_outcome,0,undefined,0,0,315,363502,950614
5,24,male,Greek,2,99,ITC,win,5,left,14,ITC_start,178,space,0,0,315,363323,950793
5,24,male,Greek,2,99,ITC,win,5,left,14,ITC_choice,512,j,0,0,315,362810,951306
5,24,male,Greek,2,99,ITC,win,5,left,14,ITC_wait,0,undefined,0,0,315,362807,951309
5,24,male,Greek,2,99,ITC,win,5,left,14,ITC_collect,125,k,0,0,315,362680,951436
5,24,male,Greek,2,99,ITC,win,5,left,14,ITC_outcome,0,undefined,0,0,329,361673,952443
5,24,male,Greek,2,100,guess,loss,5,left,15,guess_start,313,space,0,0,329,361358,952758
5,24,male,Greek,2,100,guess,loss,5,left,15,guess_choice,497,j,0,0,329,360858,953258
5,24,male,Greek,2,100,guess,loss,5,left,15,guess_outcome,0,undefined,0,0,314,359292,954824
5,24,male,Greek,2,100,ITC,loss,5,left,15,ITC_start,15,space,0,0,314,359276,954840
5,24,male,Greek,2,100,ITC,loss,5,left,15,ITC_choice,593,j,0,0,314,358681,955435
5,24,male,Greek,2,100,ITC,loss,5,left,15,ITC_wait,0,undefined,0,0,314,358678,955438
5,24,male,Greek,2,100,ITC,loss,5,left,15,ITC_collect,111,k,0,0,314,358566,955550
5,24,male,Greek,2,100,ITC,loss,5,left,15,ITC_outcome,0,undefined,0,0,329,357563,956553
5,24,male,Greek,2,101,guess,neutral,10,right,2,guess_start,96,space,0,0,329,357465,956651
5,24,male,Greek,2,101,guess,neutral,10,right,2,guess_choice,642,f,0,0,329,356819,957297
5,24,male,Greek,2,101,guess,neutral,10,right,2,guess_outcome,0,undefined,0,0,329,355263,958853
5,24,male,Greek,2,101,ITC,neutral,10,right,2,ITC_start,195,space,0,0,329,355067,959049
5,24,male,Greek,2,101,ITC,neutral,10,right,2,ITC_choice,1576,f,0,0,329,353489,960627
5,24,male,Greek,2,101,ITC,neutral,10,right,2,ITC_wait,0,undefined,0,0,329,353485,960631
5,24,male,Greek,2,101,ITC,neutral,10,right,2,ITC_collect,189,k,0,0,329,353295,960821
5,24,male,Greek,2,101,ITC,neutral,10,right,2,ITC_outcome,0,undefined,0,0,331,352282,961834
5,24,male,Greek,2,102,guess,loss,5,left,5,guess_start,344,space,0,0,331,351936,962180
5,24,male,Greek,2,102,guess,loss,5,left,5,guess_choice,463,j,0,0,331,351470,962646
5,24,male,Greek,2,102,guess,loss,5,left,5,guess_outcome,0,undefined,0,0,316,349905,964211
5,24,male,Greek,2,102,ITC,loss,5,left,5,ITC_start,214,space,0,0,316,349690,964426
5,24,male,Greek,2,102,ITC,loss,5,left,5,ITC_choice,492,j,0,0,316,349196,964920
5,24,male,Greek,2,102,ITC,loss,5,left,5,ITC_wait,0,undefined,0,0,316,349194,964922
5,24,male,Greek,2,102,ITC,loss,5,left,5,ITC_collect,85,k,0,0,316,349107,965009
5,24,male,Greek,2,102,ITC,loss,5,left,5,ITC_outcome,0,undefined,0,0,321,348094,966022
5,24,male,Greek,2,103,guess,win,10,right,8,guess_start,280,space,0,0,321,347813,966303
5,24,male,Greek,2,103,guess,win,10,right,8,guess_choice,510,j,0,0,321,347301,966815
5,24,male,Greek,2,103,guess,win,10,right,8,guess_outcome,0,undefined,0,0,341,345748,968368
5,24,male,Greek,2,103,ITC,win,10,right,8,ITC_start,264,space,0,0,341,345482,968634
5,24,male,Greek,2,103,ITC,win,10,right,8,ITC_choice,539,f,0,0,341,344942,969174
5,24,male,Greek,2,103,ITC,win,10,right,8,ITC_wait,0,undefined,0,0,341,344940,969176
5,24,male,Greek,2,103,ITC,win,10,right,8,ITC_collect,72,k,0,0,341,344866,969250
5,24,male,Greek,2,103,ITC,win,10,right,8,ITC_outcome,0,undefined,0,0,349,343854,970262
5,24,male,Greek,2,104,guess,win,5,right,7,guess_start,273,space,0,0,349,343579,970537
5,24,male,Greek,2,104,guess,win,5,right,7,guess_choice,530,j,0,0,349,343047,971069
5,24,male,Greek,2,104,guess,win,5,right,7,guess_outcome,0,undefined,0,0,369,341480,972636
5,24,male,Greek,2,104,ITC,win,5,right,7,ITC_start,292,space,0,0,369,341187,972929
5,24,male,Greek,2,104,ITC,win,5,right,7,ITC_choice,515,f,0,0,369,340671,973445
5,24,male,Greek,2,104,ITC,win,5,right,7,ITC_wait,0,undefined,0,0,369,340668,973448
5,24,male,Greek,2,104,ITC,win,5,right,7,ITC_collect,66,k,0,0,369,340601,973515
5,24,male,Greek,2,104,ITC,win,5,right,7,ITC_outcome,0,undefined,0,0,376,339591,974525
5,24,male,Greek,2,105,guess,loss,5,right,8,guess_start,236,space,0,0,376,339354,974762
5,24,male,Greek,2,105,guess,loss,5,right,8,guess_choice,497,f,0,0,376,338854,975262
5,24,male,Greek,2,105,guess,loss,5,right,8,guess_outcome,0,undefined,0,0,361,337294,976822
5,24,male,Greek,2,105,ITC,loss,5,right,8,ITC_start,344,space,0,0,361,336948,977168
5,24,male,Greek,2,105,ITC,loss,5,right,8,ITC_wait,0,undefined,0,0,361,336445,977671
5,24,male,Greek,2,105,ITC,loss,5,right,8,ITC_choice,499,f,0,0,361,336448,977668
5,24,male,Greek,2,105,ITC,loss,5,right,8,ITC_collect,85,k,0,0,361,336358,977758
5,24,male,Greek,2,105,ITC,loss,5,right,8,ITC_outcome,0,undefined,0,0,369,335347,978769
5,24,male,Greek,2,106,guess,loss,5,left,12,guess_start,300,space,0,0,369,335045,979071
5,24,male,Greek,2,106,guess,loss,5,left,12,guess_choice,471,f,0,0,369,334571,979545
5,24,male,Greek,2,106,guess,loss,5,left,12,guess_outcome,0,undefined,0,0,354,333012,981104
5,24,male,Greek,2,106,ITC,loss,5,left,12,ITC_start,315,space,0,0,354,332695,981421
5,24,male,Greek,2,106,ITC,loss,5,left,12,ITC_choice,612,j,0,0,354,332083,982033
5,24,male,Greek,2,106,ITC,loss,5,left,12,ITC_wait,0,undefined,0,0,354,332080,982036
5,24,male,Greek,2,106,ITC,loss,5,left,12,ITC_collect,95,k,0,0,354,331984,982132
5,24,male,Greek,2,106,ITC,loss,5,left,12,ITC_outcome,0,undefined,0,0,366,330972,983144
5,24,male,Greek,2,107,guess,loss,10,left,5,guess_start,169,space,0,0,366,330802,983314
5,24,male,Greek,2,107,guess,loss,10,left,5,guess_choice,505,j,0,0,366,330294,983822
5,24,male,Greek,2,107,guess,loss,10,left,5,guess_outcome,0,undefined,0,0,351,328734,985382
5,24,male,Greek,2,107,ITC,loss,10,left,5,ITC_start,194,space,0,0,351,328539,985577
5,24,male,Greek,2,107,ITC,loss,10,left,5,ITC_choice,537,j,0,0,351,328001,986115
5,24,male,Greek,2,107,ITC,loss,10,left,5,ITC_wait,0,undefined,0,0,351,327997,986119
5,24,male,Greek,2,107,ITC,loss,10,left,5,ITC_collect,109,k,0,0,351,327887,986229
5,24,male,Greek,2,107,ITC,loss,10,left,5,ITC_outcome,0,undefined,0,0,356,326872,987244
5,24,male,Greek,2,108,guess,loss,10,left,4,guess_start,295,space,0,0,356,326576,987540
5,24,male,Greek,2,108,guess,loss,10,left,4,guess_choice,496,f,0,0,356,326077,988039
5,24,male,Greek,2,108,guess,loss,10,left,4,guess_outcome,0,undefined,0,0,341,324524,989592
5,24,male,Greek,2,108,ITC,loss,10,left,4,ITC_start,125,space,0,0,341,324397,989719
5,24,male,Greek,2,108,ITC,loss,10,left,4,ITC_choice,1063,j,0,0,341,323332,990784
5,24,male,Greek,2,108,ITC,loss,10,left,4,ITC_wait,0,undefined,0,0,341,323330,990786
5,24,male,Greek,2,108,ITC,loss,10,left,4,ITC_collect,99,k,0,0,341,323230,990886
5,24,male,Greek,2,108,ITC,loss,10,left,4,ITC_outcome,0,undefined,0,0,345,322223,991893
5,24,male,Greek,2,109,guess,win,10,right,6,guess_start,326,space,0,0,345,321896,992220
5,24,male,Greek,2,109,guess,win,10,right,6,guess_choice,533,j,0,0,345,321359,992757
5,24,male,Greek,2,109,guess,win,10,right,6,guess_outcome,0,undefined,0,0,365,319800,994316
5,24,male,Greek,2,109,ITC,win,10,right,6,ITC_start,24,space,0,0,365,319775,994341
5,24,male,Greek,2,109,ITC,win,10,right,6,ITC_choice,787,f,0,0,365,318987,995129
5,24,male,Greek,2,109,ITC,win,10,right,6,ITC_wait,0,undefined,0,0,365,318985,995131
5,24,male,Greek,2,109,ITC,win,10,right,6,ITC_collect,58,k,0,0,365,318925,995191
5,24,male,Greek,2,109,ITC,win,10,right,6,ITC_outcome,0,undefined,0,0,371,317918,996198
5,24,male,Greek,2,110,guess,loss,10,right,2,guess_start,339,space,0,0,371,317577,996539
5,24,male,Greek,2,110,guess,loss,10,right,2,guess_choice,444,f,0,0,371,317130,996986
5,24,male,Greek,2,110,guess,loss,10,right,2,guess_outcome,0,undefined,0,0,356,315573,998543
5,24,male,Greek,2,110,ITC,loss,10,right,2,ITC_start,430,space,0,0,356,315141,998975
5,24,male,Greek,2,110,ITC,loss,10,right,2,ITC_choice,886,f,0,0,356,314253,999863
5,24,male,Greek,2,110,ITC,loss,10,right,2,ITC_wait,0,undefined,0,0,356,314251,999865
5,24,male,Greek,2,110,ITC,loss,10,right,2,ITC_collect,155,k,0,0,356,314095,1000021
5,24,male,Greek,2,110,ITC,loss,10,right,2,ITC_outcome,0,undefined,0,0,358,313084,1001032
5,24,male,Greek,2,111,guess,loss,5,right,9,guess_start,356,space,0,0,358,312726,1001390
5,24,male,Greek,2,111,guess,loss,5,right,9,guess_choice,512,f,0,0,358,312211,1001905
5,24,male,Greek,2,111,guess,loss,5,right,9,guess_outcome,0,undefined,0,0,343,310644,1003472
5,24,male,Greek,2,111,ITC,loss,5,right,9,ITC_start,188,space,0,0,343,310455,1003661
5,24,male,Greek,2,111,ITC,loss,5,right,9,ITC_choice,844,f,0,0,343,309610,1004506
5,24,male,Greek,2,111,ITC,loss,5,right,9,ITC_wait,0,undefined,0,0,343,309606,1004510
5,24,male,Greek,2,111,ITC,loss,5,right,9,ITC_collect,56,k,0,0,343,309549,1004567
5,24,male,Greek,2,111,ITC,loss,5,right,9,ITC_outcome,0,undefined,0,0,352,308537,1005579
5,24,male,Greek,2,112,guess,neutral,10,right,7,guess_start,207,space,0,0,352,308328,1005788
5,24,male,Greek,2,112,guess,neutral,10,right,7,guess_choice,518,j,0,0,352,307808,1006308
5,24,male,Greek,2,112,guess,neutral,10,right,7,guess_outcome,0,undefined,0,0,352,306248,1007868
5,24,male,Greek,2,112,ITC,neutral,10,right,7,ITC_start,42,space,0,0,352,306204,1007912
5,24,male,Greek,2,112,ITC,neutral,10,right,7,ITC_choice,645,f,0,0,352,305559,1008557
5,24,male,Greek,2,112,ITC,neutral,10,right,7,ITC_wait,0,undefined,0,0,352,305556,1008560
5,24,male,Greek,2,112,ITC,neutral,10,right,7,ITC_collect,52,k,0,0,352,305503,1008613
5,24,male,Greek,2,112,ITC,neutral,10,right,7,ITC_outcome,0,undefined,0,0,359,304498,1009618
5,24,male,Greek,2,113,guess,win,5,right,3,guess_start,217,space,0,0,359,304279,1009837
5,24,male,Greek,2,113,guess,win,5,right,3,guess_choice,475,j,0,0,359,303801,1010315
5,24,male,Greek,2,113,guess,win,5,right,3,guess_outcome,0,undefined,0,0,379,302244,1011872
5,24,male,Greek,2,113,ITC,win,5,right,3,ITC_start,368,space,0,0,379,301873,1012243
5,24,male,Greek,2,113,ITC,win,5,right,3,ITC_choice,2355,j,0,0,379,299517,1014599
5,24,male,Greek,2,113,ITC,win,5,right,3,ITC_wait,0,undefined,0,0,379,294506,1019610
5,24,male,Greek,2,113,ITC,win,5,right,3,ITC_collect,441,k,0,0,379,294063,1020053
5,24,male,Greek,2,113,ITC,win,5,right,3,ITC_outcome,0,undefined,0,0,399,293054,1021062
5,24,male,Greek,2,114,guess,loss,5,left,14,guess_start,332,space,0,0,399,292719,1021397
5,24,male,Greek,2,114,guess,loss,5,left,14,guess_choice,587,j,0,0,399,292129,1021987
5,24,male,Greek,2,114,guess,loss,5,left,14,guess_outcome,0,undefined,0,0,384,290570,1023546
5,24,male,Greek,2,114,ITC,loss,5,left,14,ITC_start,377,space,0,0,384,290192,1023924
5,24,male,Greek,2,114,ITC,loss,5,left,14,ITC_choice,1412,j,0,0,384,288779,1025337
5,24,male,Greek,2,114,ITC,loss,5,left,14,ITC_wait,0,undefined,0,0,384,288776,1025340
5,24,male,Greek,2,114,ITC,loss,5,left,14,ITC_collect,237,k,0,0,384,288538,1025578
5,24,male,Greek,2,114,ITC,loss,5,left,14,ITC_outcome,0,undefined,0,0,398,287526,1026590
5,24,male,Greek,2,115,guess,neutral,5,right,1,guess_start,478,space,0,0,398,287047,1027069
5,24,male,Greek,2,115,guess,neutral,5,right,1,guess_choice,590,f,0,0,398,286454,1027662
5,24,male,Greek,2,115,guess,neutral,5,right,1,guess_outcome,0,undefined,0,0,398,284894,1029222
5,24,male,Greek,2,115,ITC,neutral,5,right,1,ITC_start,481,space,0,0,398,284410,1029706
5,24,male,Greek,2,115,ITC,neutral,5,right,1,ITC_choice,1927,j,0,0,398,282482,1031634
5,24,male,Greek,2,115,ITC,neutral,5,right,1,ITC_wait,0,undefined,0,0,398,277480,1036636
5,24,male,Greek,2,115,ITC,neutral,5,right,1,ITC_collect,374,k,0,0,398,277105,1037011
5,24,male,Greek,2,115,ITC,neutral,5,right,1,ITC_outcome,0,undefined,0,0,418,276090,1038026
5,24,male,Greek,2,116,guess,win,10,left,7,guess_start,365,space,0,0,418,275723,1038393
5,24,male,Greek,2,116,guess,win,10,left,7,guess_choice,487,f,0,0,418,275232,1038884
5,24,male,Greek,2,116,guess,win,10,left,7,guess_outcome,0,undefined,0,0,438,273677,1040439
5,24,male,Greek,2,116,ITC,win,10,left,7,ITC_start,391,space,0,0,438,273285,1040831
5,24,male,Greek,2,116,ITC,win,10,left,7,ITC_choice,709,j,0,0,438,272574,1041542
5,24,male,Greek,2,116,ITC,win,10,left,7,ITC_wait,0,undefined,0,0,438,272572,1041544
5,24,male,Greek,2,116,ITC,win,10,left,7,ITC_collect,75,k,0,0,438,272495,1041621
5,24,male,Greek,2,116,ITC,win,10,left,7,ITC_outcome,0,undefined,0,0,445,271489,1042627
5,24,male,Greek,2,117,guess,loss,5,right,11,guess_start,50,space,0,0,445,271438,1042678
5,24,male,Greek,2,117,guess,loss,5,right,11,guess_choice,506,j,0,0,445,270928,1043188
5,24,male,Greek,2,117,guess,loss,5,right,11,guess_outcome,0,undefined,0,0,430,269368,1044748
5,24,male,Greek,2,117,ITC,loss,5,right,11,ITC_start,100,space,0,0,430,269266,1044850
5,24,male,Greek,2,117,ITC,loss,5,right,11,ITC_choice,608,f,0,0,430,268656,1045460
5,24,male,Greek,2,117,ITC,loss,5,right,11,ITC_wait,0,undefined,0,0,430,268654,1045462
5,24,male,Greek,2,117,ITC,loss,5,right,11,ITC_collect,543,k,0,0,430,268109,1046007
5,24,male,Greek,2,117,ITC,loss,5,right,11,ITC_outcome,0,undefined,0,0,441,267099,1047017
5,24,male,Greek,2,118,guess,win,5,right,1,guess_start,96,space,0,0,441,267001,1047115
5,24,male,Greek,2,118,guess,win,5,right,1,guess_choice,528,j,0,0,441,266469,1047647
5,24,male,Greek,2,118,guess,win,5,right,1,guess_outcome,0,undefined,0,0,461,264912,1049204
5,24,male,Greek,2,118,ITC,win,5,right,1,ITC_start,385,space,0,0,461,264526,1049590
5,24,male,Greek,2,118,ITC,win,5,right,1,ITC_choice,2023,j,0,0,461,262502,1051614
5,24,male,Greek,2,118,ITC,win,5,right,1,ITC_wait,0,undefined,0,0,461,257488,1056628
5,24,male,Greek,2,118,ITC,win,5,right,1,ITC_collect,413,k,0,0,461,257074,1057042
5,24,male,Greek,2,118,ITC,win,5,right,1,ITC_outcome,0,undefined,0,0,481,256061,1058055
5,24,male,Greek,2,119,guess,neutral,10,left,6,guess_start,64,space,0,0,481,255995,1058121
5,24,male,Greek,2,119,guess,neutral,10,left,6,guess_choice,555,j,0,0,481,255436,1058680
5,24,male,Greek,2,119,guess,neutral,10,left,6,guess_outcome,0,undefined,0,0,481,253872,1060244
5,24,male,Greek,2,119,ITC,neutral,10,left,6,ITC_start,507,space,0,0,481,253363,1060753
5,24,male,Greek,2,119,ITC,neutral,10,left,6,ITC_choice,672,j,0,0,481,252689,1061427
5,24,male,Greek,2,119,ITC,neutral,10,left,6,ITC_wait,0,undefined,0,0,481,252687,1061429
5,24,male,Greek,2,119,ITC,neutral,10,left,6,ITC_collect,118,k,0,0,481,252568,1061548
5,24,male,Greek,2,119,ITC,neutral,10,left,6,ITC_outcome,0,undefined,0,0,487,251553,1062563
5,24,male,Greek,2,120,guess,neutral,5,left,3,guess_start,146,space,0,0,487,251404,1062712
5,24,male,Greek,2,120,guess,neutral,5,left,3,guess_choice,532,f,0,0,487,250869,1063247
5,24,male,Greek,2,120,guess,neutral,5,left,3,guess_outcome,0,undefined,0,0,487,249310,1064806
5,24,male,Greek,2,120,ITC,neutral,5,left,3,ITC_start,144,space,0,0,487,249164,1064952
5,24,male,Greek,2,120,ITC,neutral,5,left,3,ITC_choice,1265,j,0,0,487,247899,1066217
5,24,male,Greek,2,120,ITC,neutral,5,left,3,ITC_wait,0,undefined,0,0,487,247896,1066220
5,24,male,Greek,2,120,ITC,neutral,5,left,3,ITC_collect,136,k,0,0,487,247758,1066358
5,24,male,Greek,2,120,ITC,neutral,5,left,3,ITC_outcome,0,undefined,0,0,490,246744,1067372
5,24,male,Greek,2,121,guess,neutral,10,right,3,guess_start,51,space,0,0,490,246690,1067426
5,24,male,Greek,2,121,guess,neutral,10,right,3,guess_choice,545,j,0,0,490,246142,1067974
5,24,male,Greek,2,121,guess,neutral,10,right,3,guess_outcome,0,undefined,0,0,490,244581,1069535
5,24,male,Greek,2,121,ITC,neutral,10,right,3,ITC_start,427,space,0,0,490,244152,1069964
5,24,male,Greek,2,121,ITC,neutral,10,right,3,ITC_choice,1241,f,0,0,490,242910,1071206
5,24,male,Greek,2,121,ITC,neutral,10,right,3,ITC_wait,0,undefined,0,0,490,242907,1071209
5,24,male,Greek,2,121,ITC,neutral,10,right,3,ITC_collect,94,k,0,0,490,242812,1071304
5,24,male,Greek,2,121,ITC,neutral,10,right,3,ITC_outcome,0,undefined,0,0,493,241797,1072319
5,24,male,Greek,2,122,guess,neutral,10,right,8,guess_start,68,space,0,0,493,241727,1072389
5,24,male,Greek,2,122,guess,neutral,10,right,8,guess_choice,629,f,0,0,493,241095,1073021
5,24,male,Greek,2,122,guess,neutral,10,right,8,guess_outcome,0,undefined,0,0,493,239535,1074581
5,24,male,Greek,2,122,ITC,neutral,10,right,8,ITC_start,422,space,0,0,493,239112,1075004
5,24,male,Greek,2,122,ITC,neutral,10,right,8,ITC_choice,805,f,0,0,493,238305,1075811
5,24,male,Greek,2,122,ITC,neutral,10,right,8,ITC_wait,0,undefined,0,0,493,238302,1075814
5,24,male,Greek,2,122,ITC,neutral,10,right,8,ITC_collect,133,k,0,0,493,238167,1075949
5,24,male,Greek,2,122,ITC,neutral,10,right,8,ITC_outcome,0,undefined,0,0,501,237151,1076965
5,24,male,Greek,2,123,guess,neutral,5,left,15,guess_start,97,space,0,0,501,237052,1077064
5,24,male,Greek,2,123,guess,neutral,5,left,15,guess_choice,582,j,0,0,501,236466,1077650
5,24,male,Greek,2,123,guess,neutral,5,left,15,guess_outcome,0,undefined,0,0,501,234902,1079214
5,24,male,Greek,2,123,ITC,neutral,5,left,15,ITC_start,355,space,0,0,501,234545,1079571
5,24,male,Greek,2,123,ITC,neutral,5,left,15,ITC_choice,644,j,0,0,501,233900,1080216
5,24,male,Greek,2,123,ITC,neutral,5,left,15,ITC_wait,0,undefined,0,0,501,233897,1080219
5,24,male,Greek,2,123,ITC,neutral,5,left,15,ITC_collect,101,k,0,0,501,233794,1080322
5,24,male,Greek,2,123,ITC,neutral,5,left,15,ITC_outcome,0,undefined,0,0,516,232777,1081339
5,24,male,Greek,2,124,guess,loss,10,right,7,guess_start,84,space,0,0,516,232691,1081425
5,24,male,Greek,2,124,guess,loss,10,right,7,guess_choice,619,f,0,0,516,232068,1082048
5,24,male,Greek,2,124,guess,loss,10,right,7,guess_outcome,0,undefined,0,0,501,230513,1083603
5,24,male,Greek,2,124,ITC,loss,10,right,7,ITC_start,199,space,0,0,501,230313,1083803
5,24,male,Greek,2,124,ITC,loss,10,right,7,ITC_choice,710,f,0,0,501,229601,1084515
5,24,male,Greek,2,124,ITC,loss,10,right,7,ITC_wait,0,undefined,0,0,501,229599,1084517
5,24,male,Greek,2,124,ITC,loss,10,right,7,ITC_collect,59,k,0,0,501,229538,1084578
5,24,male,Greek,2,124,ITC,loss,10,right,7,ITC_outcome,0,undefined,0,0,508,228522,1085594
5,24,male,Greek,2,125,guess,loss,5,right,13,guess_start,242,space,0,0,508,228278,1085838
5,24,male,Greek,2,125,guess,loss,5,right,13,guess_choice,532,j,0,0,508,227742,1086374
5,24,male,Greek,2,125,guess,loss,5,right,13,guess_outcome,0,undefined,0,0,493,226184,1087932
5,24,male,Greek,2,125,ITC,loss,5,right,13,ITC_start,85,space,0,0,493,226098,1088018
5,24,male,Greek,2,125,ITC,loss,5,right,13,ITC_wait,0,undefined,0,0,493,225463,1088653
5,24,male,Greek,2,125,ITC,loss,5,right,13,ITC_choice,631,f,0,0,493,225466,1088650
5,24,male,Greek,2,125,ITC,loss,5,right,13,ITC_collect,112,k,0,0,493,225349,1088767
5,24,male,Greek,2,125,ITC,loss,5,right,13,ITC_outcome,0,undefined,0,0,506,224333,1089783
5,24,male,Greek,2,126,guess,loss,5,right,7,guess_start,122,space,0,0,506,224209,1089907
5,24,male,Greek,2,126,guess,loss,5,right,7,guess_choice,600,j,0,0,506,223607,1090509
5,24,male,Greek,2,126,guess,loss,5,right,7,guess_outcome,0,undefined,0,0,491,222042,1092074
5,24,male,Greek,2,126,ITC,loss,5,right,7,ITC_start,335,space,0,0,491,221706,1092410
5,24,male,Greek,2,126,ITC,loss,5,right,7,ITC_choice,576,f,0,0,491,221129,1092987
5,24,male,Greek,2,126,ITC,loss,5,right,7,ITC_wait,0,undefined,0,0,491,221126,1092990
5,24,male,Greek,2,126,ITC,loss,5,right,7,ITC_collect,112,k,0,0,491,221013,1093103
5,24,male,Greek,2,126,ITC,loss,5,right,7,ITC_outcome,0,undefined,0,0,498,220004,1094112
5,24,male,Greek,2,127,guess,neutral,5,left,12,guess_start,238,space,0,0,498,219765,1094351
5,24,male,Greek,2,127,guess,neutral,5,left,12,guess_choice,651,f,0,0,498,219111,1095005
5,24,male,Greek,2,127,guess,neutral,5,left,12,guess_outcome,0,undefined,0,0,498,217554,1096562
5,24,male,Greek,2,127,ITC,neutral,5,left,12,ITC_start,86,space,0,0,498,217467,1096649
5,24,male,Greek,2,127,ITC,neutral,5,left,12,ITC_choice,814,j,0,0,498,216651,1097465
5,24,male,Greek,2,127,ITC,neutral,5,left,12,ITC_wait,0,undefined,0,0,498,216649,1097467
5,24,male,Greek,2,127,ITC,neutral,5,left,12,ITC_collect,102,k,0,0,498,216545,1097571
5,24,male,Greek,2,127,ITC,neutral,5,left,12,ITC_outcome,0,undefined,0,0,510,215533,1098583
5,24,male,Greek,2,128,guess,loss,5,right,16,guess_start,87,space,0,0,510,215444,1098672
5,24,male,Greek,2,128,guess,loss,5,right,16,guess_choice,488,f,0,0,510,214954,1099162
5,24,male,Greek,2,128,guess,loss,5,right,16,guess_outcome,0,undefined,0,0,495,213387,1100729
5,24,male,Greek,2,128,ITC,loss,5,right,16,ITC_start,17,space,0,0,495,213369,1100747
5,24,male,Greek,2,128,ITC,loss,5,right,16,ITC_choice,638,f,0,0,495,212730,1101386
5,24,male,Greek,2,128,ITC,loss,5,right,16,ITC_wait,0,undefined,0,0,495,212727,1101389
5,24,male,Greek,2,128,ITC,loss,5,right,16,ITC_collect,62,k,0,0,495,212663,1101453
5,24,male,Greek,2,128,ITC,loss,5,right,16,ITC_outcome,0,undefined,0,0,511,211658,1102458
5,24,male,Greek,2,129,guess,neutral,5,right,8,guess_start,22,space,0,0,511,211635,1102481
5,24,male,Greek,2,129,guess,neutral,5,right,8,guess_choice,589,j,0,0,511,211042,1103074
5,24,male,Greek,2,129,guess,neutral,5,right,8,guess_outcome,0,undefined,0,0,511,209487,1104629
5,24,male,Greek,2,129,ITC,neutral,5,right,8,ITC_start,497,space,0,0,511,208989,1105127
5,24,male,Greek,2,129,ITC,neutral,5,right,8,ITC_choice,672,f,0,0,511,208316,1105800
5,24,male,Greek,2,129,ITC,neutral,5,right,8,ITC_wait,0,undefined,0,0,511,208312,1105804
5,24,male,Greek,2,129,ITC,neutral,5,right,8,ITC_collect,40,k,0,0,511,208270,1105846
5,24,male,Greek,2,129,ITC,neutral,5,right,8,ITC_outcome,0,undefined,0,0,519,207261,1106855
5,24,male,Greek,2,130,guess,neutral,5,right,5,guess_start,509,space,0,0,519,206750,1107366
5,24,male,Greek,2,130,guess,neutral,5,right,5,guess_choice,301,j,0,0,519,206447,1107669
5,24,male,Greek,2,130,guess,neutral,5,right,5,guess_outcome,0,undefined,0,0,519,204882,1109234
5,24,male,Greek,2,130,ITC,neutral,5,right,5,ITC_start,394,space,0,0,519,204487,1109629
5,24,male,Greek,2,130,ITC,neutral,5,right,5,ITC_choice,801,f,0,0,519,203684,1110432
5,24,male,Greek,2,130,ITC,neutral,5,right,5,ITC_wait,0,undefined,0,0,519,203682,1110434
5,24,male,Greek,2,130,ITC,neutral,5,right,5,ITC_collect,126,k,0,0,519,203554,1110562
5,24,male,Greek,2,130,ITC,neutral,5,right,5,ITC_outcome,0,undefined,0,0,524,202547,1111569
5,24,male,Greek,2,131,guess,neutral,5,left,6,guess_start,354,space,0,0,524,202191,1111925
5,24,male,Greek,2,131,guess,neutral,5,left,6,guess_choice,714,j,0,0,524,201473,1112643
5,24,male,Greek,2,131,guess,neutral,5,left,6,guess_outcome,0,undefined,0,0,524,199914,1114202
5,24,male,Greek,2,131,ITC,neutral,5,left,6,ITC_start,712,space,0,0,524,199200,1114916
5,24,male,Greek,2,131,ITC,neutral,5,left,6,ITC_choice,668,j,0,0,524,198531,1115585
5,24,male,Greek,2,131,ITC,neutral,5,left,6,ITC_wait,0,undefined,0,0,524,198527,1115589
5,24,male,Greek,2,131,ITC,neutral,5,left,6,ITC_collect,101,k,0,0,524,198425,1115691
5,24,male,Greek,2,131,ITC,neutral,5,left,6,ITC_outcome,0,undefined,0,0,530,197421,1116695
5,24,male,Greek,2,132,guess,loss,5,right,10,guess_start,245,space,0,0,530,197174,1116942
5,24,male,Greek,2,132,guess,loss,5,right,10,guess_choice,531,j,0,0,530,196640,1117476
5,24,male,Greek,2,132,guess,loss,5,right,10,guess_outcome,0,undefined,0,0,515,195084,1119032
5,24,male,Greek,2,132,ITC,loss,5,right,10,ITC_start,255,space,0,0,515,194828,1119288
5,24,male,Greek,2,132,ITC,loss,5,right,10,ITC_wait,0,undefined,0,0,515,194237,1119879
5,24,male,Greek,2,132,ITC,loss,5,right,10,ITC_choice,587,f,0,0,515,194239,1119877
5,24,male,Greek,2,132,ITC,loss,5,right,10,ITC_collect,103,k,0,0,515,194132,1119984
5,24,male,Greek,2,132,ITC,loss,5,right,10,ITC_outcome,0,undefined,0,0,525,193118,1120998
5,24,male,Greek,2,133,guess,loss,5,right,2,guess_start,262,space,0,0,525,192854,1121262
5,24,male,Greek,2,133,guess,loss,5,right,2,guess_choice,391,f,0,0,525,192461,1121655
5,24,male,Greek,2,133,guess,loss,5,right,2,guess_outcome,0,undefined,0,0,510,190900,1123216
5,24,male,Greek,2,133,ITC,loss,5,right,2,ITC_start,342,space,0,0,510,190557,1123559
5,24,male,Greek,2,133,ITC,loss,5,right,2,ITC_choice,641,f,0,0,510,189913,1124203
5,24,male,Greek,2,133,ITC,loss,5,right,2,ITC_wait,0,undefined,0,0,510,189910,1124206
5,24,male,Greek,2,133,ITC,loss,5,right,2,ITC_collect,82,k,0,0,510,189826,1124290
5,24,male,Greek,2,133,ITC,loss,5,right,2,ITC_outcome,0,undefined,0,0,512,188822,1125294
5,24,male,Greek,2,134,guess,win,5,left,12,guess_start,144,space,0,0,512,188677,1125439
5,24,male,Greek,2,134,guess,win,5,left,12,guess_choice,519,j,0,0,512,188155,1125961
5,24,male,Greek,2,134,guess,win,5,left,12,guess_outcome,0,undefined,0,0,532,186593,1127523
5,24,male,Greek,2,134,ITC,win,5,left,12,ITC_start,129,space,0,0,532,186463,1127653
5,24,male,Greek,2,134,ITC,win,5,left,12,ITC_choice,615,j,0,0,532,185847,1128269
5,24,male,Greek,2,134,ITC,win,5,left,12,ITC_wait,0,undefined,0,0,532,185844,1128272
5,24,male,Greek,2,134,ITC,win,5,left,12,ITC_collect,92,k,0,0,532,185750,1128366
5,24,male,Greek,2,134,ITC,win,5,left,12,ITC_outcome,0,undefined,0,0,544,184745,1129371
5,24,male,Greek,2,135,guess,neutral,5,right,10,guess_start,262,space,0,0,544,184480,1129636
5,24,male,Greek,2,135,guess,neutral,5,right,10,guess_choice,552,f,0,0,544,183926,1130190
5,24,male,Greek,2,135,guess,neutral,5,right,10,guess_outcome,0,undefined,0,0,544,182359,1131757
5,24,male,Greek,2,135,ITC,neutral,5,right,10,ITC_start,45,space,0,0,544,182312,1131804
5,24,male,Greek,2,135,ITC,neutral,5,right,10,ITC_wait,0,undefined,0,0,544,181629,1132487
5,24,male,Greek,2,135,ITC,neutral,5,right,10,ITC_choice,679,f,0,0,544,181631,1132485
5,24,male,Greek,2,135,ITC,neutral,5,right,10,ITC_collect,98,k,0,0,544,181528,1132588
5,24,male,Greek,2,135,ITC,neutral,5,right,10,ITC_outcome,0,undefined,0,0,554,180524,1133592
5,24,male,Greek,2,136,guess,neutral,5,left,2,guess_start,328,space,0,0,554,180194,1133922
5,24,male,Greek,2,136,guess,neutral,5,left,2,guess_choice,616,j,0,0,554,179575,1134541
5,24,male,Greek,2,136,guess,neutral,5,left,2,guess_outcome,0,undefined,0,0,554,178012,1136104
5,24,male,Greek,2,136,ITC,neutral,5,left,2,ITC_start,405,space,0,0,554,177605,1136511
5,24,male,Greek,2,136,ITC,neutral,5,left,2,ITC_choice,1243,j,0,0,554,176360,1137756
5,24,male,Greek,2,136,ITC,neutral,5,left,2,ITC_wait,0,undefined,0,0,554,176358,1137758
5,24,male,Greek,2,136,ITC,neutral,5,left,2,ITC_collect,105,k,0,0,554,176251,1137865
5,24,male,Greek,2,136,ITC,neutral,5,left,2,ITC_outcome,0,undefined,0,0,556,175240,1138876
5,24,male,Greek,2,137,guess,win,5,right,10,guess_start,263,space,0,0,556,174975,1139141
5,24,male,Greek,2,137,guess,win,5,right,10,guess_choice,563,j,0,0,556,174409,1139707
5,24,male,Greek,2,137,guess,win,5,right,10,guess_outcome,0,undefined,0,0,576,172853,1141263
5,24,male,Greek,2,137,ITC,win,5,right,10,ITC_start,129,space,0,0,576,172722,1141394
5,24,male,Greek,2,137,ITC,win,5,right,10,ITC_choice,586,f,0,0,576,172135,1141981
5,24,male,Greek,2,137,ITC,win,5,right,10,ITC_wait,0,undefined,0,0,576,172132,1141984
5,24,male,Greek,2,137,ITC,win,5,right,10,ITC_collect,159,k,0,0,576,171972,1142144
5,24,male,Greek,2,137,ITC,win,5,right,10,ITC_outcome,0,undefined,0,0,586,170962,1143154
5,24,male,Greek,2,138,guess,win,10,right,5,guess_start,28,space,0,0,586,170932,1143184
5,24,male,Greek,2,138,guess,win,10,right,5,guess_choice,582,f,0,0,586,170346,1143770
5,24,male,Greek,2,138,guess,win,10,right,5,guess_outcome,0,undefined,0,0,606,168790,1145326
5,24,male,Greek,2,138,ITC,win,10,right,5,ITC_start,130,space,0,0,606,168659,1145457
5,24,male,Greek,2,138,ITC,win,10,right,5,ITC_choice,685,f,0,0,606,167973,1146143
5,24,male,Greek,2,138,ITC,win,10,right,5,ITC_wait,0,undefined,0,0,606,167971,1146145
5,24,male,Greek,2,138,ITC,win,10,right,5,ITC_collect,59,k,0,0,606,167910,1146206
5,24,male,Greek,2,138,ITC,win,10,right,5,ITC_outcome,0,undefined,0,0,611,166903,1147213
5,24,male,Greek,2,139,guess,loss,5,right,1,guess_start,166,space,0,0,611,166734,1147382
5,24,male,Greek,2,139,guess,loss,5,right,1,guess_choice,770,f,0,0,611,165961,1148155
5,24,male,Greek,2,139,guess,loss,5,right,1,guess_outcome,0,undefined,0,0,596,164399,1149717
5,24,male,Greek,2,139,ITC,loss,5,right,1,ITC_start,347,space,0,0,596,164051,1150065
5,24,male,Greek,2,139,ITC,loss,5,right,1,ITC_choice,1660,j,0,0,596,162389,1151727
5,24,male,Greek,2,139,ITC,loss,5,right,1,ITC_wait,0,undefined,0,0,596,157379,1156737
5,24,male,Greek,2,139,ITC,loss,5,right,1,ITC_collect,1130,k,0,0,596,156248,1157868
5,24,male,Greek,2,139,ITC,loss,5,right,1,ITC_outcome,0,undefined,0,0,616,155235,1158881
5,24,male,Greek,2,140,guess,loss,10,right,1,guess_start,339,space,0,0,616,154893,1159223
5,24,male,Greek,2,140,guess,loss,10,right,1,guess_choice,403,f,0,0,616,154487,1159629
5,24,male,Greek,2,140,guess,loss,10,right,1,guess_outcome,0,undefined,0,0,601,152920,1161196
5,24,male,Greek,2,140,ITC,loss,10,right,1,ITC_start,10,space,0,0,601,152909,1161207
5,24,male,Greek,2,140,ITC,loss,10,right,1,ITC_choice,1063,f,0,0,601,151845,1162271
5,24,male,Greek,2,140,ITC,loss,10,right,1,ITC_wait,0,undefined,0,0,601,151841,1162275
5,24,male,Greek,2,140,ITC,loss,10,right,1,ITC_collect,310,k,0,0,601,151529,1162587
5,24,male,Greek,2,140,ITC,loss,10,right,1,ITC_outcome,0,undefined,0,0,602,150516,1163600
5,24,male,Greek,2,141,guess,win,5,left,15,guess_start,334,space,0,0,602,150180,1163936
5,24,male,Greek,2,141,guess,win,5,left,15,guess_choice,538,f,0,0,602,149639,1164477
5,24,male,Greek,2,141,guess,win,5,left,15,guess_outcome,0,undefined,0,0,622,148073,1166043
5,24,male,Greek,2,141,ITC,win,5,left,15,ITC_start,254,space,0,0,622,147817,1166299
5,24,male,Greek,2,141,ITC,win,5,left,15,ITC_choice,625,j,0,0,622,147191,1166925
5,24,male,Greek,2,141,ITC,win,5,left,15,ITC_wait,0,undefined,0,0,622,147188,1166928
5,24,male,Greek,2,141,ITC,win,5,left,15,ITC_collect,91,k,0,0,622,147095,1167021
5,24,male,Greek,2,141,ITC,win,5,left,15,ITC_outcome,0,undefined,0,0,637,146086,1168030
5,24,male,Greek,2,142,guess,win,10,right,4,guess_start,95,space,0,0,637,145988,1168128
5,24,male,Greek,2,142,guess,win,10,right,4,guess_choice,536,f,0,0,637,145449,1168667
5,24,male,Greek,2,142,guess,win,10,right,4,guess_outcome,0,undefined,0,0,657,143892,1170224
5,24,male,Greek,2,142,ITC,win,10,right,4,ITC_start,53,space,0,0,657,143838,1170278
5,24,male,Greek,2,142,ITC,win,10,right,4,ITC_wait,0,undefined,0,0,657,143091,1171025
5,24,male,Greek,2,142,ITC,win,10,right,4,ITC_choice,743,f,0,0,657,143093,1171023
5,24,male,Greek,2,142,ITC,win,10,right,4,ITC_collect,104,k,0,0,657,142985,1171131
5,24,male,Greek,2,142,ITC,win,10,right,4,ITC_outcome,0,undefined,0,0,661,141974,1172142
5,24,male,Greek,2,143,guess,win,5,right,8,guess_start,289,space,0,0,661,141683,1172433
5,24,male,Greek,2,143,guess,win,5,right,8,guess_choice,438,j,0,0,661,141242,1172874
5,24,male,Greek,2,143,guess,win,5,right,8,guess_outcome,0,undefined,0,0,681,139681,1174435
5,24,male,Greek,2,143,ITC,win,5,right,8,ITC_start,162,space,0,0,681,139518,1174598
5,24,male,Greek,2,143,ITC,win,5,right,8,ITC_choice,873,f,0,0,681,138644,1175472
5,24,male,Greek,2,143,ITC,win,5,right,8,ITC_wait,0,undefined,0,0,681,138641,1175475
5,24,male,Greek,2,143,ITC,win,5,right,8,ITC_collect,72,k,0,0,681,138567,1175549
5,24,male,Greek,2,143,ITC,win,5,right,8,ITC_outcome,0,undefined,0,0,689,137550,1176566
5,24,male,Greek,2,144,guess,win,10,left,1,guess_start,361,space,0,0,689,137187,1176929
5,24,male,Greek,2,144,guess,win,10,left,1,guess_choice,465,f,0,0,689,136719,1177397
5,24,male,Greek,2,144,guess,win,10,left,1,guess_outcome,0,undefined,0,0,709,135157,1178959
5,24,male,Greek,2,144,ITC,win,10,left,1,ITC_start,235,space,0,0,709,134920,1179196
5,24,male,Greek,2,144,ITC,win,10,left,1,ITC_choice,666,j,0,0,709,134253,1179863
5,24,male,Greek,2,144,ITC,win,10,left,1,ITC_wait,0,undefined,0,0,709,134250,1179866
5,24,male,Greek,2,144,ITC,win,10,left,1,ITC_collect,88,k,0,0,709,134161,1179955
5,24,male,Greek,2,144,ITC,win,10,left,1,ITC_outcome,0,undefined,0,0,710,133151,1180965
5,24,male,Greek,2,145,guess,loss,5,right,15,guess_start,22,space,0,0,710,133127,1180989
5,24,male,Greek,2,145,guess,loss,5,right,15,guess_choice,478,f,0,0,710,132646,1181470
5,24,male,Greek,2,145,guess,loss,5,right,15,guess_outcome,0,undefined,0,0,695,131083,1183033
5,24,male,Greek,2,145,ITC,loss,5,right,15,ITC_start,25,space,0,0,695,131056,1183060
5,24,male,Greek,2,145,ITC,loss,5,right,15,ITC_choice,834,f,0,0,695,130221,1183895
5,24,male,Greek,2,145,ITC,loss,5,right,15,ITC_wait,0,undefined,0,0,695,130219,1183897
5,24,male,Greek,2,145,ITC,loss,5,right,15,ITC_collect,76,k,0,0,695,130142,1183974
5,24,male,Greek,2,145,ITC,loss,5,right,15,ITC_outcome,0,undefined,0,0,710,129138,1184978
5,24,male,Greek,2,146,guess,neutral,5,right,15,guess_start,213,space,0,0,710,128923,1185193
5,24,male,Greek,2,146,guess,neutral,5,right,15,guess_choice,523,f,0,0,710,128398,1185718
5,24,male,Greek,2,146,guess,neutral,5,right,15,guess_outcome,0,undefined,0,0,710,126830,1187286
5,24,male,Greek,2,146,ITC,neutral,5,right,15,ITC_start,312,space,0,0,710,126517,1187599
5,24,male,Greek,2,146,ITC,neutral,5,right,15,ITC_choice,548,f,0,0,710,125967,1188149
5,24,male,Greek,2,146,ITC,neutral,5,right,15,ITC_wait,0,undefined,0,0,710,125964,1188152
5,24,male,Greek,2,146,ITC,neutral,5,right,15,ITC_collect,140,k,0,0,710,125823,1188293
5,24,male,Greek,2,146,ITC,neutral,5,right,15,ITC_outcome,0,undefined,0,0,725,124813,1189303
5,24,male,Greek,2,147,guess,loss,5,right,4,guess_start,279,space,0,0,725,124533,1189583
5,24,male,Greek,2,147,guess,loss,5,right,4,guess_choice,646,f,0,0,725,123884,1190232
5,24,male,Greek,2,147,guess,loss,5,right,4,guess_outcome,0,undefined,0,0,710,122330,1191786
5,24,male,Greek,2,147,ITC,loss,5,right,4,ITC_start,165,space,0,0,710,122163,1191953
5,24,male,Greek,2,147,ITC,loss,5,right,4,ITC_wait,0,undefined,0,0,710,121610,1192506
5,24,male,Greek,2,147,ITC,loss,5,right,4,ITC_choice,550,f,0,0,710,121612,1192504
5,24,male,Greek,2,147,ITC,loss,5,right,4,ITC_collect,59,k,0,0,710,121549,1192567
5,24,male,Greek,2,147,ITC,loss,5,right,4,ITC_outcome,0,undefined,0,0,714,120537,1193579
5,24,male,Greek,2,148,guess,neutral,5,right,11,guess_start,214,space,0,0,714,120322,1193794
5,24,male,Greek,2,148,guess,neutral,5,right,11,guess_choice,523,f,0,0,714,119796,1194320
5,24,male,Greek,2,148,guess,neutral,5,right,11,guess_outcome,0,undefined,0,0,714,118241,1195875
5,24,male,Greek,2,148,ITC,neutral,5,right,11,ITC_start,215,space,0,0,714,118025,1196091
5,24,male,Greek,2,148,ITC,neutral,5,right,11,ITC_choice,514,f,0,0,714,117509,1196607
5,24,male,Greek,2,148,ITC,neutral,5,right,11,ITC_wait,0,undefined,0,0,714,117506,1196610
