subjectID,age,gender,nationality,block_number,trial_number,trial_type,guess_outcome,delay_time,delay_pos,immediate_amount,stage,respRT,respKey,blur_count,focus_count,total_points,remaining_duration,time_elapsed
43,18,female,Belg,1,1,guess,neutral,10,left,8,guess_start,2684,space,0,0,0,477315,386829
43,18,female,Belg,1,1,guess,neutral,10,left,8,guess_choice,1236,f,0,0,0,476075,388069
43,18,female,Belg,1,1,guess,neutral,10,left,8,guess_outcome,0,undefined,0,0,0,474515,389629
43,18,female,Belg,1,1,ITC,neutral,10,left,8,ITC_start,4718,space,0,0,0,469795,394349
43,18,female,Belg,1,1,ITC,neutral,10,left,8,ITC_choice,1877,f,0,0,0,467915,396229
43,18,female,Belg,1,1,ITC,neutral,10,left,8,ITC_wait,0,undefined,0,0,0,457900,406244
43,18,female,Belg,1,1,ITC,neutral,10,left,8,ITC_collect,2640,k,0,0,0,455258,408886
43,18,female,Belg,1,1,ITC,neutral,10,left,8,ITC_outcome,0,undefined,0,0,20,454242,409902
43,18,female,Belg,1,2,guess,neutral,5,right,14,guess_start,1412,space,0,0,20,452827,411317
43,18,female,Belg,1,2,guess,neutral,5,right,14,guess_choice,774,f,0,0,20,452051,412093
43,18,female,Belg,1,2,guess,neutral,5,right,14,guess_outcome,0,undefined,0,0,20,450495,413649
43,18,female,Belg,1,2,ITC,neutral,5,right,14,ITC_start,1426,space,0,0,20,449067,415077
43,18,female,Belg,1,2,ITC,neutral,5,right,14,ITC_choice,1910,j,0,0,20,447156,416988
43,18,female,Belg,1,2,ITC,neutral,5,right,14,ITC_wait,0,undefined,0,0,20,442138,422006
43,18,female,Belg,1,2,ITC,neutral,5,right,14,ITC_collect,1078,k,0,0,20,441058,423086
43,18,female,Belg,1,2,ITC,neutral,5,right,14,ITC_outcome,0,undefined,0,0,40,440043,424101
43,18,female,Belg,1,3,guess,neutral,10,left,1,guess_start,1078,space,0,0,40,438963,425181
43,18,female,Belg,1,3,guess,neutral,10,left,1,guess_choice,860,j,0,0,40,438099,426045
43,18,female,Belg,1,3,guess,neutral,10,left,1,guess_outcome,0,undefined,0,0,40,436542,427602
43,18,female,Belg,1,3,ITC,neutral,10,left,1,ITC_start,2409,space,0,0,40,434131,430013
43,18,female,Belg,1,3,ITC,neutral,10,left,1,ITC_choice,1432,f,0,0,40,432699,431445
43,18,female,Belg,1,3,ITC,neutral,10,left,1,ITC_wait,0,undefined,0,0,40,422693,441451
43,18,female,Belg,1,3,ITC,neutral,10,left,1,ITC_collect,489,k,0,0,40,422202,441942
43,18,female,Belg,1,3,ITC,neutral,10,left,1,ITC_outcome,0,undefined,0,0,60,421184,442960
43,18,female,Belg,1,4,guess,neutral,10,left,3,guess_start,987,space,0,0,60,420195,443949
43,18,female,Belg,1,4,guess,neutral,10,left,3,guess_choice,741,f,0,0,60,419451,444693
43,18,female,Belg,1,4,guess,neutral,10,left,3,guess_outcome,0,undefined,0,0,60,417887,446257
43,18,female,Belg,1,4,ITC,neutral,10,left,3,ITC_start,1291,space,0,0,60,416595,447549
43,18,female,Belg,1,4,ITC,neutral,10,left,3,ITC_choice,1831,f,0,0,60,414763,449381
43,18,female,Belg,1,4,ITC,neutral,10,left,3,ITC_wait,0,undefined,0,0,60,404747,459397
43,18,female,Belg,1,4,ITC,neutral,10,left,3,ITC_collect,1455,k,0,0,60,403290,460854
43,18,female,Belg,1,4,ITC,neutral,10,left,3,ITC_outcome,0,undefined,0,0,80,402279,461865
43,18,female,Belg,1,5,guess,loss,5,left,11,guess_start,1523,space,0,0,80,400755,463389
43,18,female,Belg,1,5,guess,loss,5,left,11,guess_choice,1270,j,0,0,80,399482,464662
43,18,female,Belg,1,5,guess,loss,5,left,11,guess_outcome,0,undefined,0,0,65,397926,466218
43,18,female,Belg,1,5,ITC,loss,5,left,11,ITC_start,1442,space,0,0,65,396483,467661
43,18,female,Belg,1,5,ITC,loss,5,left,11,ITC_choice,1174,f,0,0,65,395307,468837
43,18,female,Belg,1,5,ITC,loss,5,left,11,ITC_wait,0,undefined,0,0,65,390305,473839
43,18,female,Belg,1,5,ITC,loss,5,left,11,ITC_collect,1564,k,0,0,65,388739,475405
43,18,female,Belg,1,5,ITC,loss,5,left,11,ITC_outcome,0,undefined,0,0,85,387728,476416
43,18,female,Belg,1,6,guess,neutral,10,left,2,guess_start,1629,space,0,0,85,386098,478046
43,18,female,Belg,1,6,guess,neutral,10,left,2,guess_choice,1101,j,0,0,85,384994,479150
43,18,female,Belg,1,6,guess,neutral,10,left,2,guess_outcome,0,undefined,0,0,85,383437,480707
43,18,female,Belg,1,6,ITC,neutral,10,left,2,ITC_start,1250,space,0,0,85,382186,481958
43,18,female,Belg,1,6,ITC,neutral,10,left,2,ITC_choice,1350,f,0,0,85,380835,483309
43,18,female,Belg,1,6,ITC,neutral,10,left,2,ITC_wait,0,undefined,0,0,85,370826,493318
43,18,female,Belg,1,6,ITC,neutral,10,left,2,ITC_collect,670,k,0,0,85,370154,493990
43,18,female,Belg,1,6,ITC,neutral,10,left,2,ITC_outcome,0,undefined,0,0,105,369147,494997
43,18,female,Belg,1,7,guess,neutral,5,right,12,guess_start,734,space,0,0,105,368411,495733
43,18,female,Belg,1,7,guess,neutral,5,right,12,guess_choice,1110,j,0,0,105,367299,496845
43,18,female,Belg,1,7,guess,neutral,5,right,12,guess_outcome,0,undefined,0,0,105,365737,498407
43,18,female,Belg,1,7,ITC,neutral,5,right,12,ITC_start,2189,space,0,0,105,363546,500598
43,18,female,Belg,1,7,ITC,neutral,5,right,12,ITC_choice,1070,j,0,0,105,362474,501670
43,18,female,Belg,1,7,ITC,neutral,5,right,12,ITC_wait,0,undefined,0,0,105,357461,506683
43,18,female,Belg,1,7,ITC,neutral,5,right,12,ITC_collect,2017,k,0,0,105,355442,508702
43,18,female,Belg,1,7,ITC,neutral,5,right,12,ITC_outcome,0,undefined,0,0,125,354427,509717
43,18,female,Belg,1,8,guess,loss,5,right,4,guess_start,727,space,0,0,125,353699,510445
43,18,female,Belg,1,8,guess,loss,5,right,4,guess_choice,918,f,0,0,125,352778,511366
43,18,female,Belg,1,8,guess,loss,5,right,4,guess_outcome,0,undefined,0,0,110,351212,512932
43,18,female,Belg,1,8,ITC,loss,5,right,4,ITC_start,832,space,0,0,110,350379,513765
43,18,female,Belg,1,8,ITC,loss,5,right,4,ITC_choice,1231,j,0,0,110,349146,514998
43,18,female,Belg,1,8,ITC,loss,5,right,4,ITC_wait,0,undefined,0,0,110,344134,520010
43,18,female,Belg,1,8,ITC,loss,5,right,4,ITC_collect,475,k,0,0,110,343657,520487
43,18,female,Belg,1,8,ITC,loss,5,right,4,ITC_outcome,0,undefined,0,0,130,342644,521500
43,18,female,Belg,1,9,guess,neutral,10,left,6,guess_start,744,space,0,0,130,341898,522246
43,18,female,Belg,1,9,guess,neutral,10,left,6,guess_choice,741,f,0,0,130,341155,522989
43,18,female,Belg,1,9,guess,neutral,10,left,6,guess_outcome,0,undefined,0,0,130,339586,524558
43,18,female,Belg,1,9,ITC,neutral,10,left,6,ITC_start,1831,space,0,0,130,337754,526390
43,18,female,Belg,1,9,ITC,neutral,10,left,6,ITC_choice,1046,f,0,0,130,336707,527437
43,18,female,Belg,1,9,ITC,neutral,10,left,6,ITC_wait,0,undefined,0,0,130,326695,537449
43,18,female,Belg,1,9,ITC,neutral,10,left,6,ITC_collect,2348,k,0,0,130,324346,539798
43,18,female,Belg,1,9,ITC,neutral,10,left,6,ITC_outcome,0,undefined,0,0,150,323336,540808
43,18,female,Belg,1,10,guess,loss,5,left,12,guess_start,796,space,0,0,150,322539,541605
43,18,female,Belg,1,10,guess,loss,5,left,12,guess_choice,973,j,0,0,150,321563,542581
43,18,female,Belg,1,10,guess,loss,5,left,12,guess_outcome,0,undefined,0,0,135,320006,544138
43,18,female,Belg,1,10,ITC,loss,5,left,12,ITC_start,1162,space,0,0,135,318843,545301
43,18,female,Belg,1,10,ITC,loss,5,left,12,ITC_choice,1231,j,0,0,135,317610,546534
43,18,female,Belg,1,10,ITC,loss,5,left,12,ITC_wait,0,undefined,0,0,135,317607,546537
43,18,female,Belg,1,10,ITC,loss,5,left,12,ITC_collect,2523,k,0,0,135,315083,549061
43,18,female,Belg,1,10,ITC,loss,5,left,12,ITC_outcome,0,undefined,0,0,147,314067,550077
43,18,female,Belg,1,11,guess,loss,10,left,1,guess_start,1135,space,0,0,147,312931,551213
43,18,female,Belg,1,11,guess,loss,10,left,1,guess_choice,1110,j,0,0,147,311818,552326
43,18,female,Belg,1,11,guess,loss,10,left,1,guess_outcome,0,undefined,0,0,132,310262,553882
43,18,female,Belg,1,11,ITC,loss,10,left,1,ITC_start,633,space,0,0,132,309627,554517
43,18,female,Belg,1,11,ITC,loss,10,left,1,ITC_choice,1143,f,0,0,132,308482,555662
43,18,female,Belg,1,11,ITC,loss,10,left,1,ITC_wait,0,undefined,0,0,132,298467,565677
43,18,female,Belg,1,11,ITC,loss,10,left,1,ITC_collect,368,k,0,0,132,298098,566046
43,18,female,Belg,1,11,ITC,loss,10,left,1,ITC_outcome,0,undefined,0,0,152,297081,567063
43,18,female,Belg,1,12,guess,win,5,left,10,guess_start,398,space,0,0,152,296682,567462
43,18,female,Belg,1,12,guess,win,5,left,10,guess_choice,790,f,0,0,152,295891,568253
43,18,female,Belg,1,12,guess,win,5,left,10,guess_outcome,0,undefined,0,0,172,294329,569815
43,18,female,Belg,1,12,ITC,win,5,left,10,ITC_start,1005,space,0,0,172,293323,570821
43,18,female,Belg,1,12,ITC,win,5,left,10,ITC_choice,1336,j,0,0,172,291986,572158
43,18,female,Belg,1,12,ITC,win,5,left,10,ITC_wait,0,undefined,0,0,172,291982,572162
43,18,female,Belg,1,12,ITC,win,5,left,10,ITC_collect,2546,k,0,0,172,289435,574709
43,18,female,Belg,1,12,ITC,win,5,left,10,ITC_outcome,0,undefined,0,0,182,288430,575714
43,18,female,Belg,1,13,guess,neutral,10,left,5,guess_start,482,space,0,0,182,287947,576197
43,18,female,Belg,1,13,guess,neutral,10,left,5,guess_choice,950,f,0,0,182,286994,577150
43,18,female,Belg,1,13,guess,neutral,10,left,5,guess_outcome,0,undefined,0,0,182,285429,578715
43,18,female,Belg,1,13,ITC,neutral,10,left,5,ITC_start,265,space,0,0,182,285163,578981
43,18,female,Belg,1,13,ITC,neutral,10,left,5,ITC_choice,871,f,0,0,182,284291,579853
43,18,female,Belg,1,13,ITC,neutral,10,left,5,ITC_wait,0,undefined,0,0,182,274276,589868
43,18,female,Belg,1,13,ITC,neutral,10,left,5,ITC_collect,345,k,0,0,182,273930,590214
43,18,female,Belg,1,13,ITC,neutral,10,left,5,ITC_outcome,0,undefined,0,0,202,272925,591219
43,18,female,Belg,1,14,guess,loss,10,right,8,guess_start,577,space,0,0,202,272347,591797
43,18,female,Belg,1,14,guess,loss,10,right,8,guess_choice,741,f,0,0,202,271602,592542
43,18,female,Belg,1,14,guess,loss,10,right,8,guess_outcome,0,undefined,0,0,187,270039,594105
43,18,female,Belg,1,14,ITC,loss,10,right,8,ITC_start,283,space,0,0,187,269755,594389
43,18,female,Belg,1,14,ITC,loss,10,right,8,ITC_choice,2319,j,0,0,187,267435,596709
43,18,female,Belg,1,14,ITC,loss,10,right,8,ITC_wait,0,undefined,0,0,187,257428,606716
43,18,female,Belg,1,14,ITC,loss,10,right,8,ITC_collect,329,k,0,0,187,257098,607046
43,18,female,Belg,1,14,ITC,loss,10,right,8,ITC_outcome,0,undefined,0,0,207,256086,608058
43,18,female,Belg,1,15,guess,neutral,5,left,10,guess_start,481,space,0,0,207,255603,608541
43,18,female,Belg,1,15,guess,neutral,5,left,10,guess_choice,671,f,0,0,207,254931,609213
43,18,female,Belg,1,15,guess,neutral,5,left,10,guess_outcome,0,undefined,0,0,207,253376,610768
43,18,female,Belg,1,15,ITC,neutral,5,left,10,ITC_start,947,space,0,0,207,252427,611717
43,18,female,Belg,1,15,ITC,neutral,5,left,10,ITC_choice,1256,j,0,0,207,251169,612975
43,18,female,Belg,1,15,ITC,neutral,5,left,10,ITC_wait,0,undefined,0,0,207,251167,612977
43,18,female,Belg,1,15,ITC,neutral,5,left,10,ITC_collect,1291,k,0,0,207,249875,614269
43,18,female,Belg,1,15,ITC,neutral,5,left,10,ITC_outcome,0,undefined,0,0,217,248866,615278
43,18,female,Belg,1,16,guess,win,5,left,8,guess_start,502,space,0,0,217,248363,615781
43,18,female,Belg,1,16,guess,win,5,left,8,guess_choice,766,j,0,0,217,247594,616550
43,18,female,Belg,1,16,guess,win,5,left,8,guess_outcome,0,undefined,0,0,237,246041,618103
43,18,female,Belg,1,16,ITC,win,5,left,8,ITC_start,518,space,0,0,237,245522,618622
43,18,female,Belg,1,16,ITC,win,5,left,8,ITC_choice,1101,j,0,0,237,244419,619725
43,18,female,Belg,1,16,ITC,win,5,left,8,ITC_wait,0,undefined,0,0,237,244417,619727
43,18,female,Belg,1,16,ITC,win,5,left,8,ITC_collect,1453,k,0,0,237,242962,621182
43,18,female,Belg,1,16,ITC,win,5,left,8,ITC_outcome,0,undefined,0,0,245,241950,622194
43,18,female,Belg,1,17,guess,loss,5,left,8,guess_start,441,space,0,0,245,241507,622637
43,18,female,Belg,1,17,guess,loss,5,left,8,guess_choice,613,f,0,0,245,240891,623253
43,18,female,Belg,1,17,guess,loss,5,left,8,guess_outcome,0,undefined,0,0,230,239332,624812
43,18,female,Belg,1,17,ITC,loss,5,left,8,ITC_start,296,space,0,0,230,239035,625109
43,18,female,Belg,1,17,ITC,loss,5,left,8,ITC_choice,933,j,0,0,230,238099,626045
43,18,female,Belg,1,17,ITC,loss,5,left,8,ITC_wait,0,undefined,0,0,230,238095,626049
43,18,female,Belg,1,17,ITC,loss,5,left,8,ITC_collect,1476,k,0,0,230,236619,627525
43,18,female,Belg,1,17,ITC,loss,5,left,8,ITC_outcome,0,undefined,0,0,238,235601,628543
43,18,female,Belg,1,18,guess,win,10,right,2,guess_start,541,space,0,0,238,235059,629085
43,18,female,Belg,1,18,guess,win,10,right,2,guess_choice,693,f,0,0,238,234363,629781
43,18,female,Belg,1,18,guess,win,10,right,2,guess_outcome,0,undefined,0,0,258,232794,631350
43,18,female,Belg,1,18,ITC,win,10,right,2,ITC_start,469,space,0,0,258,232323,631821
43,18,female,Belg,1,18,ITC,win,10,right,2,ITC_choice,1359,j,0,0,258,230963,633181
43,18,female,Belg,1,18,ITC,win,10,right,2,ITC_wait,0,undefined,0,0,258,220944,643200
43,18,female,Belg,1,18,ITC,win,10,right,2,ITC_collect,420,k,0,0,258,220522,643622
43,18,female,Belg,1,18,ITC,win,10,right,2,ITC_outcome,0,undefined,0,0,278,219519,644625
43,18,female,Belg,1,19,guess,loss,5,right,1,guess_start,451,space,0,0,278,219067,645077
43,18,female,Belg,1,19,guess,loss,5,right,1,guess_choice,693,f,0,0,278,218371,645773
43,18,female,Belg,1,19,guess,loss,5,right,1,guess_outcome,0,undefined,0,0,263,216807,647337
43,18,female,Belg,1,19,ITC,loss,5,right,1,ITC_start,275,space,0,0,263,216531,647613
43,18,female,Belg,1,19,ITC,loss,5,right,1,ITC_choice,1255,j,0,0,263,215274,648870
43,18,female,Belg,1,19,ITC,loss,5,right,1,ITC_wait,0,undefined,0,0,263,210259,653885
43,18,female,Belg,1,19,ITC,loss,5,right,1,ITC_collect,966,k,0,0,263,209292,654852
43,18,female,Belg,1,19,ITC,loss,5,right,1,ITC_outcome,0,undefined,0,0,283,208273,655871
43,18,female,Belg,1,20,guess,neutral,5,right,15,guess_start,428,space,0,0,283,207844,656300
43,18,female,Belg,1,20,guess,neutral,5,right,15,guess_choice,3046,f,0,0,283,204795,659349
43,18,female,Belg,1,20,guess,neutral,5,right,15,guess_outcome,0,undefined,0,0,283,203241,660903
43,18,female,Belg,1,20,ITC,neutral,5,right,15,ITC_start,1637,space,0,0,283,201603,662541
43,18,female,Belg,1,20,ITC,neutral,5,right,15,ITC_choice,1110,j,0,0,283,200491,663653
43,18,female,Belg,1,20,ITC,neutral,5,right,15,ITC_wait,0,undefined,0,0,283,195487,668657
43,18,female,Belg,1,20,ITC,neutral,5,right,15,ITC_collect,395,k,0,0,283,195091,669053
43,18,female,Belg,1,20,ITC,neutral,5,right,15,ITC_outcome,0,undefined,0,0,303,194077,670067
43,18,female,Belg,1,21,guess,win,5,left,3,guess_start,808,space,0,0,303,193267,670877
43,18,female,Belg,1,21,guess,win,5,left,3,guess_choice,1221,j,0,0,303,192043,672101
43,18,female,Belg,1,21,guess,win,5,left,3,guess_outcome,0,undefined,0,0,323,190478,673666
43,18,female,Belg,1,21,ITC,win,5,left,3,ITC_start,522,space,0,0,323,189955,674189
43,18,female,Belg,1,21,ITC,win,5,left,3,ITC_choice,1199,f,0,0,323,188754,675390
43,18,female,Belg,1,21,ITC,win,5,left,3,ITC_wait,0,undefined,0,0,323,183744,680400
43,18,female,Belg,1,21,ITC,win,5,left,3,ITC_collect,365,k,0,0,323,183378,680766
43,18,female,Belg,1,21,ITC,win,5,left,3,ITC_outcome,0,undefined,0,0,343,182362,681782
43,18,female,Belg,1,22,guess,win,10,right,4,guess_start,677,space,0,0,343,181683,682461
43,18,female,Belg,1,22,guess,win,10,right,4,guess_choice,829,f,0,0,343,180851,683293
43,18,female,Belg,1,22,guess,win,10,right,4,guess_outcome,0,undefined,0,0,363,179297,684847
43,18,female,Belg,1,22,ITC,win,10,right,4,ITC_start,709,space,0,0,363,178587,685557
43,18,female,Belg,1,22,ITC,win,10,right,4,ITC_choice,1247,j,0,0,363,177339,686805
43,18,female,Belg,1,22,ITC,win,10,right,4,ITC_wait,0,undefined,0,0,363,167328,696816
43,18,female,Belg,1,22,ITC,win,10,right,4,ITC_collect,613,k,0,0,363,166714,697430
43,18,female,Belg,1,22,ITC,win,10,right,4,ITC_outcome,0,undefined,0,0,383,165711,698433
43,18,female,Belg,1,23,guess,neutral,5,left,1,guess_start,666,space,0,0,383,165044,699100
43,18,female,Belg,1,23,guess,neutral,5,left,1,guess_choice,1351,j,0,0,383,163691,700453
43,18,female,Belg,1,23,guess,neutral,5,left,1,guess_outcome,0,undefined,0,0,383,162121,702023
43,18,female,Belg,1,23,ITC,neutral,5,left,1,ITC_start,485,space,0,0,383,161635,702509
43,18,female,Belg,1,23,ITC,neutral,5,left,1,ITC_choice,839,f,0,0,383,160795,703349
43,18,female,Belg,1,23,ITC,neutral,5,left,1,ITC_wait,0,undefined,0,0,383,155782,708362
43,18,female,Belg,1,23,ITC,neutral,5,left,1,ITC_collect,1755,k,0,0,383,154026,710118
43,18,female,Belg,1,23,ITC,neutral,5,left,1,ITC_outcome,0,undefined,0,0,403,153015,711129
43,18,female,Belg,1,24,guess,loss,10,left,6,guess_start,706,space,0,0,403,152307,711837
43,18,female,Belg,1,24,guess,loss,10,left,6,guess_choice,974,j,0,0,403,151330,712814
43,18,female,Belg,1,24,guess,loss,10,left,6,guess_outcome,0,undefined,0,0,388,149763,714381
43,18,female,Belg,1,24,ITC,loss,10,left,6,ITC_start,1190,space,0,0,388,148571,715573
43,18,female,Belg,1,24,ITC,loss,10,left,6,ITC_choice,967,f,0,0,388,147603,716541
43,18,female,Belg,1,24,ITC,loss,10,left,6,ITC_wait,0,undefined,0,0,388,137595,726549
43,18,female,Belg,1,24,ITC,loss,10,left,6,ITC_collect,392,k,0,0,388,137202,726942
43,18,female,Belg,1,24,ITC,loss,10,left,6,ITC_outcome,0,undefined,0,0,408,136194,727950
43,18,female,Belg,1,25,guess,neutral,5,right,2,guess_start,414,space,0,0,408,135779,728365
43,18,female,Belg,1,25,guess,neutral,5,right,2,guess_choice,709,f,0,0,408,135066,729078
43,18,female,Belg,1,25,guess,neutral,5,right,2,guess_outcome,0,undefined,0,0,408,133498,730646
43,18,female,Belg,1,25,ITC,neutral,5,right,2,ITC_start,406,space,0,0,408,133090,731054
43,18,female,Belg,1,25,ITC,neutral,5,right,2,ITC_choice,1142,j,0,0,408,131946,732198
43,18,female,Belg,1,25,ITC,neutral,5,right,2,ITC_wait,0,undefined,0,0,408,126933,737211
43,18,female,Belg,1,25,ITC,neutral,5,right,2,ITC_collect,449,k,0,0,408,126482,737662
43,18,female,Belg,1,25,ITC,neutral,5,right,2,ITC_outcome,0,undefined,0,0,428,125476,738668
43,18,female,Belg,1,26,guess,neutral,5,left,16,guess_start,448,space,0,0,428,125027,739117
43,18,female,Belg,1,26,guess,neutral,5,left,16,guess_choice,606,f,0,0,428,124418,739726
43,18,female,Belg,1,26,guess,neutral,5,left,16,guess_outcome,0,undefined,0,0,428,122850,741294
43,18,female,Belg,1,26,ITC,neutral,5,left,16,ITC_start,662,space,0,0,428,122187,741957
43,18,female,Belg,1,26,ITC,neutral,5,left,16,ITC_choice,1392,j,0,0,428,120793,743351
43,18,female,Belg,1,26,ITC,neutral,5,left,16,ITC_wait,0,undefined,0,0,428,120791,743353
43,18,female,Belg,1,26,ITC,neutral,5,left,16,ITC_collect,1099,k,0,0,428,119691,744453
43,18,female,Belg,1,26,ITC,neutral,5,left,16,ITC_outcome,0,undefined,0,0,444,118681,745463
43,18,female,Belg,1,27,guess,loss,5,left,9,guess_start,468,space,0,0,444,118211,745933
43,18,female,Belg,1,27,guess,loss,5,left,9,guess_choice,878,j,0,0,444,117331,746813
43,18,female,Belg,1,27,guess,loss,5,left,9,guess_outcome,0,undefined,0,0,429,115776,748368
43,18,female,Belg,1,27,ITC,loss,5,left,9,ITC_start,732,space,0,0,429,115042,749102
43,18,female,Belg,1,27,ITC,loss,5,left,9,ITC_choice,1166,f,0,0,429,113878,750266
43,18,female,Belg,1,27,ITC,loss,5,left,9,ITC_wait,0,undefined,0,0,429,108863,755281
43,18,female,Belg,1,27,ITC,loss,5,left,9,ITC_collect,288,k,0,0,429,108573,755571
43,18,female,Belg,1,27,ITC,loss,5,left,9,ITC_outcome,0,undefined,0,0,449,107570,756574
43,18,female,Belg,1,28,guess,loss,5,left,3,guess_start,404,space,0,0,449,107165,756979
43,18,female,Belg,1,28,guess,loss,5,left,3,guess_choice,781,f,0,0,449,106381,757763
43,18,female,Belg,1,28,guess,loss,5,left,3,guess_outcome,0,undefined,0,0,434,104811,759333
43,18,female,Belg,1,28,ITC,loss,5,left,3,ITC_start,349,space,0,0,434,104461,759683
43,18,female,Belg,1,28,ITC,loss,5,left,3,ITC_choice,902,f,0,0,434,103557,760587
43,18,female,Belg,1,28,ITC,loss,5,left,3,ITC_wait,0,undefined,0,0,434,98547,765597
43,18,female,Belg,1,28,ITC,loss,5,left,3,ITC_collect,620,k,0,0,434,97925,766219
43,18,female,Belg,1,28,ITC,loss,5,left,3,ITC_outcome,0,undefined,0,0,454,96915,767229
43,18,female,Belg,1,29,guess,win,10,right,3,guess_start,412,space,0,0,454,96501,767643
43,18,female,Belg,1,29,guess,win,10,right,3,guess_choice,645,j,0,0,454,95854,768290
43,18,female,Belg,1,29,guess,win,10,right,3,guess_outcome,0,undefined,0,0,474,94293,769851
43,18,female,Belg,1,29,ITC,win,10,right,3,ITC_start,407,space,0,0,474,93885,770259
43,18,female,Belg,1,29,ITC,win,10,right,3,ITC_choice,838,j,0,0,474,93046,771098
43,18,female,Belg,1,29,ITC,win,10,right,3,ITC_wait,0,undefined,0,0,474,83032,781112
43,18,female,Belg,1,29,ITC,win,10,right,3,ITC_collect,378,k,0,0,474,82652,781492
43,18,female,Belg,1,29,ITC,win,10,right,3,ITC_outcome,0,undefined,0,0,494,81648,782496
43,18,female,Belg,1,30,guess,win,5,right,16,guess_start,505,space,0,0,494,81141,783003
43,18,female,Belg,1,30,guess,win,5,right,16,guess_choice,669,j,0,0,494,80469,783675
43,18,female,Belg,1,30,guess,win,5,right,16,guess_outcome,0,undefined,0,0,514,78901,785243
43,18,female,Belg,1,30,ITC,win,5,right,16,ITC_start,399,space,0,0,514,78501,785643
43,18,female,Belg,1,30,ITC,win,5,right,16,ITC_choice,903,j,0,0,514,77597,786547
43,18,female,Belg,1,30,ITC,win,5,right,16,ITC_wait,0,undefined,0,0,514,72593,791551
43,18,female,Belg,1,30,ITC,win,5,right,16,ITC_collect,355,k,0,0,514,72237,791907
43,18,female,Belg,1,30,ITC,win,5,right,16,ITC_outcome,0,undefined,0,0,534,71231,792913
43,18,female,Belg,1,31,guess,win,5,left,1,guess_start,336,space,0,0,534,70893,793251
43,18,female,Belg,1,31,guess,win,5,left,1,guess_choice,685,j,0,0,534,70205,793939
43,18,female,Belg,1,31,guess,win,5,left,1,guess_outcome,0,undefined,0,0,554,68649,795495
43,18,female,Belg,1,31,ITC,win,5,left,1,ITC_start,363,space,0,0,554,68285,795859
43,18,female,Belg,1,31,ITC,win,5,left,1,ITC_choice,935,f,0,0,554,67349,796795
43,18,female,Belg,1,31,ITC,win,5,left,1,ITC_wait,0,undefined,0,0,554,62346,801798
43,18,female,Belg,1,31,ITC,win,5,left,1,ITC_collect,932,k,0,0,554,61413,802731
43,18,female,Belg,1,31,ITC,win,5,left,1,ITC_outcome,0,undefined,0,0,574,60393,803751
43,18,female,Belg,1,32,guess,loss,5,left,2,guess_start,394,space,0,0,574,59997,804147
43,18,female,Belg,1,32,guess,loss,5,left,2,guess_choice,989,f,0,0,574,59005,805139
43,18,female,Belg,1,32,guess,loss,5,left,2,guess_outcome,0,undefined,0,0,559,57447,806697
43,18,female,Belg,1,32,ITC,loss,5,left,2,ITC_start,496,space,0,0,559,56950,807194
43,18,female,Belg,1,32,ITC,loss,5,left,2,ITC_choice,1038,f,0,0,559,55910,808234
43,18,female,Belg,1,32,ITC,loss,5,left,2,ITC_wait,0,undefined,0,0,559,50897,813247
43,18,female,Belg,1,32,ITC,loss,5,left,2,ITC_collect,398,k,0,0,559,50498,813646
43,18,female,Belg,1,32,ITC,loss,5,left,2,ITC_outcome,0,undefined,0,0,579,49493,814651
43,18,female,Belg,1,33,guess,neutral,5,left,3,guess_start,449,space,0,0,579,49042,815102
43,18,female,Belg,1,33,guess,neutral,5,left,3,guess_choice,789,j,0,0,579,48250,815894
43,18,female,Belg,1,33,guess,neutral,5,left,3,guess_outcome,0,undefined,0,0,579,46696,817448
43,18,female,Belg,1,33,ITC,neutral,5,left,3,ITC_start,452,space,0,0,579,46242,817902
43,18,female,Belg,1,33,ITC,neutral,5,left,3,ITC_choice,830,f,0,0,579,45411,818733
43,18,female,Belg,1,33,ITC,neutral,5,left,3,ITC_wait,0,undefined,0,0,579,40396,823748
43,18,female,Belg,1,33,ITC,neutral,5,left,3,ITC_collect,425,k,0,0,579,39970,824174
43,18,female,Belg,1,33,ITC,neutral,5,left,3,ITC_outcome,0,undefined,0,0,599,38954,825190
43,18,female,Belg,1,34,guess,neutral,10,left,4,guess_start,694,space,0,0,599,38258,825886
43,18,female,Belg,1,34,guess,neutral,10,left,4,guess_choice,669,j,0,0,599,37586,826558
43,18,female,Belg,1,34,guess,neutral,10,left,4,guess_outcome,0,undefined,0,0,599,36026,828118
43,18,female,Belg,1,34,ITC,neutral,10,left,4,ITC_start,526,space,0,0,599,35499,828645
43,18,female,Belg,1,34,ITC,neutral,10,left,4,ITC_choice,1151,f,0,0,599,34347,829797
43,18,female,Belg,1,34,ITC,neutral,10,left,4,ITC_wait,0,undefined,0,0,599,24346,839798
43,18,female,Belg,1,34,ITC,neutral,10,left,4,ITC_collect,454,k,0,0,599,23890,840254
43,18,female,Belg,1,34,ITC,neutral,10,left,4,ITC_outcome,0,undefined,0,0,619,22877,841267
43,18,female,Belg,1,35,guess,loss,5,right,15,guess_start,512,space,0,0,619,22362,841782
43,18,female,Belg,1,35,guess,loss,5,right,15,guess_choice,813,j,0,0,619,21546,842598
43,18,female,Belg,1,35,guess,loss,5,right,15,guess_outcome,0,undefined,0,0,604,19980,844164
43,18,female,Belg,1,35,ITC,loss,5,right,15,ITC_start,432,space,0,0,604,19547,844597
43,18,female,Belg,1,35,ITC,loss,5,right,15,ITC_choice,919,j,0,0,604,18626,845518
43,18,female,Belg,1,35,ITC,loss,5,right,15,ITC_wait,0,undefined,0,0,604,13623,850521
43,18,female,Belg,1,35,ITC,loss,5,right,15,ITC_collect,284,k,0,0,604,13338,850806
43,18,female,Belg,1,35,ITC,loss,5,right,15,ITC_outcome,0,undefined,0,0,624,12326,851818
43,18,female,Belg,1,36,guess,win,5,left,9,guess_start,273,space,0,0,624,12050,852094
43,18,female,Belg,1,36,guess,win,5,left,9,guess_choice,909,f,0,0,624,11139,853005
43,18,female,Belg,1,36,guess,win,5,left,9,guess_outcome,0,undefined,0,0,644,9573,854571
43,18,female,Belg,1,36,ITC,win,5,left,9,ITC_start,506,space,0,0,644,9066,855078
43,18,female,Belg,1,36,ITC,win,5,left,9,ITC_choice,1126,j,0,0,644,7939,856205
43,18,female,Belg,1,36,ITC,win,5,left,9,ITC_wait,0,undefined,0,0,644,7936,856208
43,18,female,Belg,1,36,ITC,win,5,left,9,ITC_collect,1836,k,0,0,644,6099,858045
43,18,female,Belg,1,36,ITC,win,5,left,9,ITC_outcome,0,undefined,0,0,653,5085,859059
43,18,female,Belg,1,37,guess,neutral,5,left,13,guess_start,457,space,0,0,653,4626,859518
43,18,female,Belg,1,37,guess,neutral,5,left,13,guess_choice,901,j,0,0,653,3722,860422
43,18,female,Belg,1,37,guess,neutral,5,left,13,guess_outcome,0,undefined,0,0,653,2167,861977
43,18,female,Belg,1,37,ITC,neutral,5,left,13,ITC_start,363,space,0,0,653,1802,862342
43,18,female,Belg,1,37,ITC,neutral,5,left,13,ITC_choice,1014,f,0,0,653,786,863358
43,18,female,Belg,1,37,ITC,neutral,5,left,13,ITC_wait,0,undefined,0,0,653,-5,864149
43,18,female,Belg,2,38,guess,win,5,left,12,guess_start,622,space,0,0,0,479377,902325
43,18,female,Belg,2,38,guess,win,5,left,12,guess_choice,958,f,0,0,0,478416,903286
43,18,female,Belg,2,38,guess,win,5,left,12,guess_outcome,0,undefined,0,0,20,476856,904846
43,18,female,Belg,2,38,ITC,win,5,left,12,ITC_start,766,space,0,0,20,476089,905613
43,18,female,Belg,2,38,ITC,win,5,left,12,ITC_choice,1023,j,0,0,20,475065,906637
43,18,female,Belg,2,38,ITC,win,5,left,12,ITC_wait,0,undefined,0,0,20,475062,906640
43,18,female,Belg,2,38,ITC,win,5,left,12,ITC_collect,2572,k,0,0,20,472489,909213
43,18,female,Belg,2,38,ITC,win,5,left,12,ITC_outcome,0,undefined,0,0,32,471474,910228
43,18,female,Belg,2,39,guess,neutral,5,right,5,guess_start,536,space,0,0,32,470937,910765
43,18,female,Belg,2,39,guess,neutral,5,right,5,guess_choice,1174,j,0,0,32,469760,911942
43,18,female,Belg,2,39,guess,neutral,5,right,5,guess_outcome,0,undefined,0,0,32,468197,913505
43,18,female,Belg,2,39,ITC,neutral,5,right,5,ITC_start,682,space,0,0,32,467513,914189
43,18,female,Belg,2,39,ITC,neutral,5,right,5,ITC_choice,904,j,0,0,32,466608,915094
43,18,female,Belg,2,39,ITC,neutral,5,right,5,ITC_wait,0,undefined,0,0,32,461601,920101
43,18,female,Belg,2,39,ITC,neutral,5,right,5,ITC_collect,534,k,0,0,32,461065,920637
43,18,female,Belg,2,40,guess,loss,5,left,7,guess_start,469,space,0,0,52,459592,922110
43,18,female,Belg,2,39,ITC,neutral,5,right,5,ITC_outcome,0,undefined,0,0,52,460062,921640
43,18,female,Belg,2,40,guess,loss,5,left,7,guess_outcome,0,undefined,0,0,37,457134,924568
43,18,female,Belg,2,40,guess,loss,5,left,7,guess_choice,892,f,0,0,52,458697,923005
43,18,female,Belg,2,40,ITC,loss,5,left,7,ITC_start,389,space,0,0,37,456745,924957
43,18,female,Belg,2,40,ITC,loss,5,left,7,ITC_choice,1055,f,0,0,37,455688,926014
43,18,female,Belg,2,40,ITC,loss,5,left,7,ITC_wait,0,undefined,0,0,37,450683,931019
43,18,female,Belg,2,40,ITC,loss,5,left,7,ITC_collect,343,k,0,0,37,450337,931365
43,18,female,Belg,2,40,ITC,loss,5,left,7,ITC_outcome,0,undefined,0,0,57,449323,932379
43,18,female,Belg,2,41,guess,win,5,left,14,guess_start,209,space,0,0,57,449112,932590
43,18,female,Belg,2,41,guess,win,5,left,14,guess_choice,1004,j,0,0,57,448105,933597
43,18,female,Belg,2,41,guess,win,5,left,14,guess_outcome,0,undefined,0,0,77,446536,935166
43,18,female,Belg,2,41,ITC,win,5,left,14,ITC_start,341,space,0,0,77,446193,935509
43,18,female,Belg,2,41,ITC,win,5,left,14,ITC_choice,991,j,0,0,77,445202,936500
43,18,female,Belg,2,41,ITC,win,5,left,14,ITC_wait,0,undefined,0,0,77,445200,936502
43,18,female,Belg,2,41,ITC,win,5,left,14,ITC_collect,652,k,0,0,77,444546,937156
43,18,female,Belg,2,41,ITC,win,5,left,14,ITC_outcome,0,undefined,0,0,91,443540,938162
43,18,female,Belg,2,42,guess,loss,5,left,5,guess_start,729,space,0,0,91,442809,938893
43,18,female,Belg,2,42,guess,loss,5,left,5,guess_choice,893,f,0,0,91,441914,939788
43,18,female,Belg,2,42,guess,loss,5,left,5,guess_outcome,0,undefined,0,0,76,440358,941344
43,18,female,Belg,2,42,ITC,loss,5,left,5,ITC_start,347,space,0,0,76,440010,941692
43,18,female,Belg,2,42,ITC,loss,5,left,5,ITC_choice,799,f,0,0,76,439210,942492
43,18,female,Belg,2,42,ITC,loss,5,left,5,ITC_wait,0,undefined,0,0,76,434196,947506
43,18,female,Belg,2,42,ITC,loss,5,left,5,ITC_collect,385,k,0,0,76,433808,947894
43,18,female,Belg,2,42,ITC,loss,5,left,5,ITC_outcome,0,undefined,0,0,96,432802,948900
43,18,female,Belg,2,43,guess,win,5,left,5,guess_start,287,space,0,0,96,432514,949188
43,18,female,Belg,2,43,guess,win,5,left,5,guess_choice,669,j,0,0,96,431842,949860
43,18,female,Belg,2,43,guess,win,5,left,5,guess_outcome,0,undefined,0,0,116,430288,951414
43,18,female,Belg,2,43,ITC,win,5,left,5,ITC_start,349,space,0,0,116,429938,951764
43,18,female,Belg,2,43,ITC,win,5,left,5,ITC_choice,805,f,0,0,116,429130,952572
43,18,female,Belg,2,43,ITC,win,5,left,5,ITC_wait,0,undefined,0,0,116,424125,957577
43,18,female,Belg,2,43,ITC,win,5,left,5,ITC_collect,362,k,0,0,116,423761,957941
43,18,female,Belg,2,43,ITC,win,5,left,5,ITC_outcome,0,undefined,0,0,136,422747,958955
43,18,female,Belg,2,44,guess,loss,10,right,2,guess_start,592,space,0,0,136,422154,959548
43,18,female,Belg,2,44,guess,loss,10,right,2,guess_choice,845,f,0,0,136,421306,960396
43,18,female,Belg,2,44,guess,loss,10,right,2,guess_outcome,0,undefined,0,0,121,419739,961963
43,18,female,Belg,2,44,ITC,loss,10,right,2,ITC_start,279,space,0,0,121,419458,962244
43,18,female,Belg,2,44,ITC,loss,10,right,2,ITC_choice,887,j,0,0,121,418569,963133
43,18,female,Belg,2,44,ITC,loss,10,right,2,ITC_wait,0,undefined,0,0,121,408560,973142
43,18,female,Belg,2,44,ITC,loss,10,right,2,ITC_collect,317,k,0,0,121,408241,973461
43,18,female,Belg,2,44,ITC,loss,10,right,2,ITC_outcome,0,undefined,0,0,141,407225,974477
43,18,female,Belg,2,45,guess,neutral,5,right,9,guess_start,333,space,0,0,141,406889,974813
43,18,female,Belg,2,45,guess,neutral,5,right,9,guess_choice,852,j,0,0,141,406034,975668
43,18,female,Belg,2,45,guess,neutral,5,right,9,guess_outcome,0,undefined,0,0,141,404473,977229
43,18,female,Belg,2,45,ITC,neutral,5,right,9,ITC_start,582,space,0,0,141,403890,977812
43,18,female,Belg,2,45,ITC,neutral,5,right,9,ITC_choice,1151,j,0,0,141,402738,978964
43,18,female,Belg,2,45,ITC,neutral,5,right,9,ITC_wait,0,undefined,0,0,141,397728,983974
43,18,female,Belg,2,45,ITC,neutral,5,right,9,ITC_collect,1005,k,0,0,141,396721,984981
43,18,female,Belg,2,45,ITC,neutral,5,right,9,ITC_outcome,0,undefined,0,0,161,395712,985990
43,18,female,Belg,2,46,guess,loss,5,left,10,guess_start,396,space,0,0,161,395314,986388
43,18,female,Belg,2,46,guess,loss,5,left,10,guess_choice,661,j,0,0,161,394649,987053
43,18,female,Belg,2,46,guess,loss,5,left,10,guess_outcome,0,undefined,0,0,146,393085,988617
43,18,female,Belg,2,46,ITC,loss,5,left,10,ITC_start,602,space,0,0,146,392481,989221
43,18,female,Belg,2,46,ITC,loss,5,left,10,ITC_choice,750,f,0,0,146,391730,989972
43,18,female,Belg,2,46,ITC,loss,5,left,10,ITC_wait,0,undefined,0,0,146,386714,994988
43,18,female,Belg,2,46,ITC,loss,5,left,10,ITC_collect,536,k,0,0,146,386177,995525
43,18,female,Belg,2,46,ITC,loss,5,left,10,ITC_outcome,0,undefined,0,0,166,385161,996541
43,18,female,Belg,2,47,guess,win,10,left,7,guess_start,919,space,0,0,166,384240,997462
43,18,female,Belg,2,47,guess,win,10,left,7,guess_choice,661,f,0,0,166,383576,998126
43,18,female,Belg,2,47,guess,win,10,left,7,guess_outcome,0,undefined,0,0,186,382021,999681
43,18,female,Belg,2,47,ITC,win,10,left,7,ITC_start,883,space,0,0,186,381137,1000565
43,18,female,Belg,2,47,ITC,win,10,left,7,ITC_choice,887,f,0,0,186,380248,1001454
43,18,female,Belg,2,47,ITC,win,10,left,7,ITC_wait,0,undefined,0,0,186,370239,1011463
43,18,female,Belg,2,47,ITC,win,10,left,7,ITC_collect,373,k,0,0,186,369864,1011838
43,18,female,Belg,2,47,ITC,win,10,left,7,ITC_outcome,0,undefined,0,0,206,368859,1012843
43,18,female,Belg,2,48,guess,win,10,right,1,guess_start,520,space,0,0,206,368337,1013365
43,18,female,Belg,2,48,guess,win,10,right,1,guess_choice,789,f,0,0,206,367545,1014157
43,18,female,Belg,2,48,guess,win,10,right,1,guess_outcome,0,undefined,0,0,226,365984,1015718
43,18,female,Belg,2,48,ITC,win,10,right,1,ITC_start,653,space,0,0,226,365329,1016373
43,18,female,Belg,2,48,ITC,win,10,right,1,ITC_choice,1168,j,0,0,226,364160,1017542
43,18,female,Belg,2,48,ITC,win,10,right,1,ITC_wait,0,undefined,0,0,226,354156,1027546
43,18,female,Belg,2,48,ITC,win,10,right,1,ITC_collect,634,k,0,0,226,353520,1028182
43,18,female,Belg,2,48,ITC,win,10,right,1,ITC_outcome,0,undefined,0,0,246,352507,1029195
43,18,female,Belg,2,49,guess,win,10,left,6,guess_start,432,space,0,0,246,352073,1029629
43,18,female,Belg,2,49,guess,win,10,left,6,guess_choice,741,f,0,0,246,351329,1030373
43,18,female,Belg,2,49,guess,win,10,left,6,guess_outcome,0,undefined,0,0,266,349774,1031928
43,18,female,Belg,2,49,ITC,win,10,left,6,ITC_start,388,space,0,0,266,349385,1032317
43,18,female,Belg,2,49,ITC,win,10,left,6,ITC_choice,775,f,0,0,266,348608,1033094
43,18,female,Belg,2,49,ITC,win,10,left,6,ITC_wait,0,undefined,0,0,266,338606,1043096
43,18,female,Belg,2,49,ITC,win,10,left,6,ITC_collect,948,k,0,0,266,337656,1044046
43,18,female,Belg,2,49,ITC,win,10,left,6,ITC_outcome,0,undefined,0,0,286,336641,1045061
43,18,female,Belg,2,50,guess,win,5,right,11,guess_start,294,space,0,0,286,336345,1045357
43,18,female,Belg,2,50,guess,win,5,right,11,guess_choice,1013,j,0,0,286,335329,1046373
43,18,female,Belg,2,50,guess,win,5,right,11,guess_outcome,0,undefined,0,0,306,333774,1047928
43,18,female,Belg,2,50,ITC,win,5,right,11,ITC_start,420,space,0,0,306,333353,1048349
43,18,female,Belg,2,50,ITC,win,5,right,11,ITC_choice,863,j,0,0,306,332489,1049213
43,18,female,Belg,2,50,ITC,win,5,right,11,ITC_wait,0,undefined,0,0,306,327474,1054228
43,18,female,Belg,2,50,ITC,win,5,right,11,ITC_collect,352,k,0,0,306,327120,1054582
43,18,female,Belg,2,50,ITC,win,5,right,11,ITC_outcome,0,undefined,0,0,326,326106,1055596
43,18,female,Belg,2,51,guess,loss,10,left,5,guess_start,360,space,0,0,326,325744,1055958
43,18,female,Belg,2,51,guess,loss,10,left,5,guess_choice,588,f,0,0,326,325153,1056549
43,18,female,Belg,2,51,guess,loss,10,left,5,guess_outcome,0,undefined,0,0,311,323596,1058106
43,18,female,Belg,2,51,ITC,loss,10,left,5,ITC_start,434,space,0,0,311,323161,1058541
43,18,female,Belg,2,51,ITC,loss,10,left,5,ITC_choice,879,f,0,0,311,322281,1059421
43,18,female,Belg,2,51,ITC,loss,10,left,5,ITC_wait,0,undefined,0,0,311,312273,1069429
43,18,female,Belg,2,51,ITC,loss,10,left,5,ITC_collect,319,k,0,0,311,311953,1069749
43,18,female,Belg,2,51,ITC,loss,10,left,5,ITC_outcome,0,undefined,0,0,331,310940,1070762
43,18,female,Belg,2,52,guess,loss,10,right,7,guess_start,433,space,0,0,331,310505,1071197
43,18,female,Belg,2,52,guess,loss,10,right,7,guess_choice,693,j,0,0,331,309809,1071893
43,18,female,Belg,2,52,guess,loss,10,right,7,guess_outcome,0,undefined,0,0,316,308255,1073447
43,18,female,Belg,2,52,ITC,loss,10,right,7,ITC_start,397,space,0,0,316,307857,1073845
43,18,female,Belg,2,52,ITC,loss,10,right,7,ITC_choice,799,j,0,0,316,307057,1074645
43,18,female,Belg,2,52,ITC,loss,10,right,7,ITC_wait,0,undefined,0,0,316,297044,1084658
43,18,female,Belg,2,52,ITC,loss,10,right,7,ITC_collect,585,k,0,0,316,296457,1085245
43,18,female,Belg,2,52,ITC,loss,10,right,7,ITC_outcome,0,undefined,0,0,336,295454,1086248
43,18,female,Belg,2,53,guess,neutral,5,right,6,guess_start,706,space,0,0,336,294745,1086957
43,18,female,Belg,2,53,guess,neutral,5,right,6,guess_choice,799,j,0,0,336,293945,1087757
43,18,female,Belg,2,53,guess,neutral,5,right,6,guess_outcome,0,undefined,0,0,336,292380,1089322
43,18,female,Belg,2,53,ITC,neutral,5,right,6,ITC_start,546,space,0,0,336,291832,1089870
43,18,female,Belg,2,53,ITC,neutral,5,right,6,ITC_choice,1126,j,0,0,336,290705,1090997
43,18,female,Belg,2,53,ITC,neutral,5,right,6,ITC_wait,0,undefined,0,0,336,285692,1096010
43,18,female,Belg,2,53,ITC,neutral,5,right,6,ITC_collect,890,k,0,0,336,284801,1096901
43,18,female,Belg,2,53,ITC,neutral,5,right,6,ITC_outcome,0,undefined,0,0,356,283793,1097909
43,18,female,Belg,2,54,guess,win,5,left,15,guess_start,878,space,0,0,356,282913,1098789
43,18,female,Belg,2,54,guess,win,5,left,15,guess_choice,741,f,0,0,356,282169,1099533
43,18,female,Belg,2,54,guess,win,5,left,15,guess_outcome,0,undefined,0,0,376,280613,1101089
43,18,female,Belg,2,54,ITC,win,5,left,15,ITC_start,475,space,0,0,376,280136,1101566
43,18,female,Belg,2,54,ITC,win,5,left,15,ITC_choice,1246,j,0,0,376,278889,1102813
43,18,female,Belg,2,54,ITC,win,5,left,15,ITC_wait,0,undefined,0,0,376,278886,1102816
43,18,female,Belg,2,54,ITC,win,5,left,15,ITC_collect,1852,k,0,0,376,277032,1104670
43,18,female,Belg,2,54,ITC,win,5,left,15,ITC_outcome,0,undefined,0,0,391,276024,1105678
43,18,female,Belg,2,55,guess,neutral,10,left,7,guess_start,494,space,0,0,391,275529,1106173
43,18,female,Belg,2,55,guess,neutral,10,left,7,guess_choice,709,f,0,0,391,274817,1106885
43,18,female,Belg,2,55,guess,neutral,10,left,7,guess_outcome,0,undefined,0,0,391,273250,1108452
43,18,female,Belg,2,55,ITC,neutral,10,left,7,ITC_start,400,space,0,0,391,272849,1108853
43,18,female,Belg,2,55,ITC,neutral,10,left,7,ITC_choice,999,f,0,0,391,271848,1109854
43,18,female,Belg,2,55,ITC,neutral,10,left,7,ITC_wait,0,undefined,0,0,391,261844,1119858
43,18,female,Belg,2,55,ITC,neutral,10,left,7,ITC_collect,340,k,0,0,391,261504,1120198
43,18,female,Belg,2,55,ITC,neutral,10,left,7,ITC_outcome,0,undefined,0,0,411,260490,1121212
43,18,female,Belg,2,56,guess,win,5,right,6,guess_start,256,space,0,0,411,260232,1121470
43,18,female,Belg,2,56,guess,win,5,right,6,guess_choice,614,f,0,0,411,259616,1122086
43,18,female,Belg,2,56,guess,win,5,right,6,guess_outcome,0,undefined,0,0,431,258056,1123646
43,18,female,Belg,2,56,ITC,win,5,right,6,ITC_start,815,space,0,0,431,257240,1124462
43,18,female,Belg,2,56,ITC,win,5,right,6,ITC_choice,695,j,0,0,431,256544,1125158
43,18,female,Belg,2,56,ITC,win,5,right,6,ITC_wait,0,undefined,0,0,431,251531,1130171
43,18,female,Belg,2,56,ITC,win,5,right,6,ITC_collect,353,k,0,0,431,251175,1130527
43,18,female,Belg,2,56,ITC,win,5,right,6,ITC_outcome,0,undefined,0,0,451,250170,1131532
43,18,female,Belg,2,57,guess,win,5,left,2,guess_start,351,space,0,0,451,249817,1131885
43,18,female,Belg,2,57,guess,win,5,left,2,guess_choice,534,f,0,0,451,249280,1132422
43,18,female,Belg,2,57,guess,win,5,left,2,guess_outcome,0,undefined,0,0,471,247722,1133980
43,18,female,Belg,2,57,ITC,win,5,left,2,ITC_start,825,space,0,0,471,246896,1134806
43,18,female,Belg,2,57,ITC,win,5,left,2,ITC_choice,678,f,0,0,471,246216,1135486
43,18,female,Belg,2,57,ITC,win,5,left,2,ITC_wait,0,undefined,0,0,471,241206,1140496
43,18,female,Belg,2,57,ITC,win,5,left,2,ITC_collect,380,k,0,0,471,240824,1140878
43,18,female,Belg,2,57,ITC,win,5,left,2,ITC_outcome,0,undefined,0,0,491,239813,1141889
43,18,female,Belg,2,58,guess,loss,10,left,4,guess_start,571,space,0,0,491,239240,1142462
43,18,female,Belg,2,58,guess,loss,10,left,4,guess_choice,654,j,0,0,491,238584,1143118
43,18,female,Belg,2,58,guess,loss,10,left,4,guess_outcome,0,undefined,0,0,476,237026,1144676
43,18,female,Belg,2,58,ITC,loss,10,left,4,ITC_start,1025,space,0,0,476,236001,1145701
43,18,female,Belg,2,58,ITC,loss,10,left,4,ITC_choice,807,f,0,0,476,235192,1146510
43,18,female,Belg,2,58,ITC,loss,10,left,4,ITC_wait,0,undefined,0,0,476,225174,1156528
43,18,female,Belg,2,58,ITC,loss,10,left,4,ITC_collect,277,k,0,0,476,224895,1156807
43,18,female,Belg,2,58,ITC,loss,10,left,4,ITC_outcome,0,undefined,0,0,496,223893,1157809
43,18,female,Belg,2,59,guess,win,5,right,7,guess_start,547,space,0,0,496,223344,1158358
43,18,female,Belg,2,59,guess,win,5,right,7,guess_choice,862,f,0,0,496,222480,1159222
43,18,female,Belg,2,59,guess,win,5,right,7,guess_outcome,0,undefined,0,0,516,220917,1160785
43,18,female,Belg,2,59,ITC,win,5,right,7,ITC_start,660,space,0,0,516,220256,1161446
43,18,female,Belg,2,59,ITC,win,5,right,7,ITC_choice,862,j,0,0,516,219392,1162310
43,18,female,Belg,2,59,ITC,win,5,right,7,ITC_wait,0,undefined,0,0,516,214385,1167317
43,18,female,Belg,2,59,ITC,win,5,right,7,ITC_collect,1152,k,0,0,516,213232,1168470
43,18,female,Belg,2,59,ITC,win,5,right,7,ITC_outcome,0,undefined,0,0,536,212225,1169477
43,18,female,Belg,2,60,guess,neutral,5,right,7,guess_start,1599,space,0,0,536,210624,1171078
43,18,female,Belg,2,60,guess,neutral,5,right,7,guess_choice,877,f,0,0,536,209744,1171958
43,18,female,Belg,2,60,guess,neutral,5,right,7,guess_outcome,0,undefined,0,0,536,208191,1173511
43,18,female,Belg,2,60,ITC,neutral,5,right,7,ITC_start,1069,space,0,0,536,207120,1174582
43,18,female,Belg,2,60,ITC,neutral,5,right,7,ITC_choice,687,j,0,0,536,206432,1175270
43,18,female,Belg,2,60,ITC,neutral,5,right,7,ITC_wait,0,undefined,0,0,536,201417,1180285
43,18,female,Belg,2,60,ITC,neutral,5,right,7,ITC_collect,967,k,0,0,536,200449,1181253
43,18,female,Belg,2,60,ITC,neutral,5,right,7,ITC_outcome,0,undefined,0,0,556,199440,1182262
43,18,female,Belg,2,61,guess,loss,5,left,14,guess_start,701,space,0,0,556,198736,1182966
43,18,female,Belg,2,61,guess,loss,5,left,14,guess_choice,717,j,0,0,556,198016,1183686
43,18,female,Belg,2,61,guess,loss,5,left,14,guess_outcome,0,undefined,0,0,541,196455,1185247
43,18,female,Belg,2,61,ITC,loss,5,left,14,ITC_start,717,space,0,0,541,195736,1185966
43,18,female,Belg,2,61,ITC,loss,5,left,14,ITC_choice,998,j,0,0,541,194736,1186966
43,18,female,Belg,2,61,ITC,loss,5,left,14,ITC_wait,0,undefined,0,0,541,194733,1186969
43,18,female,Belg,2,61,ITC,loss,5,left,14,ITC_collect,1644,k,0,0,541,193088,1188614
43,18,female,Belg,2,61,ITC,loss,5,left,14,ITC_outcome,0,undefined,0,0,555,192085,1189617
43,18,female,Belg,2,62,guess,win,10,right,8,guess_start,467,space,0,0,555,191616,1190086
43,18,female,Belg,2,62,guess,win,10,right,8,guess_choice,637,f,0,0,555,190977,1190725
43,18,female,Belg,2,62,guess,win,10,right,8,guess_outcome,0,undefined,0,0,575,189410,1192292
43,18,female,Belg,2,62,ITC,win,10,right,8,ITC_start,537,space,0,0,575,188872,1192830
43,18,female,Belg,2,62,ITC,win,10,right,8,ITC_choice,998,j,0,0,575,187872,1193830
43,18,female,Belg,2,62,ITC,win,10,right,8,ITC_wait,0,undefined,0,0,575,177859,1203843
43,18,female,Belg,2,62,ITC,win,10,right,8,ITC_collect,322,k,0,0,575,177535,1204167
43,18,female,Belg,2,62,ITC,win,10,right,8,ITC_outcome,0,undefined,0,0,595,176525,1205177
43,18,female,Belg,2,63,guess,win,10,left,5,guess_start,426,space,0,0,595,176096,1205606
43,18,female,Belg,2,63,guess,win,10,left,5,guess_choice,821,f,0,0,595,175272,1206430
43,18,female,Belg,2,63,guess,win,10,left,5,guess_outcome,0,undefined,0,0,615,173709,1207993
43,18,female,Belg,2,63,ITC,win,10,left,5,ITC_start,587,space,0,0,615,173120,1208582
43,18,female,Belg,2,63,ITC,win,10,left,5,ITC_choice,1054,j,0,0,615,172065,1209637
43,18,female,Belg,2,63,ITC,win,10,left,5,ITC_wait,0,undefined,0,0,615,172062,1209640
43,18,female,Belg,2,63,ITC,win,10,left,5,ITC_collect,829,k,0,0,615,171232,1210470
43,18,female,Belg,2,63,ITC,win,10,left,5,ITC_outcome,0,undefined,0,0,620,170217,1211485
43,18,female,Belg,2,64,guess,win,5,right,4,guess_start,622,space,0,0,620,169593,1212109
43,18,female,Belg,2,64,guess,win,5,right,4,guess_choice,958,j,0,0,620,168632,1213070
43,18,female,Belg,2,64,guess,win,5,right,4,guess_outcome,0,undefined,0,0,640,167064,1214638
43,18,female,Belg,2,64,ITC,win,5,right,4,ITC_start,560,space,0,0,640,166503,1215199
43,18,female,Belg,2,64,ITC,win,5,right,4,ITC_choice,1677,j,0,0,640,164824,1216878
43,18,female,Belg,2,64,ITC,win,5,right,4,ITC_wait,0,undefined,0,0,640,159812,1221890
43,18,female,Belg,2,64,ITC,win,5,right,4,ITC_collect,1019,k,0,0,640,158792,1222910
43,18,female,Belg,2,64,ITC,win,5,right,4,ITC_outcome,0,undefined,0,0,660,157776,1223926
43,18,female,Belg,2,65,guess,neutral,5,right,4,guess_start,534,space,0,0,660,157240,1224462
43,18,female,Belg,2,65,guess,neutral,5,right,4,guess_choice,677,f,0,0,660,156560,1225142
43,18,female,Belg,2,65,guess,neutral,5,right,4,guess_outcome,0,undefined,0,0,660,154993,1226709
43,18,female,Belg,2,65,ITC,neutral,5,right,4,ITC_start,600,space,0,0,660,154391,1227311
43,18,female,Belg,2,65,ITC,neutral,5,right,4,ITC_choice,830,j,0,0,660,153560,1228142
43,18,female,Belg,2,65,ITC,neutral,5,right,4,ITC_wait,0,undefined,0,0,660,148557,1233145
43,18,female,Belg,2,65,ITC,neutral,5,right,4,ITC_collect,355,k,0,0,660,148200,1233502
43,18,female,Belg,2,65,ITC,neutral,5,right,4,ITC_outcome,0,undefined,0,0,680,147198,1234504
43,18,female,Belg,2,66,guess,neutral,5,right,8,guess_start,380,space,0,0,680,146816,1234886
43,18,female,Belg,2,66,guess,neutral,5,right,8,guess_choice,645,f,0,0,680,146168,1235534
43,18,female,Belg,2,66,guess,neutral,5,right,8,guess_outcome,0,undefined,0,0,680,144607,1237095
43,18,female,Belg,2,66,ITC,neutral,5,right,8,ITC_start,447,space,0,0,680,144159,1237543
43,18,female,Belg,2,66,ITC,neutral,5,right,8,ITC_choice,766,j,0,0,680,143392,1238310
43,18,female,Belg,2,66,ITC,neutral,5,right,8,ITC_wait,0,undefined,0,0,680,138376,1243326
43,18,female,Belg,2,66,ITC,neutral,5,right,8,ITC_collect,358,k,0,0,680,138016,1243686
43,18,female,Belg,2,66,ITC,neutral,5,right,8,ITC_outcome,0,undefined,0,0,700,137009,1244693
43,18,female,Belg,2,67,guess,loss,5,right,6,guess_start,495,space,0,0,700,136512,1245190
43,18,female,Belg,2,67,guess,loss,5,right,6,guess_choice,1149,j,0,0,700,135360,1246342
43,18,female,Belg,2,67,guess,loss,5,right,6,guess_outcome,0,undefined,0,0,685,133802,1247900
43,18,female,Belg,2,67,ITC,loss,5,right,6,ITC_start,456,space,0,0,685,133344,1248358
43,18,female,Belg,2,67,ITC,loss,5,right,6,ITC_choice,1022,j,0,0,685,132321,1249381
43,18,female,Belg,2,67,ITC,loss,5,right,6,ITC_wait,0,undefined,0,0,685,127308,1254394
43,18,female,Belg,2,67,ITC,loss,5,right,6,ITC_collect,306,k,0,0,685,127000,1254702
43,18,female,Belg,2,67,ITC,loss,5,right,6,ITC_outcome,0,undefined,0,0,705,125985,1255717
43,18,female,Belg,2,68,guess,loss,5,left,13,guess_start,407,space,0,0,705,125576,1256126
43,18,female,Belg,2,68,guess,loss,5,left,13,guess_choice,1253,f,0,0,705,124320,1257382
43,18,female,Belg,2,68,guess,loss,5,left,13,guess_outcome,0,undefined,0,0,690,122766,1258936
43,18,female,Belg,2,68,ITC,loss,5,left,13,ITC_start,685,space,0,0,690,122079,1259623
43,18,female,Belg,2,68,ITC,loss,5,left,13,ITC_choice,838,j,0,0,690,121240,1260462
43,18,female,Belg,2,68,ITC,loss,5,left,13,ITC_wait,0,undefined,0,0,690,121237,1260465
43,18,female,Belg,2,68,ITC,loss,5,left,13,ITC_collect,716,k,0,0,690,120520,1261182
43,18,female,Belg,2,68,ITC,loss,5,left,13,ITC_outcome,0,undefined,0,0,703,119517,1262185
43,18,female,Belg,2,69,guess,win,5,right,13,guess_start,499,space,0,0,703,119016,1262686
43,18,female,Belg,2,69,guess,win,5,right,13,guess_choice,1061,f,0,0,703,117952,1263750
43,18,female,Belg,2,69,guess,win,5,right,13,guess_outcome,0,undefined,0,0,723,116395,1265307
43,18,female,Belg,2,69,ITC,win,5,right,13,ITC_start,497,space,0,0,723,115897,1265805
43,18,female,Belg,2,69,ITC,win,5,right,13,ITC_choice,838,j,0,0,723,115057,1266645
43,18,female,Belg,2,69,ITC,win,5,right,13,ITC_wait,0,undefined,0,0,723,110041,1271661
43,18,female,Belg,2,69,ITC,win,5,right,13,ITC_collect,447,k,0,0,723,109592,1272110
43,18,female,Belg,2,69,ITC,win,5,right,13,ITC_outcome,0,undefined,0,0,743,108577,1273125
43,18,female,Belg,2,70,guess,neutral,5,right,11,guess_start,359,space,0,0,743,108216,1273486
43,18,female,Belg,2,70,guess,neutral,5,right,11,guess_choice,755,j,0,0,743,107457,1274245
43,18,female,Belg,2,70,guess,neutral,5,right,11,guess_outcome,0,undefined,0,0,743,105893,1275809
43,18,female,Belg,2,70,ITC,neutral,5,right,11,ITC_start,780,space,0,0,743,105112,1276590
43,18,female,Belg,2,70,ITC,neutral,5,right,11,ITC_choice,798,j,0,0,743,104313,1277389
43,18,female,Belg,2,70,ITC,neutral,5,right,11,ITC_wait,0,undefined,0,0,743,99298,1282404
43,18,female,Belg,2,70,ITC,neutral,5,right,11,ITC_collect,481,k,0,0,743,98815,1282887
43,18,female,Belg,2,70,ITC,neutral,5,right,11,ITC_outcome,0,undefined,0,0,763,97808,1283894
43,18,female,Belg,2,71,guess,loss,5,left,16,guess_start,574,space,0,0,763,97232,1284470
43,18,female,Belg,2,71,guess,loss,5,left,16,guess_choice,829,j,0,0,763,96400,1285302
43,18,female,Belg,2,71,guess,loss,5,left,16,guess_outcome,0,undefined,0,0,748,94846,1286856
43,18,female,Belg,2,71,ITC,loss,5,left,16,ITC_start,588,space,0,0,748,94257,1287445
43,18,female,Belg,2,71,ITC,loss,5,left,16,ITC_choice,719,j,0,0,748,93536,1288166
43,18,female,Belg,2,71,ITC,loss,5,left,16,ITC_wait,0,undefined,0,0,748,93534,1288168
43,18,female,Belg,2,71,ITC,loss,5,left,16,ITC_collect,796,k,0,0,748,92736,1288966
43,18,female,Belg,2,71,ITC,loss,5,left,16,ITC_outcome,0,undefined,0,0,764,91725,1289977
43,18,female,Belg,2,72,guess,loss,10,right,3,guess_start,580,space,0,0,764,91144,1290558
43,18,female,Belg,2,72,guess,loss,10,right,3,guess_choice,765,f,0,0,764,90376,1291326
43,18,female,Belg,2,72,guess,loss,10,right,3,guess_outcome,0,undefined,0,0,749,88810,1292892
43,18,female,Belg,2,72,ITC,loss,10,right,3,ITC_start,472,space,0,0,749,88336,1293366
43,18,female,Belg,2,72,ITC,loss,10,right,3,ITC_choice,1182,j,0,0,749,87152,1294550
43,18,female,Belg,2,72,ITC,loss,10,right,3,ITC_wait,0,undefined,0,0,749,77142,1304560
43,18,female,Belg,2,72,ITC,loss,10,right,3,ITC_collect,340,k,0,0,749,76801,1304901
43,18,female,Belg,2,72,ITC,loss,10,right,3,ITC_outcome,0,undefined,0,0,769,75797,1305905
43,18,female,Belg,2,73,guess,loss,5,right,13,guess_start,468,space,0,0,769,75329,1306373
43,18,female,Belg,2,73,guess,loss,5,right,13,guess_choice,701,j,0,0,769,74624,1307078
43,18,female,Belg,2,73,guess,loss,5,right,13,guess_outcome,0,undefined,0,0,754,73064,1308638
43,18,female,Belg,2,73,ITC,loss,5,right,13,ITC_start,414,space,0,0,754,72649,1309053
43,18,female,Belg,2,73,ITC,loss,5,right,13,ITC_choice,920,j,0,0,754,71728,1309974
43,18,female,Belg,2,73,ITC,loss,5,right,13,ITC_wait,0,undefined,0,0,754,66725,1314977
43,18,female,Belg,2,73,ITC,loss,5,right,13,ITC_collect,419,k,0,0,754,66304,1315398
43,18,female,Belg,2,73,ITC,loss,5,right,13,ITC_outcome,0,undefined,0,0,774,65294,1316408
43,18,female,Belg,2,74,guess,neutral,5,right,12,guess_start,469,space,0,0,774,64824,1316878
43,18,female,Belg,2,74,guess,neutral,5,right,12,guess_choice,645,j,0,0,774,64177,1317525
43,18,female,Belg,2,74,guess,neutral,5,right,12,guess_outcome,0,undefined,0,0,774,62609,1319093
43,18,female,Belg,2,74,ITC,neutral,5,right,12,ITC_start,415,space,0,0,774,62193,1319509
43,18,female,Belg,2,74,ITC,neutral,5,right,12,ITC_choice,726,f,0,0,774,61465,1320237
43,18,female,Belg,2,74,ITC,neutral,5,right,12,ITC_wait,0,undefined,0,0,774,61463,1320239
43,18,female,Belg,2,74,ITC,neutral,5,right,12,ITC_collect,813,k,0,0,774,60648,1321054
43,18,female,Belg,2,74,ITC,neutral,5,right,12,ITC_outcome,0,undefined,0,0,786,59643,1322059
43,18,female,Belg,2,75,guess,win,5,right,11,guess_start,457,space,0,0,786,59184,1322518
43,18,female,Belg,2,75,guess,win,5,right,11,guess_choice,1021,j,0,0,786,58160,1323542
43,18,female,Belg,2,75,guess,win,5,right,11,guess_outcome,0,undefined,0,0,806,56606,1325096
43,18,female,Belg,2,75,ITC,win,5,right,11,ITC_start,389,space,0,0,806,56216,1325486
43,18,female,Belg,2,75,ITC,win,5,right,11,ITC_choice,838,j,0,0,806,55376,1326326
43,18,female,Belg,2,75,ITC,win,5,right,11,ITC_wait,0,undefined,0,0,806,50366,1331336
43,18,female,Belg,2,75,ITC,win,5,right,11,ITC_collect,412,k,0,0,806,49952,1331750
43,18,female,Belg,2,75,ITC,win,5,right,11,ITC_outcome,0,undefined,0,0,826,48943,1332759
43,18,female,Belg,2,76,guess,win,10,right,1,guess_start,693,space,0,0,826,48248,1333454
43,18,female,Belg,2,76,guess,win,10,right,1,guess_choice,757,j,0,0,826,47489,1334213
43,18,female,Belg,2,76,guess,win,10,right,1,guess_outcome,0,undefined,0,0,846,45928,1335774
43,18,female,Belg,2,76,ITC,win,10,right,1,ITC_start,1063,space,0,0,846,44864,1336838
43,18,female,Belg,2,76,ITC,win,10,right,1,ITC_choice,798,j,0,0,846,44064,1337638
43,18,female,Belg,2,76,ITC,win,10,right,1,ITC_wait,0,undefined,0,0,846,34060,1347642
43,18,female,Belg,2,76,ITC,win,10,right,1,ITC_collect,434,k,0,0,846,33624,1348078
43,18,female,Belg,2,76,ITC,win,10,right,1,ITC_outcome,0,undefined,0,0,866,32610,1349092
43,18,female,Belg,2,77,guess,neutral,10,left,7,guess_start,704,space,0,0,866,31904,1349798
43,18,female,Belg,2,77,guess,neutral,10,left,7,guess_choice,613,f,0,0,866,31288,1350414
43,18,female,Belg,2,77,guess,neutral,10,left,7,guess_outcome,0,undefined,0,0,866,29731,1351971
43,18,female,Belg,2,77,ITC,neutral,10,left,7,ITC_start,354,space,0,0,866,29376,1352326
43,18,female,Belg,2,77,ITC,neutral,10,left,7,ITC_choice,622,j,0,0,866,28753,1352949
43,18,female,Belg,2,77,ITC,neutral,10,left,7,ITC_wait,0,undefined,0,0,866,28750,1352952
43,18,female,Belg,2,77,ITC,neutral,10,left,7,ITC_collect,852,k,0,0,866,27897,1353805
43,18,female,Belg,2,77,ITC,neutral,10,left,7,ITC_outcome,0,undefined,0,0,873,26890,1354812
43,18,female,Belg,2,78,guess,neutral,5,left,11,guess_start,415,space,0,0,873,26473,1355229
43,18,female,Belg,2,78,guess,neutral,5,left,11,guess_choice,789,f,0,0,873,25680,1356022
43,18,female,Belg,2,78,guess,neutral,5,left,11,guess_outcome,0,undefined,0,0,873,24115,1357587
43,18,female,Belg,2,78,ITC,neutral,5,left,11,ITC_start,314,space,0,0,873,23800,1357902
43,18,female,Belg,2,78,ITC,neutral,5,left,11,ITC_choice,1039,j,0,0,873,22760,1358942
43,18,female,Belg,2,78,ITC,neutral,5,left,11,ITC_wait,0,undefined,0,0,873,22758,1358944
43,18,female,Belg,2,78,ITC,neutral,5,left,11,ITC_collect,1740,k,0,0,873,21016,1360686
43,18,female,Belg,2,78,ITC,neutral,5,left,11,ITC_outcome,0,undefined,0,0,884,20010,1361692
43,18,female,Belg,2,79,guess,neutral,5,left,14,guess_start,505,space,0,0,884,19504,1362198
43,18,female,Belg,2,79,guess,neutral,5,left,14,guess_choice,653,f,0,0,884,18863,1362839
43,18,female,Belg,2,79,guess,neutral,5,left,14,guess_outcome,0,undefined,0,0,884,17301,1364401
43,18,female,Belg,2,79,ITC,neutral,5,left,14,ITC_start,780,space,0,0,884,16520,1365182
43,18,female,Belg,2,79,ITC,neutral,5,left,14,ITC_choice,839,j,0,0,884,15680,1366022
43,18,female,Belg,2,79,ITC,neutral,5,left,14,ITC_wait,0,undefined,0,0,884,15677,1366025
43,18,female,Belg,2,79,ITC,neutral,5,left,14,ITC_collect,1012,k,0,0,884,14663,1367039
43,18,female,Belg,2,79,ITC,neutral,5,left,14,ITC_outcome,0,undefined,0,0,898,13647,1368055
43,18,female,Belg,2,80,guess,win,10,left,6,guess_start,501,space,0,0,898,13144,1368558
43,18,female,Belg,2,80,guess,win,10,left,6,guess_choice,1070,j,0,0,898,12071,1369631
43,18,female,Belg,2,80,guess,win,10,left,6,guess_outcome,0,undefined,0,0,918,10509,1371193
43,18,female,Belg,2,80,ITC,win,10,left,6,ITC_start,637,space,0,0,918,9871,1371831
43,18,female,Belg,2,80,ITC,win,10,left,6,ITC_choice,814,f,0,0,918,9056,1372646
43,18,female,Belg,2,80,ITC,win,10,left,6,ITC_wait,0,undefined,0,0,918,-9,1381711
43,18,female,Belg,3,81,guess,loss,5,right,7,guess_start,682,space,0,0,0,479317,1490481
43,18,female,Belg,3,81,guess,loss,5,right,7,guess_choice,845,j,0,0,0,478469,1491329
43,18,female,Belg,3,81,guess,loss,5,right,7,guess_outcome,0,undefined,0,0,-15,476909,1492889
43,18,female,Belg,3,81,ITC,loss,5,right,7,ITC_start,1214,space,0,0,-15,475694,1494104
43,18,female,Belg,3,81,ITC,loss,5,right,7,ITC_choice,1335,j,0,0,-15,474358,1495440
43,18,female,Belg,3,81,ITC,loss,5,right,7,ITC_wait,0,undefined,0,0,-15,469349,1500449
43,18,female,Belg,3,81,ITC,loss,5,right,7,ITC_collect,774,k,0,0,-15,468573,1501225
43,18,female,Belg,3,81,ITC,loss,5,right,7,ITC_outcome,0,undefined,0,0,5,467562,1502236
43,18,female,Belg,3,82,guess,win,5,left,2,guess_start,395,space,0,0,5,467166,1502632
43,18,female,Belg,3,82,guess,win,5,left,2,guess_choice,734,f,0,0,5,466430,1503368
43,18,female,Belg,3,82,guess,win,5,left,2,guess_outcome,0,undefined,0,0,25,464863,1504935
43,18,female,Belg,3,82,ITC,win,5,left,2,ITC_start,352,space,0,0,25,464509,1505289
43,18,female,Belg,3,82,ITC,win,5,left,2,ITC_choice,678,f,0,0,25,463830,1505968
43,18,female,Belg,3,82,ITC,win,5,left,2,ITC_wait,0,undefined,0,0,25,458813,1510985
43,18,female,Belg,3,82,ITC,win,5,left,2,ITC_collect,1085,k,0,0,25,457725,1512073
43,18,female,Belg,3,82,ITC,win,5,left,2,ITC_outcome,0,undefined,0,0,45,456722,1513076
43,18,female,Belg,3,83,guess,win,10,right,7,guess_start,579,space,0,0,45,456141,1513657
43,18,female,Belg,3,83,guess,win,10,right,7,guess_choice,589,j,0,0,45,455550,1514248
43,18,female,Belg,3,83,guess,win,10,right,7,guess_outcome,0,undefined,0,0,65,453984,1515814
43,18,female,Belg,3,83,ITC,win,10,right,7,ITC_start,528,space,0,0,65,453454,1516344
43,18,female,Belg,3,83,ITC,win,10,right,7,ITC_choice,1070,j,0,0,65,452382,1517416
43,18,female,Belg,3,83,ITC,win,10,right,7,ITC_wait,0,undefined,0,0,65,442379,1527419
43,18,female,Belg,3,83,ITC,win,10,right,7,ITC_collect,405,k,0,0,65,441973,1527825
43,18,female,Belg,3,83,ITC,win,10,right,7,ITC_outcome,0,undefined,0,0,85,440966,1528832
43,18,female,Belg,3,84,guess,neutral,5,left,15,guess_start,495,space,0,0,85,440469,1529329
43,18,female,Belg,3,84,guess,neutral,5,left,15,guess_choice,677,f,0,0,85,439789,1530009
43,18,female,Belg,3,84,guess,neutral,5,left,15,guess_outcome,0,undefined,0,0,85,438227,1531571
43,18,female,Belg,3,84,ITC,neutral,5,left,15,ITC_start,380,space,0,0,85,437846,1531952
43,18,female,Belg,3,84,ITC,neutral,5,left,15,ITC_choice,734,j,0,0,85,437110,1532688
43,18,female,Belg,3,84,ITC,neutral,5,left,15,ITC_wait,0,undefined,0,0,85,437107,1532691
43,18,female,Belg,3,84,ITC,neutral,5,left,15,ITC_collect,900,k,0,0,85,436205,1533593
43,18,female,Belg,3,84,ITC,neutral,5,left,15,ITC_outcome,0,undefined,0,0,100,435202,1534596
43,18,female,Belg,3,85,guess,loss,10,right,1,guess_start,418,space,0,0,100,434782,1535016
43,18,female,Belg,3,85,guess,loss,10,right,1,guess_choice,694,j,0,0,100,434085,1535713
43,18,female,Belg,3,85,guess,loss,10,right,1,guess_outcome,0,undefined,0,0,85,432512,1537286
43,18,female,Belg,3,85,ITC,loss,10,right,1,ITC_start,337,space,0,0,85,432174,1537624
43,18,female,Belg,3,85,ITC,loss,10,right,1,ITC_choice,1231,j,0,0,85,430941,1538857
43,18,female,Belg,3,85,ITC,loss,10,right,1,ITC_wait,0,undefined,0,0,85,420938,1548860
43,18,female,Belg,3,85,ITC,loss,10,right,1,ITC_collect,315,k,0,0,85,420621,1549177
43,18,female,Belg,3,85,ITC,loss,10,right,1,ITC_outcome,0,undefined,0,0,105,419607,1550191
43,18,female,Belg,3,86,guess,loss,10,left,4,guess_start,357,space,0,0,105,419248,1550550
43,18,female,Belg,3,86,guess,loss,10,left,4,guess_choice,590,j,0,0,105,418656,1551142
43,18,female,Belg,3,86,guess,loss,10,left,4,guess_outcome,0,undefined,0,0,90,417092,1552706
43,18,female,Belg,3,86,ITC,loss,10,left,4,ITC_start,507,space,0,0,90,416584,1553214
43,18,female,Belg,3,86,ITC,loss,10,left,4,ITC_choice,646,f,0,0,90,415936,1553862
43,18,female,Belg,3,86,ITC,loss,10,left,4,ITC_wait,0,undefined,0,0,90,405927,1563871
43,18,female,Belg,3,86,ITC,loss,10,left,4,ITC_collect,806,k,0,0,90,405120,1564678
43,18,female,Belg,3,86,ITC,loss,10,left,4,ITC_outcome,0,undefined,0,0,110,404116,1565682
43,18,female,Belg,3,87,guess,neutral,10,left,4,guess_start,282,space,0,0,110,403832,1565966
43,18,female,Belg,3,87,guess,neutral,10,left,4,guess_choice,1141,j,0,0,110,402688,1567110
43,18,female,Belg,3,87,guess,neutral,10,left,4,guess_outcome,0,undefined,0,0,110,401124,1568674
43,18,female,Belg,3,87,ITC,neutral,10,left,4,ITC_start,699,space,0,0,110,400424,1569374
43,18,female,Belg,3,87,ITC,neutral,10,left,4,ITC_choice,742,f,0,0,110,399680,1570118
43,18,female,Belg,3,87,ITC,neutral,10,left,4,ITC_wait,0,undefined,0,0,110,389663,1580135
43,18,female,Belg,3,87,ITC,neutral,10,left,4,ITC_collect,550,k,0,0,110,389111,1580687
43,18,female,Belg,3,87,ITC,neutral,10,left,4,ITC_outcome,0,undefined,0,0,130,388099,1581699
43,18,female,Belg,3,88,guess,neutral,5,left,13,guess_start,609,space,0,0,130,387489,1582309
43,18,female,Belg,3,88,guess,neutral,5,left,13,guess_choice,646,j,0,0,130,386840,1582958
43,18,female,Belg,3,88,guess,neutral,5,left,13,guess_outcome,0,undefined,0,0,130,385276,1584522
43,18,female,Belg,3,88,ITC,neutral,5,left,13,ITC_start,514,space,0,0,130,384760,1585038
43,18,female,Belg,3,88,ITC,neutral,5,left,13,ITC_choice,791,j,0,0,130,383968,1585830
43,18,female,Belg,3,88,ITC,neutral,5,left,13,ITC_wait,0,undefined,0,0,130,383965,1585833
43,18,female,Belg,3,88,ITC,neutral,5,left,13,ITC_collect,852,k,0,0,130,383112,1586686
43,18,female,Belg,3,88,ITC,neutral,5,left,13,ITC_outcome,0,undefined,0,0,143,382095,1587703
43,18,female,Belg,3,89,guess,loss,10,left,8,guess_start,453,space,0,0,143,381640,1588158
43,18,female,Belg,3,89,guess,loss,10,left,8,guess_choice,646,f,0,0,143,380992,1588806
43,18,female,Belg,3,89,guess,loss,10,left,8,guess_outcome,0,undefined,0,0,128,379437,1590361
43,18,female,Belg,3,89,ITC,loss,10,left,8,ITC_start,476,space,0,0,128,378959,1590839
43,18,female,Belg,3,89,ITC,loss,10,left,8,ITC_wait,0,undefined,0,0,128,378006,1591792
43,18,female,Belg,3,89,ITC,loss,10,left,8,ITC_choice,949,j,0,0,128,378008,1591790
43,18,female,Belg,3,89,ITC,loss,10,left,8,ITC_collect,677,k,0,0,128,377327,1592471
43,18,female,Belg,3,89,ITC,loss,10,left,8,ITC_outcome,0,undefined,0,0,136,376300,1593498
43,18,female,Belg,3,90,guess,win,5,right,8,guess_start,2177,space,0,0,136,374120,1595678
43,18,female,Belg,3,90,guess,win,5,right,8,guess_choice,725,j,0,0,136,373392,1596406
43,18,female,Belg,3,90,guess,win,5,right,8,guess_outcome,0,undefined,0,0,156,371825,1597973
43,18,female,Belg,3,90,ITC,win,5,right,8,ITC_start,392,space,0,0,156,371432,1598366
43,18,female,Belg,3,90,ITC,win,5,right,8,ITC_choice,998,j,0,0,156,370432,1599366
43,18,female,Belg,3,90,ITC,win,5,right,8,ITC_wait,0,undefined,0,0,156,365426,1604372
43,18,female,Belg,3,90,ITC,win,5,right,8,ITC_collect,457,k,0,0,156,364967,1604831
43,18,female,Belg,3,90,ITC,win,5,right,8,ITC_outcome,0,undefined,0,0,176,363956,1605842
43,18,female,Belg,3,91,guess,neutral,5,left,3,guess_start,426,space,0,0,176,363528,1606270
43,18,female,Belg,3,91,guess,neutral,5,left,3,guess_choice,645,f,0,0,176,362880,1606918
43,18,female,Belg,3,91,guess,neutral,5,left,3,guess_outcome,0,undefined,0,0,176,361313,1608485
43,18,female,Belg,3,91,ITC,neutral,5,left,3,ITC_start,296,space,0,0,176,361016,1608782
43,18,female,Belg,3,91,ITC,neutral,5,left,3,ITC_choice,950,f,0,0,176,360065,1609733
43,18,female,Belg,3,91,ITC,neutral,5,left,3,ITC_wait,0,undefined,0,0,176,355056,1614742
43,18,female,Belg,3,91,ITC,neutral,5,left,3,ITC_collect,479,k,0,0,176,354575,1615223
43,18,female,Belg,3,91,ITC,neutral,5,left,3,ITC_outcome,0,undefined,0,0,196,353560,1616238
43,18,female,Belg,3,92,guess,win,5,right,10,guess_start,351,space,0,0,196,353208,1616590
43,18,female,Belg,3,92,guess,win,5,right,10,guess_choice,662,j,0,0,196,352543,1617255
43,18,female,Belg,3,92,guess,win,5,right,10,guess_outcome,0,undefined,0,0,216,350989,1618809
43,18,female,Belg,3,92,ITC,win,5,right,10,ITC_start,364,space,0,0,216,350623,1619175
43,18,female,Belg,3,92,ITC,win,5,right,10,ITC_choice,694,j,0,0,216,349928,1619870
43,18,female,Belg,3,92,ITC,win,5,right,10,ITC_wait,0,undefined,0,0,216,344924,1624874
43,18,female,Belg,3,92,ITC,win,5,right,10,ITC_collect,732,k,0,0,216,344190,1625608
43,18,female,Belg,3,92,ITC,win,5,right,10,ITC_outcome,0,undefined,0,0,236,343177,1626621
43,18,female,Belg,3,93,guess,win,10,left,2,guess_start,687,space,0,0,236,342488,1627310
43,18,female,Belg,3,93,guess,win,10,left,2,guess_choice,686,f,0,0,236,341799,1627999
43,18,female,Belg,3,93,guess,win,10,left,2,guess_outcome,0,undefined,0,0,256,340241,1629557
43,18,female,Belg,3,93,ITC,win,10,left,2,ITC_start,430,space,0,0,256,339808,1629990
43,18,female,Belg,3,93,ITC,win,10,left,2,ITC_choice,751,f,0,0,256,339056,1630742
43,18,female,Belg,3,93,ITC,win,10,left,2,ITC_collect,506,k,0,0,256,328535,1641263
43,18,female,Belg,3,93,ITC,win,10,left,2,ITC_outcome,0,undefined,0,0,276,327528,1642270
43,18,female,Belg,3,94,guess,win,10,right,4,guess_start,694,space,0,0,276,326832,1642966
43,18,female,Belg,3,94,guess,win,10,right,4,guess_choice,773,j,0,0,276,326056,1643742
43,18,female,Belg,3,94,ITC,win,10,right,4,ITC_start,463,space,0,0,296,324023,1645775
43,18,female,Belg,3,94,guess,win,10,right,4,guess_outcome,0,undefined,0,0,296,324488,1645310
43,18,female,Belg,3,93,ITC,win,10,left,2,ITC_wait,0,undefined,0,0,256,329043,1640755
43,18,female,Belg,3,94,ITC,win,10,right,4,ITC_choice,871,j,0,0,296,323151,1646647
43,18,female,Belg,3,94,ITC,win,10,right,4,ITC_wait,0,undefined,0,0,296,313143,1656655
43,18,female,Belg,3,94,ITC,win,10,right,4,ITC_collect,951,k,0,0,296,312191,1657607
43,18,female,Belg,3,94,ITC,win,10,right,4,ITC_outcome,0,undefined,0,0,316,311176,1658622
43,18,female,Belg,3,95,guess,loss,10,left,6,guess_start,519,space,0,0,316,310655,1659143
43,18,female,Belg,3,95,guess,loss,10,left,6,guess_choice,717,f,0,0,316,309935,1659863
43,18,female,Belg,3,95,guess,loss,10,left,6,guess_outcome,0,undefined,0,0,301,308375,1661423
43,18,female,Belg,3,95,ITC,loss,10,left,6,ITC_start,678,space,0,0,301,307696,1662102
43,18,female,Belg,3,95,ITC,loss,10,left,6,ITC_choice,783,f,0,0,301,306912,1662886
43,18,female,Belg,3,95,ITC,loss,10,left,6,ITC_wait,0,undefined,0,0,301,296907,1672891
43,18,female,Belg,3,95,ITC,loss,10,left,6,ITC_collect,627,k,0,0,301,296279,1673519
43,18,female,Belg,3,95,ITC,loss,10,left,6,ITC_outcome,0,undefined,0,0,321,295271,1674527
43,18,female,Belg,3,96,guess,win,5,left,6,guess_start,421,space,0,0,321,294849,1674949
43,18,female,Belg,3,96,guess,win,5,left,6,guess_choice,583,j,0,0,321,294264,1675534
43,18,female,Belg,3,96,guess,win,5,left,6,guess_outcome,0,undefined,0,0,341,292710,1677088
43,18,female,Belg,3,96,ITC,win,5,left,6,ITC_start,460,space,0,0,341,292249,1677549
43,18,female,Belg,3,96,ITC,win,5,left,6,ITC_choice,670,f,0,0,341,291577,1678221
43,18,female,Belg,3,96,ITC,win,5,left,6,ITC_wait,0,undefined,0,0,341,286566,1683232
43,18,female,Belg,3,96,ITC,win,5,left,6,ITC_collect,340,k,0,0,341,286224,1683574
43,18,female,Belg,3,96,ITC,win,5,left,6,ITC_outcome,0,undefined,0,0,361,285217,1684581
43,18,female,Belg,3,97,guess,neutral,5,right,5,guess_start,494,space,0,0,361,284721,1685077
43,18,female,Belg,3,97,guess,neutral,5,right,5,guess_choice,589,j,0,0,361,284128,1685670
43,18,female,Belg,3,97,guess,neutral,5,right,5,guess_outcome,0,undefined,0,0,361,282560,1687238
43,18,female,Belg,3,97,ITC,neutral,5,right,5,ITC_start,1926,space,0,0,361,280633,1689165
43,18,female,Belg,3,97,ITC,neutral,5,right,5,ITC_choice,1000,j,0,0,361,279632,1690166
43,18,female,Belg,3,97,ITC,neutral,5,right,5,ITC_wait,0,undefined,0,0,361,274619,1695179
43,18,female,Belg,3,97,ITC,neutral,5,right,5,ITC_collect,425,k,0,0,361,274192,1695606
43,18,female,Belg,3,97,ITC,neutral,5,right,5,ITC_outcome,0,undefined,0,0,381,273178,1696620
43,18,female,Belg,3,98,guess,loss,5,left,9,guess_start,496,space,0,0,381,272681,1697117
43,18,female,Belg,3,98,guess,loss,5,left,9,guess_choice,902,j,0,0,381,271776,1698022
43,18,female,Belg,3,98,guess,loss,5,left,9,guess_outcome,0,undefined,0,0,366,270217,1699581
43,18,female,Belg,3,98,ITC,loss,5,left,9,ITC_start,1087,space,0,0,366,269128,1700670
43,18,female,Belg,3,98,ITC,loss,5,left,9,ITC_choice,1078,j,0,0,366,268049,1701749
43,18,female,Belg,3,98,ITC,loss,5,left,9,ITC_wait,0,undefined,0,0,366,268046,1701752
43,18,female,Belg,3,98,ITC,loss,5,left,9,ITC_collect,1380,k,0,0,366,266664,1703134
43,18,female,Belg,3,98,ITC,loss,5,left,9,ITC_outcome,0,undefined,0,0,375,265660,1704138
43,18,female,Belg,3,99,guess,loss,5,left,16,guess_start,810,space,0,0,375,264849,1704949
43,18,female,Belg,3,99,guess,loss,5,left,16,guess_choice,718,f,0,0,375,264127,1705671
43,18,female,Belg,3,99,guess,loss,5,left,16,guess_outcome,0,undefined,0,0,360,262574,1707224
43,18,female,Belg,3,99,ITC,loss,5,left,16,ITC_start,932,space,0,0,360,261641,1708157
43,18,female,Belg,3,99,ITC,loss,5,left,16,ITC_choice,711,j,0,0,360,260929,1708869
43,18,female,Belg,3,99,ITC,loss,5,left,16,ITC_wait,0,undefined,0,0,360,260927,1708871
43,18,female,Belg,3,99,ITC,loss,5,left,16,ITC_collect,732,k,0,0,360,260193,1709605
43,18,female,Belg,3,99,ITC,loss,5,left,16,ITC_outcome,0,undefined,0,0,376,259177,1710621
43,18,female,Belg,3,100,guess,loss,5,right,8,guess_start,919,space,0,0,376,258257,1711541
43,18,female,Belg,3,100,guess,loss,5,right,8,guess_choice,1029,j,0,0,376,257224,1712574
43,18,female,Belg,3,100,guess,loss,5,right,8,guess_outcome,0,undefined,0,0,361,255664,1714134
43,18,female,Belg,3,100,ITC,loss,5,right,8,ITC_start,998,space,0,0,361,254665,1715133
43,18,female,Belg,3,100,ITC,loss,5,right,8,ITC_choice,719,j,0,0,361,253944,1715854
43,18,female,Belg,3,100,ITC,loss,5,right,8,ITC_wait,0,undefined,0,0,361,248927,1720871
43,18,female,Belg,3,100,ITC,loss,5,right,8,ITC_collect,1045,k,0,0,361,247881,1721917
43,18,female,Belg,3,100,ITC,loss,5,right,8,ITC_outcome,0,undefined,0,0,381,246877,1722921
43,18,female,Belg,3,101,guess,win,5,left,12,guess_start,898,space,0,0,381,245977,1723821
43,18,female,Belg,3,101,guess,win,5,left,12,guess_choice,1581,f,0,0,381,244393,1725405
43,18,female,Belg,3,101,guess,win,5,left,12,guess_outcome,0,undefined,0,0,401,242825,1726973
43,18,female,Belg,3,101,ITC,win,5,left,12,ITC_start,945,space,0,0,401,241879,1727919
43,18,female,Belg,3,101,ITC,win,5,left,12,ITC_choice,1477,j,0,0,401,240401,1729397
43,18,female,Belg,3,101,ITC,win,5,left,12,ITC_wait,0,undefined,0,0,401,240399,1729399
43,18,female,Belg,3,101,ITC,win,5,left,12,ITC_collect,694,k,0,0,401,239704,1730094
43,18,female,Belg,3,101,ITC,win,5,left,12,ITC_outcome,0,undefined,0,0,413,238695,1731103
43,18,female,Belg,3,102,guess,loss,5,left,10,guess_start,525,space,0,0,413,238169,1731629
43,18,female,Belg,3,102,guess,loss,5,left,10,guess_choice,973,f,0,0,413,237192,1732606
43,18,female,Belg,3,102,guess,loss,5,left,10,guess_outcome,0,undefined,0,0,398,235626,1734172
43,18,female,Belg,3,102,ITC,loss,5,left,10,ITC_start,344,space,0,0,398,235281,1734517
43,18,female,Belg,3,102,ITC,loss,5,left,10,ITC_choice,751,j,0,0,398,234528,1735270
43,18,female,Belg,3,102,ITC,loss,5,left,10,ITC_wait,0,undefined,0,0,398,234526,1735272
43,18,female,Belg,3,102,ITC,loss,5,left,10,ITC_collect,636,k,0,0,398,233888,1735910
43,18,female,Belg,3,102,ITC,loss,5,left,10,ITC_outcome,0,undefined,0,0,408,232878,1736920
43,18,female,Belg,3,103,guess,loss,5,left,15,guess_start,437,space,0,0,408,232440,1737358
43,18,female,Belg,3,103,guess,loss,5,left,15,guess_choice,629,j,0,0,408,231807,1737991
43,18,female,Belg,3,103,guess,loss,5,left,15,guess_outcome,0,undefined,0,0,393,230246,1739552
43,18,female,Belg,3,103,ITC,loss,5,left,15,ITC_start,476,space,0,0,393,229768,1740030
43,18,female,Belg,3,103,ITC,loss,5,left,15,ITC_choice,879,j,0,0,393,228888,1740910
43,18,female,Belg,3,103,ITC,loss,5,left,15,ITC_wait,0,undefined,0,0,393,228885,1740913
43,18,female,Belg,3,103,ITC,loss,5,left,15,ITC_collect,724,k,0,0,393,228160,1741638
43,18,female,Belg,3,103,ITC,loss,5,left,15,ITC_outcome,0,undefined,0,0,408,227154,1742644
43,18,female,Belg,3,104,guess,loss,5,right,12,guess_start,456,space,0,0,408,226696,1743102
43,18,female,Belg,3,104,guess,loss,5,right,12,guess_choice,565,f,0,0,408,226128,1743670
43,18,female,Belg,3,104,guess,loss,5,right,12,guess_outcome,0,undefined,0,0,393,224559,1745239
43,18,female,Belg,3,104,ITC,loss,5,right,12,ITC_start,1365,space,0,0,393,223192,1746606
43,18,female,Belg,3,104,ITC,loss,5,right,12,ITC_choice,806,j,0,0,393,222385,1747413
43,18,female,Belg,3,104,ITC,loss,5,right,12,ITC_wait,0,undefined,0,0,393,217376,1752422
43,18,female,Belg,3,104,ITC,loss,5,right,12,ITC_collect,671,k,0,0,393,216703,1753095
43,18,female,Belg,3,104,ITC,loss,5,right,12,ITC_outcome,0,undefined,0,0,413,215690,1754108
43,18,female,Belg,3,105,guess,neutral,5,left,1,guess_start,351,space,0,0,413,215337,1754461
43,18,female,Belg,3,105,guess,neutral,5,left,1,guess_choice,622,f,0,0,413,214712,1755086
43,18,female,Belg,3,105,guess,neutral,5,left,1,guess_outcome,0,undefined,0,0,413,213145,1756653
43,18,female,Belg,3,105,ITC,neutral,5,left,1,ITC_start,496,space,0,0,413,212648,1757150
43,18,female,Belg,3,105,ITC,neutral,5,left,1,ITC_choice,686,f,0,0,413,211960,1757838
43,18,female,Belg,3,105,ITC,neutral,5,left,1,ITC_wait,0,undefined,0,0,413,206945,1762853
43,18,female,Belg,3,105,ITC,neutral,5,left,1,ITC_collect,544,k,0,0,413,206399,1763399
43,18,female,Belg,3,105,ITC,neutral,5,left,1,ITC_outcome,0,undefined,0,0,433,205395,1764403
43,18,female,Belg,3,106,guess,neutral,10,right,5,guess_start,474,space,0,0,433,204920,1764878
43,18,female,Belg,3,106,guess,neutral,10,right,5,guess_choice,757,j,0,0,433,204160,1765638
43,18,female,Belg,3,106,guess,neutral,10,right,5,guess_outcome,0,undefined,0,0,433,202606,1767192
43,18,female,Belg,3,106,ITC,neutral,10,right,5,ITC_start,524,space,0,0,433,202081,1767717
43,18,female,Belg,3,106,ITC,neutral,10,right,5,ITC_choice,671,j,0,0,433,201408,1768390
43,18,female,Belg,3,106,ITC,neutral,10,right,5,ITC_collect,462,k,0,0,433,190935,1778863
43,18,female,Belg,3,106,ITC,neutral,10,right,5,ITC_wait,0,undefined,0,0,433,191398,1778400
43,18,female,Belg,3,106,ITC,neutral,10,right,5,ITC_outcome,0,undefined,0,0,453,189920,1779878
43,18,female,Belg,3,107,guess,loss,5,right,11,guess_start,462,space,0,0,453,189456,1780342
43,18,female,Belg,3,107,guess,loss,5,right,11,guess_choice,598,j,0,0,453,188855,1780943
43,18,female,Belg,3,107,guess,loss,5,right,11,guess_outcome,0,undefined,0,0,438,187295,1782503
43,18,female,Belg,3,107,ITC,loss,5,right,11,ITC_start,798,space,0,0,438,186496,1783302
43,18,female,Belg,3,107,ITC,loss,5,right,11,ITC_choice,728,j,0,0,438,185767,1784031
43,18,female,Belg,3,107,ITC,loss,5,right,11,ITC_wait,0,undefined,0,0,438,180763,1789035
43,18,female,Belg,3,107,ITC,loss,5,right,11,ITC_collect,1361,k,0,0,438,179401,1790397
43,18,female,Belg,3,107,ITC,loss,5,right,11,ITC_outcome,0,undefined,0,0,458,178393,1791405
43,18,female,Belg,3,108,guess,neutral,5,right,7,guess_start,359,space,0,0,458,178032,1791766
43,18,female,Belg,3,108,guess,neutral,5,right,7,guess_choice,589,j,0,0,458,177440,1792358
43,18,female,Belg,3,108,guess,neutral,5,right,7,guess_outcome,0,undefined,0,0,458,175880,1793918
43,18,female,Belg,3,108,ITC,neutral,5,right,7,ITC_start,573,space,0,0,458,175304,1794494
43,18,female,Belg,3,108,ITC,neutral,5,right,7,ITC_choice,767,j,0,0,458,174536,1795262
43,18,female,Belg,3,108,ITC,neutral,5,right,7,ITC_wait,0,undefined,0,0,458,169542,1800256
43,18,female,Belg,3,108,ITC,neutral,5,right,7,ITC_collect,345,k,0,0,458,169195,1800603
43,18,female,Belg,3,108,ITC,neutral,5,right,7,ITC_outcome,0,undefined,0,0,478,168184,1801614
43,18,female,Belg,3,109,guess,loss,10,right,5,guess_start,450,space,0,0,478,167732,1802066
43,18,female,Belg,3,109,guess,loss,10,right,5,guess_choice,622,j,0,0,478,167107,1802691
43,18,female,Belg,3,109,guess,loss,10,right,5,guess_outcome,0,undefined,0,0,463,165540,1804258
43,18,female,Belg,3,109,ITC,loss,10,right,5,ITC_start,431,space,0,0,463,165108,1804690
43,18,female,Belg,3,109,ITC,loss,10,right,5,ITC_choice,927,j,0,0,463,164180,1805618
43,18,female,Belg,3,109,ITC,loss,10,right,5,ITC_wait,0,undefined,0,0,463,154172,1815626
43,18,female,Belg,3,109,ITC,loss,10,right,5,ITC_collect,390,k,0,0,463,153780,1816018
43,18,female,Belg,3,109,ITC,loss,10,right,5,ITC_outcome,0,undefined,0,0,483,152772,1817026
43,18,female,Belg,3,110,guess,neutral,10,right,6,guess_start,431,space,0,0,483,152340,1817458
43,18,female,Belg,3,110,guess,neutral,10,right,6,guess_choice,598,j,0,0,483,151739,1818059
43,18,female,Belg,3,110,guess,neutral,10,right,6,guess_outcome,0,undefined,0,0,483,150179,1819619
43,18,female,Belg,3,110,ITC,neutral,10,right,6,ITC_start,334,space,0,0,483,149843,1819955
43,18,female,Belg,3,110,ITC,neutral,10,right,6,ITC_choice,910,j,0,0,483,148931,1820867
43,18,female,Belg,3,110,ITC,neutral,10,right,6,ITC_wait,0,undefined,0,0,483,138924,1830874
43,18,female,Belg,3,110,ITC,neutral,10,right,6,ITC_collect,1031,k,0,0,483,137891,1831907
43,18,female,Belg,3,110,ITC,neutral,10,right,6,ITC_outcome,0,undefined,0,0,503,136881,1832917
43,18,female,Belg,3,111,guess,neutral,5,left,2,guess_start,324,space,0,0,503,136556,1833242
43,18,female,Belg,3,111,guess,neutral,5,left,2,guess_choice,837,j,0,0,503,135716,1834082
43,18,female,Belg,3,111,guess,neutral,5,left,2,guess_outcome,0,undefined,0,0,503,134160,1835638
43,18,female,Belg,3,111,ITC,neutral,5,left,2,ITC_start,467,space,0,0,503,133692,1836106
43,18,female,Belg,3,111,ITC,neutral,5,left,2,ITC_choice,734,f,0,0,503,132956,1836842
43,18,female,Belg,3,111,ITC,neutral,5,left,2,ITC_wait,0,undefined,0,0,503,127949,1841849
43,18,female,Belg,3,111,ITC,neutral,5,left,2,ITC_collect,296,k,0,0,503,127651,1842147
43,18,female,Belg,3,111,ITC,neutral,5,left,2,ITC_outcome,0,undefined,0,0,523,126643,1843155
43,18,female,Belg,3,112,guess,loss,5,left,1,guess_start,429,space,0,0,523,126212,1843586
43,18,female,Belg,3,112,guess,loss,5,left,1,guess_choice,550,j,0,0,523,125660,1844138
43,18,female,Belg,3,112,guess,loss,5,left,1,guess_outcome,0,undefined,0,0,508,124105,1845693
43,18,female,Belg,3,112,ITC,loss,5,left,1,ITC_start,436,space,0,0,508,123668,1846130
43,18,female,Belg,3,112,ITC,loss,5,left,1,ITC_choice,678,f,0,0,508,122988,1846810
43,18,female,Belg,3,112,ITC,loss,5,left,1,ITC_wait,0,undefined,0,0,508,117974,1851824
43,18,female,Belg,3,112,ITC,loss,5,left,1,ITC_collect,362,k,0,0,508,117611,1852187
43,18,female,Belg,3,112,ITC,loss,5,left,1,ITC_outcome,0,undefined,0,0,528,116599,1853199
43,18,female,Belg,3,113,guess,loss,5,right,3,guess_start,361,space,0,0,528,116236,1853562
43,18,female,Belg,3,113,guess,loss,5,right,3,guess_choice,709,f,0,0,528,115524,1854274
43,18,female,Belg,3,113,guess,loss,5,right,3,guess_outcome,0,undefined,0,0,513,113964,1855834
43,18,female,Belg,3,113,ITC,loss,5,right,3,ITC_start,479,space,0,0,513,113483,1856315
43,18,female,Belg,3,113,ITC,loss,5,right,3,ITC_choice,702,j,0,0,513,112780,1857018
43,18,female,Belg,3,113,ITC,loss,5,right,3,ITC_wait,0,undefined,0,0,513,107760,1862038
43,18,female,Belg,3,113,ITC,loss,5,right,3,ITC_collect,320,k,0,0,513,107439,1862359
43,18,female,Belg,3,113,ITC,loss,5,right,3,ITC_outcome,0,undefined,0,0,533,106427,1863371
43,18,female,Belg,3,114,guess,win,5,right,1,guess_start,769,space,0,0,533,105656,1864142
43,18,female,Belg,3,114,guess,win,5,right,1,guess_choice,398,f,0,0,533,105256,1864542
43,18,female,Belg,3,114,guess,win,5,right,1,guess_outcome,0,undefined,0,0,553,103699,1866099
43,18,female,Belg,3,114,ITC,win,5,right,1,ITC_start,618,space,0,0,553,103080,1866718
43,18,female,Belg,3,114,ITC,win,5,right,1,ITC_choice,598,j,0,0,553,102480,1867318
43,18,female,Belg,3,114,ITC,win,5,right,1,ITC_wait,0,undefined,0,0,553,97477,1872321
43,18,female,Belg,3,114,ITC,win,5,right,1,ITC_collect,276,k,0,0,553,97200,1872598
43,18,female,Belg,3,114,ITC,win,5,right,1,ITC_outcome,0,undefined,0,0,573,96175,1873623
43,18,female,Belg,3,115,guess,win,10,right,8,guess_start,324,space,0,0,573,95848,1873950
43,18,female,Belg,3,115,guess,win,10,right,8,guess_choice,582,j,0,0,573,95264,1874534
43,18,female,Belg,3,115,guess,win,10,right,8,guess_outcome,0,undefined,0,0,593,93696,1876102
43,18,female,Belg,3,115,ITC,win,10,right,8,ITC_start,591,space,0,0,593,93104,1876694
43,18,female,Belg,3,115,ITC,win,10,right,8,ITC_choice,591,j,0,0,593,92511,1877287
43,18,female,Belg,3,115,ITC,win,10,right,8,ITC_wait,0,undefined,0,0,593,82500,1887298
43,18,female,Belg,3,115,ITC,win,10,right,8,ITC_collect,315,k,0,0,593,82183,1887615
43,18,female,Belg,3,115,ITC,win,10,right,8,ITC_outcome,0,undefined,0,0,613,81170,1888628
43,18,female,Belg,3,116,guess,loss,5,right,14,guess_start,536,space,0,0,613,80632,1889166
43,18,female,Belg,3,116,guess,loss,5,right,14,guess_choice,670,j,0,0,613,79960,1889838
43,18,female,Belg,3,116,guess,loss,5,right,14,guess_outcome,0,undefined,0,0,598,78396,1891402
43,18,female,Belg,3,116,ITC,loss,5,right,14,ITC_start,442,space,0,0,598,77952,1891846
43,18,female,Belg,3,116,ITC,loss,5,right,14,ITC_choice,703,j,0,0,598,77248,1892550
43,18,female,Belg,3,116,ITC,loss,5,right,14,ITC_wait,0,undefined,0,0,598,72237,1897561
43,18,female,Belg,3,116,ITC,loss,5,right,14,ITC_collect,861,k,0,0,598,71375,1898423
43,18,female,Belg,3,116,ITC,loss,5,right,14,ITC_outcome,0,undefined,0,0,618,70358,1899440
43,18,female,Belg,3,117,guess,neutral,5,left,10,guess_start,428,space,0,0,618,69928,1899870
43,18,female,Belg,3,117,guess,neutral,5,left,10,guess_choice,622,f,0,0,618,69304,1900494
43,18,female,Belg,3,117,guess,neutral,5,left,10,guess_outcome,0,undefined,0,0,618,67744,1902054
43,18,female,Belg,3,117,ITC,neutral,5,left,10,ITC_start,751,space,0,0,618,66992,1902806
43,18,female,Belg,3,117,ITC,neutral,5,left,10,ITC_choice,726,j,0,0,618,66264,1903534
43,18,female,Belg,3,117,ITC,neutral,5,left,10,ITC_wait,0,undefined,0,0,618,66262,1903536
43,18,female,Belg,3,117,ITC,neutral,5,left,10,ITC_collect,837,k,0,0,618,65424,1904374
43,18,female,Belg,3,117,ITC,neutral,5,left,10,ITC_outcome,0,undefined,0,0,628,64408,1905390
43,18,female,Belg,3,118,guess,loss,10,left,3,guess_start,471,space,0,0,628,63936,1905862
43,18,female,Belg,3,118,guess,loss,10,left,3,guess_choice,629,j,0,0,628,63304,1906494
43,18,female,Belg,3,118,guess,loss,10,left,3,guess_outcome,0,undefined,0,0,613,61743,1908055
43,18,female,Belg,3,118,ITC,loss,10,left,3,ITC_start,430,space,0,0,613,61311,1908487
43,18,female,Belg,3,118,ITC,loss,10,left,3,ITC_choice,702,f,0,0,613,60608,1909190
43,18,female,Belg,3,118,ITC,loss,10,left,3,ITC_wait,0,undefined,0,0,613,50597,1919201
43,18,female,Belg,3,118,ITC,loss,10,left,3,ITC_collect,332,k,0,0,613,50264,1919534
43,18,female,Belg,3,118,ITC,loss,10,left,3,ITC_outcome,0,undefined,0,0,633,49262,1920536
43,18,female,Belg,3,119,guess,win,5,right,14,guess_start,323,space,0,0,633,48936,1920862
43,18,female,Belg,3,119,guess,win,5,right,14,guess_choice,614,j,0,0,633,48320,1921478
43,18,female,Belg,3,119,guess,win,5,right,14,guess_outcome,0,undefined,0,0,653,46761,1923037
43,18,female,Belg,3,119,ITC,win,5,right,14,ITC_start,512,space,0,0,653,46248,1923550
43,18,female,Belg,3,119,ITC,win,5,right,14,ITC_choice,743,j,0,0,653,45504,1924294
43,18,female,Belg,3,119,ITC,win,5,right,14,ITC_wait,0,undefined,0,0,653,40496,1929302
43,18,female,Belg,3,119,ITC,win,5,right,14,ITC_collect,399,k,0,0,653,40095,1929703
43,18,female,Belg,3,119,ITC,win,5,right,14,ITC_outcome,0,undefined,0,0,673,39085,1930713
43,18,female,Belg,3,120,guess,win,5,right,9,guess_start,723,space,0,0,673,38360,1931438
43,18,female,Belg,3,120,guess,win,5,right,9,guess_choice,844,j,0,0,673,37512,1932286
43,18,female,Belg,3,120,guess,win,5,right,9,guess_outcome,0,undefined,0,0,693,35946,1933852
43,18,female,Belg,3,120,ITC,win,5,right,9,ITC_start,792,space,0,0,693,35152,1934646
43,18,female,Belg,3,120,ITC,win,5,right,9,ITC_choice,894,j,0,0,693,34256,1935542
43,18,female,Belg,3,120,ITC,win,5,right,9,ITC_wait,0,undefined,0,0,693,29246,1940552
43,18,female,Belg,3,120,ITC,win,5,right,9,ITC_collect,333,k,0,0,693,28911,1940887
43,18,female,Belg,3,120,ITC,win,5,right,9,ITC_outcome,0,undefined,0,0,713,27894,1941904
43,18,female,Belg,3,121,guess,neutral,10,left,1,guess_start,412,space,0,0,713,27480,1942318
43,18,female,Belg,3,121,guess,neutral,10,left,1,guess_choice,669,f,0,0,713,26808,1942990
43,18,female,Belg,3,121,guess,neutral,10,left,1,guess_outcome,0,undefined,0,0,713,25245,1944553
43,18,female,Belg,3,121,ITC,neutral,10,left,1,ITC_start,1028,space,0,0,713,24215,1945583
43,18,female,Belg,3,121,ITC,neutral,10,left,1,ITC_choice,741,f,0,0,713,23472,1946326
43,18,female,Belg,3,121,ITC,neutral,10,left,1,ITC_wait,0,undefined,0,0,713,13463,1956335
43,18,female,Belg,3,121,ITC,neutral,10,left,1,ITC_collect,892,k,0,0,713,12568,1957230
43,18,female,Belg,3,121,ITC,neutral,10,left,1,ITC_outcome,0,undefined,0,0,733,11560,1958238
43,18,female,Belg,3,122,guess,neutral,10,left,8,guess_start,2870,space,0,0,733,8688,1961110
43,18,female,Belg,3,122,guess,neutral,10,left,8,guess_choice,1045,j,0,0,733,7640,1962158
43,18,female,Belg,3,122,guess,neutral,10,left,8,guess_outcome,0,undefined,0,0,733,6080,1963718
43,18,female,Belg,3,122,ITC,neutral,10,left,8,ITC_start,1598,space,0,0,733,4480,1965318
43,18,female,Belg,3,122,ITC,neutral,10,left,8,ITC_choice,1007,j,0,0,733,3472,1966326
43,18,female,Belg,3,122,ITC,neutral,10,left,8,ITC_wait,0,undefined,0,0,733,3470,1966328
43,18,female,Belg,3,122,ITC,neutral,10,left,8,ITC_collect,1012,k,0,0,733,2455,1967343
43,18,female,Belg,3,122,ITC,neutral,10,left,8,ITC_outcome,0,undefined,0,0,741,1444,1968354
43,18,female,Belg,3,123,guess,win,5,left,7,guess_start,1123,space,0,0,741,319,1969479
43,18,female,Belg,3,123,guess,win,5,left,7,guess_choice,0,undefined,0,0,741,-16,1969814
43,18,female,Belg,4,124,guess,neutral,5,right,4,guess_start,923,space,0,0,0,479076,2068870
43,18,female,Belg,4,124,guess,neutral,5,right,4,guess_choice,749,f,0,0,0,478324,2069622
43,18,female,Belg,4,124,guess,neutral,5,right,4,guess_outcome,0,undefined,0,0,0,476760,2071186
43,18,female,Belg,4,124,ITC,neutral,5,right,4,ITC_start,588,space,0,0,0,476171,2071775
43,18,female,Belg,4,124,ITC,neutral,5,right,4,ITC_choice,974,j,0,0,0,475196,2072750
43,18,female,Belg,4,124,ITC,neutral,5,right,4,ITC_wait,0,undefined,0,0,0,470191,2077755
43,18,female,Belg,4,124,ITC,neutral,5,right,4,ITC_collect,355,k,0,0,0,469835,2078111
43,18,female,Belg,4,124,ITC,neutral,5,right,4,ITC_outcome,0,undefined,0,0,20,468814,2079132
43,18,female,Belg,4,125,guess,loss,5,right,5,guess_start,593,space,0,0,20,468219,2079727
43,18,female,Belg,4,125,guess,loss,5,right,5,guess_choice,684,f,0,0,20,467532,2080414
43,18,female,Belg,4,125,guess,loss,5,right,5,guess_outcome,0,undefined,0,0,5,465964,2081982
43,18,female,Belg,4,125,ITC,loss,5,right,5,ITC_start,654,space,0,0,5,465308,2082638
43,18,female,Belg,4,125,ITC,loss,5,right,5,ITC_choice,663,j,0,0,5,464644,2083302
43,18,female,Belg,4,125,ITC,loss,5,right,5,ITC_wait,0,undefined,0,0,5,459630,2088316
43,18,female,Belg,4,125,ITC,loss,5,right,5,ITC_collect,322,k,0,0,5,459307,2088639
43,18,female,Belg,4,125,ITC,loss,5,right,5,ITC_outcome,0,undefined,0,0,25,458297,2089649
43,18,female,Belg,4,126,guess,win,5,right,4,guess_start,578,space,0,0,25,457717,2090229
43,18,female,Belg,4,126,guess,win,5,right,4,guess_choice,680,f,0,0,25,457035,2090911
43,18,female,Belg,4,126,guess,win,5,right,4,guess_outcome,0,undefined,0,0,45,455478,2092468
43,18,female,Belg,4,126,ITC,win,5,right,4,ITC_start,392,space,0,0,45,455084,2092862
43,18,female,Belg,4,126,ITC,win,5,right,4,ITC_choice,687,j,0,0,45,454396,2093550
43,18,female,Belg,4,126,ITC,win,5,right,4,ITC_wait,0,undefined,0,0,45,449380,2098566
43,18,female,Belg,4,126,ITC,win,5,right,4,ITC_collect,335,k,0,0,45,449043,2098903
43,18,female,Belg,4,126,ITC,win,5,right,4,ITC_outcome,0,undefined,0,0,65,448034,2099912
43,18,female,Belg,4,127,guess,loss,5,left,2,guess_start,973,space,0,0,65,447059,2100887
43,18,female,Belg,4,127,guess,loss,5,left,2,guess_choice,509,f,0,0,65,446548,2101398
43,18,female,Belg,4,127,guess,loss,5,left,2,guess_outcome,0,undefined,0,0,50,444979,2102967
43,18,female,Belg,4,127,ITC,loss,5,left,2,ITC_start,534,space,0,0,50,444444,2103502
43,18,female,Belg,4,127,ITC,loss,5,left,2,ITC_choice,702,f,0,0,50,443740,2104206
43,18,female,Belg,4,127,ITC,loss,5,left,2,ITC_wait,0,undefined,0,0,50,438727,2109219
43,18,female,Belg,4,127,ITC,loss,5,left,2,ITC_collect,682,k,0,0,50,438043,2109903
43,18,female,Belg,4,127,ITC,loss,5,left,2,ITC_outcome,0,undefined,0,0,70,437037,2110909
43,18,female,Belg,4,128,guess,neutral,5,right,9,guess_start,559,space,0,0,70,436476,2111470
43,18,female,Belg,4,128,guess,neutral,5,right,9,guess_choice,669,f,0,0,70,435804,2112142
43,18,female,Belg,4,128,guess,neutral,5,right,9,guess_outcome,0,undefined,0,0,70,434252,2113694
43,18,female,Belg,4,128,ITC,neutral,5,right,9,ITC_start,471,space,0,0,70,433780,2114166
43,18,female,Belg,4,128,ITC,neutral,5,right,9,ITC_choice,622,j,0,0,70,433156,2114790
43,18,female,Belg,4,128,ITC,neutral,5,right,9,ITC_wait,0,undefined,0,0,70,428145,2119801
43,18,female,Belg,4,128,ITC,neutral,5,right,9,ITC_collect,269,k,0,0,70,427875,2120071
43,18,female,Belg,4,128,ITC,neutral,5,right,9,ITC_outcome,0,undefined,0,0,90,426872,2121074
43,18,female,Belg,4,129,guess,win,5,left,16,guess_start,467,space,0,0,90,426404,2121542
43,18,female,Belg,4,129,guess,win,5,left,16,guess_choice,830,f,0,0,90,425572,2122374
43,18,female,Belg,4,129,guess,win,5,left,16,guess_outcome,0,undefined,0,0,110,424011,2123935
43,18,female,Belg,4,129,ITC,win,5,left,16,ITC_start,582,space,0,0,110,423428,2124518
43,18,female,Belg,4,129,ITC,win,5,left,16,ITC_choice,711,j,0,0,110,422715,2125231
43,18,female,Belg,4,129,ITC,win,5,left,16,ITC_wait,0,undefined,0,0,110,422713,2125233
43,18,female,Belg,4,129,ITC,win,5,left,16,ITC_collect,604,k,0,0,110,422108,2125838
43,18,female,Belg,4,129,ITC,win,5,left,16,ITC_outcome,0,undefined,0,0,126,421094,2126852
43,18,female,Belg,4,130,guess,neutral,5,right,16,guess_start,552,space,0,0,126,420540,2127406
43,18,female,Belg,4,130,guess,neutral,5,right,16,guess_choice,614,f,0,0,126,419924,2128022
43,18,female,Belg,4,130,guess,neutral,5,right,16,guess_outcome,0,undefined,0,0,126,418355,2129591
43,18,female,Belg,4,130,ITC,neutral,5,right,16,ITC_start,309,space,0,0,126,418044,2129902
43,18,female,Belg,4,130,ITC,neutral,5,right,16,ITC_choice,719,j,0,0,126,417323,2130623
43,18,female,Belg,4,130,ITC,neutral,5,right,16,ITC_wait,0,undefined,0,0,126,412319,2135627
43,18,female,Belg,4,130,ITC,neutral,5,right,16,ITC_collect,289,k,0,0,126,412028,2135918
43,18,female,Belg,4,130,ITC,neutral,5,right,16,ITC_outcome,0,undefined,0,0,146,411011,2136935
43,18,female,Belg,4,131,guess,win,5,right,13,guess_start,374,space,0,0,146,410636,2137310
43,18,female,Belg,4,131,guess,win,5,right,13,guess_choice,998,j,0,0,146,409636,2138310
43,18,female,Belg,4,131,guess,win,5,right,13,guess_outcome,0,undefined,0,0,166,408078,2139868
43,18,female,Belg,4,131,ITC,win,5,right,13,ITC_start,384,space,0,0,166,407692,2140254
43,18,female,Belg,4,131,ITC,win,5,right,13,ITC_choice,1007,f,0,0,166,406683,2141263
43,18,female,Belg,4,131,ITC,win,5,right,13,ITC_wait,0,undefined,0,0,166,406681,2141265
43,18,female,Belg,4,131,ITC,win,5,right,13,ITC_collect,659,k,0,0,166,406020,2141926
43,18,female,Belg,4,131,ITC,win,5,right,13,ITC_outcome,0,undefined,0,0,179,405015,2142931
43,18,female,Belg,4,132,guess,loss,10,left,2,guess_start,393,space,0,0,179,404620,2143326
43,18,female,Belg,4,132,guess,loss,10,left,2,guess_choice,654,f,0,0,179,403964,2143982
43,18,female,Belg,4,132,guess,loss,10,left,2,guess_outcome,0,undefined,0,0,164,402396,2145550
43,18,female,Belg,4,132,ITC,loss,10,left,2,ITC_start,334,space,0,0,164,402060,2145886
43,18,female,Belg,4,132,ITC,loss,10,left,2,ITC_choice,703,f,0,0,164,401356,2146590
43,18,female,Belg,4,132,ITC,loss,10,left,2,ITC_wait,0,undefined,0,0,164,391346,2156600
43,18,female,Belg,4,132,ITC,loss,10,left,2,ITC_collect,356,k,0,0,164,390988,2156958
43,18,female,Belg,4,132,ITC,loss,10,left,2,ITC_outcome,0,undefined,0,0,184,389982,2157964
43,18,female,Belg,4,133,guess,loss,10,left,7,guess_start,521,space,0,0,184,389460,2158486
43,18,female,Belg,4,133,guess,loss,10,left,7,guess_choice,653,j,0,0,184,388804,2159142
43,18,female,Belg,4,133,guess,loss,10,left,7,guess_outcome,0,undefined,0,0,169,387236,2160710
43,18,female,Belg,4,133,ITC,loss,10,left,7,ITC_start,287,space,0,0,169,386947,2160999
43,18,female,Belg,4,133,ITC,loss,10,left,7,ITC_choice,686,f,0,0,169,386260,2161686
43,18,female,Belg,4,133,ITC,loss,10,left,7,ITC_wait,0,undefined,0,0,169,376253,2171693
43,18,female,Belg,4,133,ITC,loss,10,left,7,ITC_collect,232,k,0,0,169,376019,2171927
43,18,female,Belg,4,133,ITC,loss,10,left,7,ITC_outcome,0,undefined,0,0,189,375012,2172934
43,18,female,Belg,4,134,guess,win,5,right,3,guess_start,310,space,0,0,189,374700,2173246
43,18,female,Belg,4,134,guess,win,5,right,3,guess_choice,564,j,0,0,189,374131,2173815
43,18,female,Belg,4,134,guess,win,5,right,3,guess_outcome,0,undefined,0,0,209,372569,2175377
43,18,female,Belg,4,134,ITC,win,5,right,3,ITC_start,299,space,0,0,209,372268,2175678
43,18,female,Belg,4,134,ITC,win,5,right,3,ITC_choice,863,j,0,0,209,371404,2176542
43,18,female,Belg,4,134,ITC,win,5,right,3,ITC_wait,0,undefined,0,0,209,366396,2181550
43,18,female,Belg,4,134,ITC,win,5,right,3,ITC_collect,392,k,0,0,209,366002,2181944
43,18,female,Belg,4,134,ITC,win,5,right,3,ITC_outcome,0,undefined,0,0,229,364994,2182952
43,18,female,Belg,4,135,guess,win,5,right,5,guess_start,372,space,0,0,229,364620,2183326
43,18,female,Belg,4,135,guess,win,5,right,5,guess_choice,813,f,0,0,229,363804,2184142
43,18,female,Belg,4,135,guess,win,5,right,5,guess_outcome,0,undefined,0,0,249,362247,2185699
43,18,female,Belg,4,135,ITC,win,5,right,5,ITC_start,434,space,0,0,249,361812,2186134
43,18,female,Belg,4,135,ITC,win,5,right,5,ITC_choice,998,j,0,0,249,360812,2187134
43,18,female,Belg,4,135,ITC,win,5,right,5,ITC_wait,0,undefined,0,0,249,355807,2192139
43,18,female,Belg,4,135,ITC,win,5,right,5,ITC_collect,642,k,0,0,249,355163,2192783
43,18,female,Belg,4,135,ITC,win,5,right,5,ITC_outcome,0,undefined,0,0,269,354158,2193788
43,18,female,Belg,4,136,guess,win,5,right,15,guess_start,487,space,0,0,269,353667,2194279
43,18,female,Belg,4,136,guess,win,5,right,15,guess_choice,757,j,0,0,269,352907,2195039
43,18,female,Belg,4,136,guess,win,5,right,15,guess_outcome,0,undefined,0,0,289,351340,2196606
43,18,female,Belg,4,136,ITC,win,5,right,15,ITC_start,336,space,0,0,289,351003,2196943
43,18,female,Belg,4,136,ITC,win,5,right,15,ITC_choice,630,j,0,0,289,350371,2197575
43,18,female,Belg,4,136,ITC,win,5,right,15,ITC_wait,0,undefined,0,0,289,345364,2202582
43,18,female,Belg,4,136,ITC,win,5,right,15,ITC_collect,336,k,0,0,289,345027,2202919
43,18,female,Belg,4,136,ITC,win,5,right,15,ITC_outcome,0,undefined,0,0,309,344009,2203937
43,18,female,Belg,4,137,guess,win,10,right,5,guess_start,244,space,0,0,309,343763,2204183
43,18,female,Belg,4,137,guess,win,10,right,5,guess_choice,557,f,0,0,309,343204,2204742
43,18,female,Belg,4,137,guess,win,10,right,5,guess_outcome,0,undefined,0,0,329,341645,2206301
43,18,female,Belg,4,137,ITC,win,10,right,5,ITC_start,464,space,0,0,329,341179,2206767
43,18,female,Belg,4,137,ITC,win,10,right,5,ITC_choice,1062,f,0,0,329,340116,2207830
43,18,female,Belg,4,137,ITC,win,10,right,5,ITC_wait,0,undefined,0,0,329,340113,2207833
43,18,female,Belg,4,137,ITC,win,10,right,5,ITC_collect,668,k,0,0,329,339443,2208503
43,18,female,Belg,4,137,ITC,win,10,right,5,ITC_outcome,0,undefined,0,0,334,338428,2209518
43,18,female,Belg,4,138,guess,neutral,10,left,3,guess_start,453,space,0,0,334,337972,2209974
43,18,female,Belg,4,138,guess,neutral,10,left,3,guess_choice,1310,j,0,0,334,336659,2211287
43,18,female,Belg,4,138,guess,neutral,10,left,3,guess_outcome,0,undefined,0,0,334,335095,2212851
43,18,female,Belg,4,138,ITC,neutral,10,left,3,ITC_start,858,space,0,0,334,334235,2213711
43,18,female,Belg,4,138,ITC,neutral,10,left,3,ITC_choice,726,f,0,0,334,333508,2214438
43,18,female,Belg,4,138,ITC,neutral,10,left,3,ITC_wait,0,undefined,0,0,334,323497,2224449
43,18,female,Belg,4,138,ITC,neutral,10,left,3,ITC_collect,380,k,0,0,334,323115,2224831
43,18,female,Belg,4,138,ITC,neutral,10,left,3,ITC_outcome,0,undefined,0,0,354,322099,2225847
43,18,female,Belg,4,139,guess,loss,5,left,6,guess_start,365,space,0,0,354,321732,2226214
43,18,female,Belg,4,139,guess,loss,5,left,6,guess_choice,582,j,0,0,354,321147,2226799
43,18,female,Belg,4,139,guess,loss,5,left,6,guess_outcome,0,undefined,0,0,339,319585,2228361
43,18,female,Belg,4,139,ITC,loss,5,left,6,ITC_start,307,space,0,0,339,319276,2228670
43,18,female,Belg,4,139,ITC,loss,5,left,6,ITC_choice,655,f,0,0,339,318620,2229326
43,18,female,Belg,4,139,ITC,loss,5,left,6,ITC_wait,0,undefined,0,0,339,313615,2234331
43,18,female,Belg,4,139,ITC,loss,5,left,6,ITC_collect,850,k,0,0,339,312763,2235183
43,18,female,Belg,4,139,ITC,loss,5,left,6,ITC_outcome,0,undefined,0,0,359,311758,2236188
43,18,female,Belg,4,140,guess,neutral,5,left,6,guess_start,449,space,0,0,359,311307,2236639
43,18,female,Belg,4,140,guess,neutral,5,left,6,guess_choice,645,f,0,0,359,310659,2237287
43,18,female,Belg,4,140,guess,neutral,5,left,6,guess_outcome,0,undefined,0,0,359,309099,2238847
43,18,female,Belg,4,140,ITC,neutral,5,left,6,ITC_start,342,space,0,0,359,308756,2239190
43,18,female,Belg,4,140,ITC,neutral,5,left,6,ITC_choice,694,f,0,0,359,308060,2239886
43,18,female,Belg,4,140,ITC,neutral,5,left,6,ITC_wait,0,undefined,0,0,359,303048,2244898
43,18,female,Belg,4,140,ITC,neutral,5,left,6,ITC_collect,444,k,0,0,359,302603,2245343
43,18,female,Belg,4,140,ITC,neutral,5,left,6,ITC_outcome,0,undefined,0,0,379,301592,2246354
43,18,female,Belg,4,141,guess,win,10,right,3,guess_start,482,space,0,0,379,301108,2246838
43,18,female,Belg,4,141,guess,win,10,right,3,guess_choice,1213,j,0,0,379,299892,2248054
43,18,female,Belg,4,141,guess,win,10,right,3,guess_outcome,0,undefined,0,0,399,298326,2249620
43,18,female,Belg,4,141,ITC,win,10,right,3,ITC_start,329,space,0,0,399,297995,2249951
43,18,female,Belg,4,141,ITC,win,10,right,3,ITC_choice,1038,f,0,0,399,296962,2250984
43,18,female,Belg,4,141,ITC,win,10,right,3,ITC_wait,0,undefined,0,0,399,296959,2250987
43,18,female,Belg,4,141,ITC,win,10,right,3,ITC_collect,764,k,0,0,399,296194,2251752
43,18,female,Belg,4,141,ITC,win,10,right,3,ITC_outcome,0,undefined,0,0,402,295182,2252764
43,18,female,Belg,4,142,guess,neutral,5,right,8,guess_start,458,space,0,0,402,294722,2253224
43,18,female,Belg,4,142,guess,neutral,5,right,8,guess_choice,685,j,0,0,402,294034,2253912
43,18,female,Belg,4,142,guess,neutral,5,right,8,guess_outcome,0,undefined,0,0,402,292475,2255471
43,18,female,Belg,4,142,ITC,neutral,5,right,8,ITC_start,655,space,0,0,402,291818,2256128
43,18,female,Belg,4,142,ITC,neutral,5,right,8,ITC_choice,774,j,0,0,402,291042,2256904
43,18,female,Belg,4,142,ITC,neutral,5,right,8,ITC_wait,0,undefined,0,0,402,286038,2261908
43,18,female,Belg,4,142,ITC,neutral,5,right,8,ITC_collect,330,k,0,0,402,285706,2262240
43,18,female,Belg,4,142,ITC,neutral,5,right,8,ITC_outcome,0,undefined,0,0,422,284688,2263258
43,18,female,Belg,4,143,guess,neutral,10,left,2,guess_start,916,space,0,0,422,283770,2264176
43,18,female,Belg,4,143,guess,neutral,10,left,2,guess_choice,590,j,0,0,422,283179,2264767
43,18,female,Belg,4,143,guess,neutral,10,left,2,guess_outcome,0,undefined,0,0,422,281622,2266324
43,18,female,Belg,4,143,ITC,neutral,10,left,2,ITC_start,691,space,0,0,422,280930,2267016
43,18,female,Belg,4,143,ITC,neutral,10,left,2,ITC_choice,1253,f,0,0,422,279674,2268272
43,18,female,Belg,4,143,ITC,neutral,10,left,2,ITC_wait,0,undefined,0,0,422,269672,2278274
43,18,female,Belg,4,143,ITC,neutral,10,left,2,ITC_collect,444,k,0,0,422,269225,2278721
43,18,female,Belg,4,143,ITC,neutral,10,left,2,ITC_outcome,0,undefined,0,0,442,268219,2279727
43,18,female,Belg,4,144,guess,loss,5,left,4,guess_start,407,space,0,0,442,267811,2280135
43,18,female,Belg,4,144,guess,loss,5,left,4,guess_choice,853,f,0,0,442,266954,2280992
43,18,female,Belg,4,144,guess,loss,5,left,4,guess_outcome,0,undefined,0,0,427,265394,2282552
43,18,female,Belg,4,144,ITC,loss,5,left,4,ITC_start,430,space,0,0,427,264962,2282984
43,18,female,Belg,4,144,ITC,loss,5,left,4,ITC_choice,831,f,0,0,427,264130,2283816
43,18,female,Belg,4,144,ITC,loss,5,left,4,ITC_wait,0,undefined,0,0,427,259119,2288827
43,18,female,Belg,4,144,ITC,loss,5,left,4,ITC_collect,315,k,0,0,427,258801,2289145
43,18,female,Belg,4,144,ITC,loss,5,left,4,ITC_outcome,0,undefined,0,0,447,257791,2290155
43,18,female,Belg,4,145,guess,win,10,left,2,guess_start,538,space,0,0,447,257251,2290695
43,18,female,Belg,4,145,guess,win,10,left,2,guess_choice,638,j,0,0,447,256610,2291336
43,18,female,Belg,4,145,guess,win,10,left,2,guess_outcome,0,undefined,0,0,467,255055,2292891
43,18,female,Belg,4,145,ITC,win,10,left,2,ITC_start,347,space,0,0,467,254707,2293239
