subjectID,age,gender,nationality,block_number,trial_number,trial_type,guess_outcome,delay_time,delay_pos,immediate_amount,stage,respRT,respKey,blur_count,focus_count,total_points,remaining_duration,time_elapsed
26,18,female,Belgium,1,1,guess,loss,5,right,11,guess_start,1569,space,0,0,0,478426,145819
26,18,female,Belgium,1,1,guess,loss,5,right,11,guess_choice,1178,f,0,0,0,477231,147014
26,18,female,Belgium,1,1,guess,loss,5,right,11,guess_outcome,0,undefined,0,0,-15,475663,148582
26,18,female,Belgium,1,1,ITC,loss,5,right,11,ITC_start,1366,space,0,0,-15,474291,149954
26,18,female,Belgium,1,1,ITC,loss,5,right,11,ITC_choice,1876,j,0,0,-15,472410,151835
26,18,female,Belgium,1,1,ITC,loss,5,right,11,ITC_wait,0,undefined,0,0,-15,467402,156843
26,18,female,Belgium,1,1,ITC,loss,5,right,11,ITC_collect,17829,k,0,0,-15,449568,174677
26,18,female,Belgium,1,1,ITC,loss,5,right,11,ITC_outcome,0,undefined,0,0,5,448546,175699
26,18,female,Belgium,1,2,guess,neutral,10,right,7,guess_start,514,space,0,0,5,448023,176222
26,18,female,Belgium,1,2,guess,neutral,10,right,7,guess_choice,1427,j,0,0,5,446576,177669
26,18,female,Belgium,1,2,guess,neutral,10,right,7,guess_outcome,0,undefined,0,0,5,445005,179240
26,18,female,Belgium,1,2,ITC,neutral,10,right,7,ITC_start,570,space,0,0,5,444429,179816
26,18,female,Belgium,1,2,ITC,neutral,10,right,7,ITC_choice,1432,f,0,0,5,442989,181256
26,18,female,Belgium,1,2,ITC,neutral,10,right,7,ITC_wait,0,undefined,0,0,5,442984,181261
26,18,female,Belgium,1,2,ITC,neutral,10,right,7,ITC_collect,1154,k,0,0,5,441826,182419
26,18,female,Belgium,1,2,ITC,neutral,10,right,7,ITC_outcome,0,undefined,0,0,12,440805,183440
26,18,female,Belgium,1,3,guess,loss,10,left,7,guess_start,31,space,0,0,12,440768,183477
26,18,female,Belgium,1,3,guess,loss,10,left,7,guess_choice,1062,f,0,0,12,439689,184556
26,18,female,Belgium,1,3,guess,loss,10,left,7,guess_outcome,0,undefined,0,0,-3,438129,186116
26,18,female,Belgium,1,3,ITC,loss,10,left,7,ITC_start,728,space,0,0,-3,437394,186851
26,18,female,Belgium,1,3,ITC,loss,10,left,7,ITC_choice,1543,j,0,0,-3,435847,188398
26,18,female,Belgium,1,3,ITC,loss,10,left,7,ITC_wait,0,undefined,0,0,-3,435843,188402
26,18,female,Belgium,1,3,ITC,loss,10,left,7,ITC_collect,7310,k,0,0,-3,428528,195717
26,18,female,Belgium,1,3,ITC,loss,10,left,7,ITC_outcome,0,undefined,0,0,4,427504,196741
26,18,female,Belgium,1,4,guess,loss,5,left,3,guess_start,1657,space,0,0,4,425842,198403
26,18,female,Belgium,1,4,guess,loss,5,left,3,guess_choice,3139,f,0,0,4,422684,201561
26,18,female,Belgium,1,4,guess,loss,5,left,3,guess_outcome,0,undefined,0,0,-11,421128,203117
26,18,female,Belgium,1,4,ITC,loss,5,left,3,ITC_start,9098,space,0,0,-11,412027,212218
26,18,female,Belgium,1,4,ITC,loss,5,left,3,ITC_choice,4219,f,0,0,-11,407804,216441
26,18,female,Belgium,1,4,ITC,loss,5,left,3,ITC_wait,0,undefined,0,0,-11,402800,221445
26,18,female,Belgium,1,4,ITC,loss,5,left,3,ITC_collect,5228,k,0,0,-11,397568,226677
26,18,female,Belgium,1,4,ITC,loss,5,left,3,ITC_outcome,0,undefined,0,0,9,396560,227685
26,18,female,Belgium,1,5,guess,neutral,5,right,16,guess_start,963,space,0,0,9,395593,228652
26,18,female,Belgium,1,5,guess,neutral,5,right,16,guess_choice,1207,f,0,0,9,394378,229867
26,18,female,Belgium,1,5,guess,neutral,5,right,16,guess_outcome,0,undefined,0,0,9,392818,231427
26,18,female,Belgium,1,5,ITC,neutral,5,right,16,ITC_start,1364,space,0,0,9,391451,232794
26,18,female,Belgium,1,5,ITC,neutral,5,right,16,ITC_choice,1456,f,0,0,9,389991,234254
26,18,female,Belgium,1,5,ITC,neutral,5,right,16,ITC_wait,0,undefined,0,0,9,389987,234258
26,18,female,Belgium,1,5,ITC,neutral,5,right,16,ITC_collect,921,k,0,0,9,389064,235181
26,18,female,Belgium,1,5,ITC,neutral,5,right,16,ITC_outcome,0,undefined,0,0,25,388054,236191
26,18,female,Belgium,1,6,guess,loss,5,left,7,guess_start,626,space,0,0,25,387424,236821
26,18,female,Belgium,1,6,guess,loss,5,left,7,guess_choice,1117,f,0,0,25,386298,237947
26,18,female,Belgium,1,6,guess,loss,5,left,7,guess_outcome,0,undefined,0,0,10,384737,239508
26,18,female,Belgium,1,6,ITC,loss,5,left,7,ITC_start,2250,space,0,0,10,382483,241762
26,18,female,Belgium,1,6,ITC,loss,5,left,7,ITC_choice,2341,j,0,0,10,380138,244107
26,18,female,Belgium,1,6,ITC,loss,5,left,7,ITC_wait,0,undefined,0,0,10,380134,244111
26,18,female,Belgium,1,6,ITC,loss,5,left,7,ITC_collect,1355,k,0,0,10,378776,245469
26,18,female,Belgium,1,6,ITC,loss,5,left,7,ITC_outcome,0,undefined,0,0,17,377763,246482
26,18,female,Belgium,1,7,guess,loss,10,right,5,guess_start,577,space,0,0,17,377182,247063
26,18,female,Belgium,1,7,guess,loss,10,right,5,guess_choice,5289,f,0,0,17,371881,252364
26,18,female,Belgium,1,7,guess,loss,10,right,5,guess_outcome,0,undefined,0,0,2,370319,253926
26,18,female,Belgium,1,7,ITC,loss,10,right,5,ITC_start,3751,space,0,0,2,366564,257681
26,18,female,Belgium,1,7,ITC,loss,10,right,5,ITC_choice,2459,f,0,0,2,364100,260145
26,18,female,Belgium,1,7,ITC,loss,10,right,5,ITC_wait,0,undefined,0,0,2,364096,260149
26,18,female,Belgium,1,7,ITC,loss,10,right,5,ITC_collect,5067,k,0,0,2,359026,265219
26,18,female,Belgium,1,7,ITC,loss,10,right,5,ITC_outcome,0,undefined,0,0,7,358013,266232
26,18,female,Belgium,1,8,guess,loss,5,right,16,guess_start,419,space,0,0,7,357590,266655
26,18,female,Belgium,1,8,guess,loss,5,right,16,guess_choice,3750,j,0,0,7,353826,270419
26,18,female,Belgium,1,8,guess,loss,5,right,16,guess_outcome,0,undefined,0,0,-8,352260,271985
26,18,female,Belgium,1,8,ITC,loss,5,right,16,ITC_start,20092,space,0,0,-8,332164,292081
26,18,female,Belgium,1,8,ITC,loss,5,right,16,ITC_choice,1241,f,0,0,-8,330917,293328
26,18,female,Belgium,1,8,ITC,loss,5,right,16,ITC_wait,0,undefined,0,0,-8,330913,293332
26,18,female,Belgium,1,8,ITC,loss,5,right,16,ITC_collect,1078,k,0,0,-8,329831,294414
26,18,female,Belgium,1,8,ITC,loss,5,right,16,ITC_outcome,0,undefined,0,0,8,328813,295432
26,18,female,Belgium,1,9,guess,win,5,left,3,guess_start,10235,space,0,0,8,318573,305672
26,18,female,Belgium,1,9,guess,win,5,left,3,guess_choice,2250,f,0,0,8,316303,307942
26,18,female,Belgium,1,9,guess,win,5,left,3,guess_outcome,0,undefined,0,0,28,314735,309510
26,18,female,Belgium,1,9,ITC,win,5,left,3,ITC_start,2154,space,0,0,28,312575,311670
26,18,female,Belgium,1,9,ITC,win,5,left,3,ITC_choice,1612,j,0,0,28,310956,313289
26,18,female,Belgium,1,9,ITC,win,5,left,3,ITC_wait,0,undefined,0,0,28,310951,313294
26,18,female,Belgium,1,9,ITC,win,5,left,3,ITC_collect,7871,k,0,0,28,303076,321169
26,18,female,Belgium,1,9,ITC,win,5,left,3,ITC_outcome,0,undefined,0,0,31,302054,322191
26,18,female,Belgium,1,10,guess,neutral,5,right,5,guess_start,45,space,0,0,31,302004,322241
26,18,female,Belgium,1,10,guess,neutral,5,right,5,guess_choice,1366,f,0,0,31,300618,323627
26,18,female,Belgium,1,10,guess,neutral,5,right,5,guess_outcome,0,undefined,0,0,31,299046,325199
26,18,female,Belgium,1,10,ITC,neutral,5,right,5,ITC_start,595,space,0,0,31,298444,325801
26,18,female,Belgium,1,10,ITC,neutral,5,right,5,ITC_choice,1022,f,0,0,31,297416,326829
26,18,female,Belgium,1,10,ITC,neutral,5,right,5,ITC_wait,0,undefined,0,0,31,297411,326834
26,18,female,Belgium,1,10,ITC,neutral,5,right,5,ITC_collect,3687,k,0,0,31,293718,330527
26,18,female,Belgium,1,10,ITC,neutral,5,right,5,ITC_outcome,0,undefined,0,0,36,292694,331551
26,18,female,Belgium,1,11,guess,neutral,5,right,4,guess_start,635,space,0,0,36,292052,332193
26,18,female,Belgium,1,11,guess,neutral,5,right,4,guess_choice,1034,f,0,0,36,290997,333248
26,18,female,Belgium,1,11,guess,neutral,5,right,4,guess_outcome,0,undefined,0,0,36,289428,334817
26,18,female,Belgium,1,11,ITC,neutral,5,right,4,ITC_start,637,space,0,0,36,288787,335458
26,18,female,Belgium,1,11,ITC,neutral,5,right,4,ITC_choice,2595,j,0,0,36,286189,338056
26,18,female,Belgium,1,11,ITC,neutral,5,right,4,ITC_wait,0,undefined,0,0,36,281186,343059
26,18,female,Belgium,1,11,ITC,neutral,5,right,4,ITC_collect,1070,k,0,0,36,280113,344132
26,18,female,Belgium,1,11,ITC,neutral,5,right,4,ITC_outcome,0,undefined,0,0,56,279108,345137
26,18,female,Belgium,1,12,guess,win,10,left,3,guess_start,756,space,0,0,56,278349,345896
26,18,female,Belgium,1,12,guess,win,10,left,3,guess_choice,1761,j,0,0,56,276582,347663
26,18,female,Belgium,1,12,guess,win,10,left,3,guess_outcome,0,undefined,0,0,76,275026,349219
26,18,female,Belgium,1,12,ITC,win,10,left,3,ITC_start,918,space,0,0,76,274104,350141
26,18,female,Belgium,1,12,ITC,win,10,left,3,ITC_choice,1217,j,0,0,76,272885,351360
26,18,female,Belgium,1,12,ITC,win,10,left,3,ITC_wait,0,undefined,0,0,76,272881,351364
26,18,female,Belgium,1,12,ITC,win,10,left,3,ITC_collect,1777,k,0,0,76,271103,353142
26,18,female,Belgium,1,12,ITC,win,10,left,3,ITC_outcome,0,undefined,0,0,79,270096,354149
26,18,female,Belgium,1,13,guess,neutral,5,left,14,guess_start,996,space,0,0,79,269096,355149
26,18,female,Belgium,1,13,guess,neutral,5,left,14,guess_choice,1099,j,0,0,79,267991,356254
26,18,female,Belgium,1,13,guess,neutral,5,left,14,guess_outcome,0,undefined,0,0,79,266434,357811
26,18,female,Belgium,1,13,ITC,neutral,5,left,14,ITC_start,6477,space,0,0,79,259954,364291
26,18,female,Belgium,1,13,ITC,neutral,5,left,14,ITC_choice,1442,j,0,0,79,258509,365736
26,18,female,Belgium,1,13,ITC,neutral,5,left,14,ITC_wait,0,undefined,0,0,79,258504,365741
26,18,female,Belgium,1,13,ITC,neutral,5,left,14,ITC_collect,2106,k,0,0,79,256395,367850
26,18,female,Belgium,1,13,ITC,neutral,5,left,14,ITC_outcome,0,undefined,0,0,93,255386,368859
26,18,female,Belgium,1,14,guess,win,5,right,1,guess_start,3122,space,0,0,93,252261,371984
26,18,female,Belgium,1,14,guess,win,5,right,1,guess_choice,1139,f,0,0,93,251110,373135
26,18,female,Belgium,1,14,guess,win,5,right,1,guess_outcome,0,undefined,0,0,113,249550,374695
26,18,female,Belgium,1,14,ITC,win,5,right,1,ITC_start,1480,space,0,0,113,248067,376178
26,18,female,Belgium,1,14,ITC,win,5,right,1,ITC_choice,1784,j,0,0,113,246280,377965
26,18,female,Belgium,1,14,ITC,win,5,right,1,ITC_wait,0,undefined,0,0,113,241276,382969
26,18,female,Belgium,1,14,ITC,win,5,right,1,ITC_collect,4698,k,0,0,113,236574,387671
26,18,female,Belgium,1,14,ITC,win,5,right,1,ITC_outcome,0,undefined,0,0,133,235563,388682
26,18,female,Belgium,1,15,guess,win,5,right,12,guess_start,1382,space,0,0,133,234176,390069
26,18,female,Belgium,1,15,guess,win,5,right,12,guess_choice,906,j,0,0,133,233258,390987
26,18,female,Belgium,1,15,guess,win,5,right,12,guess_outcome,0,undefined,0,0,153,231694,392551
26,18,female,Belgium,1,15,ITC,win,5,right,12,ITC_start,1194,space,0,0,153,230495,393750
26,18,female,Belgium,1,15,ITC,win,5,right,12,ITC_choice,1128,f,0,0,153,229363,394882
26,18,female,Belgium,1,15,ITC,win,5,right,12,ITC_wait,0,undefined,0,0,153,229358,394887
26,18,female,Belgium,1,15,ITC,win,5,right,12,ITC_collect,3379,k,0,0,153,225975,398270
26,18,female,Belgium,1,15,ITC,win,5,right,12,ITC_outcome,0,undefined,0,0,165,224961,399284
26,18,female,Belgium,1,16,guess,win,5,right,15,guess_start,608,space,0,0,165,224348,399897
26,18,female,Belgium,1,16,guess,win,5,right,15,guess_choice,2142,f,0,0,165,222193,402052
26,18,female,Belgium,1,16,guess,win,5,right,15,guess_outcome,0,undefined,0,0,185,220628,403617
26,18,female,Belgium,1,16,ITC,win,5,right,15,ITC_start,6127,space,0,0,185,214497,409748
26,18,female,Belgium,1,16,ITC,win,5,right,15,ITC_choice,1110,f,0,0,185,213382,410863
26,18,female,Belgium,1,16,ITC,win,5,right,15,ITC_wait,0,undefined,0,0,185,213377,410868
26,18,female,Belgium,1,16,ITC,win,5,right,15,ITC_collect,2478,k,0,0,185,210895,413350
26,18,female,Belgium,1,16,ITC,win,5,right,15,ITC_outcome,0,undefined,0,0,200,209878,414367
26,18,female,Belgium,1,17,guess,loss,5,left,8,guess_start,626,space,0,0,200,209247,414998
26,18,female,Belgium,1,17,guess,loss,5,left,8,guess_choice,1232,f,0,0,200,208001,416244
26,18,female,Belgium,1,17,guess,loss,5,left,8,guess_outcome,0,undefined,0,0,185,206435,417810
26,18,female,Belgium,1,17,ITC,loss,5,left,8,ITC_start,1824,space,0,0,185,204605,419640
26,18,female,Belgium,1,17,ITC,loss,5,left,8,ITC_choice,1412,j,0,0,185,203188,421057
26,18,female,Belgium,1,17,ITC,loss,5,left,8,ITC_wait,0,undefined,0,0,185,203184,421061
26,18,female,Belgium,1,17,ITC,loss,5,left,8,ITC_collect,5759,k,0,0,185,197420,426825
26,18,female,Belgium,1,17,ITC,loss,5,left,8,ITC_outcome,0,undefined,0,0,193,196402,427843
26,18,female,Belgium,1,18,guess,loss,5,right,2,guess_start,1909,space,0,0,193,194488,429757
26,18,female,Belgium,1,18,guess,loss,5,right,2,guess_choice,1180,f,0,0,193,193290,430955
26,18,female,Belgium,1,18,guess,loss,5,right,2,guess_outcome,0,undefined,0,0,178,191720,432525
26,18,female,Belgium,1,18,ITC,loss,5,right,2,ITC_start,2952,space,0,0,178,188762,435483
26,18,female,Belgium,1,18,ITC,loss,5,right,2,ITC_choice,1286,j,0,0,178,187471,436774
26,18,female,Belgium,1,18,ITC,loss,5,right,2,ITC_wait,0,undefined,0,0,178,182463,441782
26,18,female,Belgium,1,18,ITC,loss,5,right,2,ITC_collect,773,k,0,0,178,181684,442561
26,18,female,Belgium,1,18,ITC,loss,5,right,2,ITC_outcome,0,undefined,0,0,198,180662,443583
26,18,female,Belgium,1,19,guess,neutral,5,left,6,guess_start,619,space,0,0,198,180037,444208
26,18,female,Belgium,1,19,guess,neutral,5,left,6,guess_choice,992,j,0,0,198,179025,445220
26,18,female,Belgium,1,19,guess,neutral,5,left,6,guess_outcome,0,undefined,0,0,198,177454,446791
26,18,female,Belgium,1,19,ITC,neutral,5,left,6,ITC_start,576,space,0,0,198,176872,447373
26,18,female,Belgium,1,19,ITC,neutral,5,left,6,ITC_choice,741,j,0,0,198,176124,448121
26,18,female,Belgium,1,19,ITC,neutral,5,left,6,ITC_wait,0,undefined,0,0,198,176120,448125
26,18,female,Belgium,1,19,ITC,neutral,5,left,6,ITC_collect,744,k,0,0,198,175371,448874
26,18,female,Belgium,1,19,ITC,neutral,5,left,6,ITC_outcome,0,undefined,0,0,204,174353,449892
26,18,female,Belgium,1,20,guess,win,5,left,16,guess_start,292,space,0,0,204,174057,450188
26,18,female,Belgium,1,20,guess,win,5,left,16,guess_choice,714,f,0,0,204,173338,450907
26,18,female,Belgium,1,20,guess,win,5,left,16,guess_outcome,0,undefined,0,0,224,171781,452464
26,18,female,Belgium,1,20,ITC,win,5,left,16,ITC_start,408,space,0,0,224,171369,452876
26,18,female,Belgium,1,20,ITC,win,5,left,16,ITC_choice,644,j,0,0,224,170723,453522
26,18,female,Belgium,1,20,ITC,win,5,left,16,ITC_wait,0,undefined,0,0,224,170719,453526
26,18,female,Belgium,1,20,ITC,win,5,left,16,ITC_collect,931,k,0,0,224,169787,454458
26,18,female,Belgium,1,20,ITC,win,5,left,16,ITC_outcome,0,undefined,0,0,240,168782,455463
26,18,female,Belgium,1,21,guess,neutral,10,right,8,guess_start,294,space,0,0,240,168484,455761
26,18,female,Belgium,1,21,guess,neutral,10,right,8,guess_choice,658,f,0,0,240,167821,456424
26,18,female,Belgium,1,21,guess,neutral,10,right,8,guess_outcome,0,undefined,0,0,240,166265,457980
26,18,female,Belgium,1,21,ITC,neutral,10,right,8,ITC_start,469,space,0,0,240,165792,458453
26,18,female,Belgium,1,21,ITC,neutral,10,right,8,ITC_choice,1102,f,0,0,240,164687,459558
26,18,female,Belgium,1,21,ITC,neutral,10,right,8,ITC_wait,0,undefined,0,0,240,164683,459562
26,18,female,Belgium,1,21,ITC,neutral,10,right,8,ITC_collect,752,k,0,0,240,163930,460315
26,18,female,Belgium,1,21,ITC,neutral,10,right,8,ITC_outcome,0,undefined,0,0,248,162925,461320
26,18,female,Belgium,1,22,guess,loss,5,left,6,guess_start,260,space,0,0,248,162661,461584
26,18,female,Belgium,1,22,guess,loss,5,left,6,guess_choice,1077,j,0,0,248,161578,462667
26,18,female,Belgium,1,22,guess,loss,5,left,6,guess_outcome,0,undefined,0,0,233,160020,464225
26,18,female,Belgium,1,22,ITC,loss,5,left,6,ITC_start,420,space,0,0,233,159598,464647
26,18,female,Belgium,1,22,ITC,loss,5,left,6,ITC_choice,631,j,0,0,233,158963,465282
26,18,female,Belgium,1,22,ITC,loss,5,left,6,ITC_wait,0,undefined,0,0,233,158960,465285
26,18,female,Belgium,1,22,ITC,loss,5,left,6,ITC_collect,965,k,0,0,233,157993,466252
26,18,female,Belgium,1,22,ITC,loss,5,left,6,ITC_outcome,0,undefined,0,0,239,156985,467260
26,18,female,Belgium,1,23,guess,loss,5,right,15,guess_start,433,space,0,0,239,156548,467697
26,18,female,Belgium,1,23,guess,loss,5,right,15,guess_choice,558,f,0,0,239,155983,468262
26,18,female,Belgium,1,23,guess,loss,5,right,15,guess_outcome,0,undefined,0,0,224,154426,469819
26,18,female,Belgium,1,23,ITC,loss,5,right,15,ITC_start,435,space,0,0,224,153987,470258
26,18,female,Belgium,1,23,ITC,loss,5,right,15,ITC_choice,1681,f,0,0,224,152303,471942
26,18,female,Belgium,1,23,ITC,loss,5,right,15,ITC_wait,0,undefined,0,0,224,152299,471946
26,18,female,Belgium,1,23,ITC,loss,5,right,15,ITC_collect,679,k,0,0,224,151618,472627
26,18,female,Belgium,1,23,ITC,loss,5,right,15,ITC_outcome,0,undefined,0,0,239,150610,473635
26,18,female,Belgium,1,24,guess,win,5,right,14,guess_start,378,space,0,0,239,150229,474016
26,18,female,Belgium,1,24,guess,win,5,right,14,guess_choice,637,f,0,0,239,149585,474660
26,18,female,Belgium,1,24,guess,win,5,right,14,guess_outcome,0,undefined,0,0,259,148026,476219
26,18,female,Belgium,1,24,ITC,win,5,right,14,ITC_start,597,space,0,0,259,147425,476820
26,18,female,Belgium,1,24,ITC,win,5,right,14,ITC_choice,4196,f,0,0,259,143226,481019
26,18,female,Belgium,1,24,ITC,win,5,right,14,ITC_wait,0,undefined,0,0,259,143222,481023
26,18,female,Belgium,1,24,ITC,win,5,right,14,ITC_collect,745,k,0,0,259,142475,481770
26,18,female,Belgium,1,24,ITC,win,5,right,14,ITC_outcome,0,undefined,0,0,273,141467,482778
26,18,female,Belgium,1,25,guess,neutral,5,right,3,guess_start,30,space,0,0,273,141432,482813
26,18,female,Belgium,1,25,guess,neutral,5,right,3,guess_choice,689,j,0,0,273,140735,483510
26,18,female,Belgium,1,25,guess,neutral,5,right,3,guess_outcome,0,undefined,0,0,273,139175,485070
26,18,female,Belgium,1,25,ITC,neutral,5,right,3,ITC_start,1050,space,0,0,273,138122,486123
26,18,female,Belgium,1,25,ITC,neutral,5,right,3,ITC_choice,1033,f,0,0,273,137085,487160
26,18,female,Belgium,1,25,ITC,neutral,5,right,3,ITC_wait,0,undefined,0,0,273,137081,487164
26,18,female,Belgium,1,25,ITC,neutral,5,right,3,ITC_collect,1890,k,0,0,273,135190,489055
26,18,female,Belgium,1,25,ITC,neutral,5,right,3,ITC_outcome,0,undefined,0,0,276,134184,490061
26,18,female,Belgium,1,26,guess,neutral,5,right,15,guess_start,371,space,0,0,276,133808,490437
26,18,female,Belgium,1,26,guess,neutral,5,right,15,guess_choice,638,j,0,0,276,133159,491086
26,18,female,Belgium,1,26,guess,neutral,5,right,15,guess_outcome,0,undefined,0,0,276,131599,492646
26,18,female,Belgium,1,26,ITC,neutral,5,right,15,ITC_start,567,space,0,0,276,131028,493217
26,18,female,Belgium,1,26,ITC,neutral,5,right,15,ITC_choice,840,f,0,0,276,130184,494061
26,18,female,Belgium,1,26,ITC,neutral,5,right,15,ITC_wait,0,undefined,0,0,276,130180,494065
26,18,female,Belgium,1,26,ITC,neutral,5,right,15,ITC_collect,546,k,0,0,276,129631,494614
26,18,female,Belgium,1,26,ITC,neutral,5,right,15,ITC_outcome,0,undefined,0,0,291,128619,495626
26,18,female,Belgium,1,27,guess,win,10,left,1,guess_start,364,space,0,0,291,128250,495995
26,18,female,Belgium,1,27,guess,win,10,left,1,guess_choice,629,f,0,0,291,127611,496634
26,18,female,Belgium,1,27,guess,win,10,left,1,guess_outcome,0,undefined,0,0,311,126048,498197
26,18,female,Belgium,1,27,ITC,win,10,left,1,ITC_start,338,space,0,0,311,125706,498539
26,18,female,Belgium,1,27,ITC,win,10,left,1,ITC_choice,922,j,0,0,311,124780,499465
26,18,female,Belgium,1,27,ITC,win,10,left,1,ITC_wait,0,undefined,0,0,311,124775,499470
26,18,female,Belgium,1,27,ITC,win,10,left,1,ITC_collect,744,k,0,0,311,124029,500216
26,18,female,Belgium,1,27,ITC,win,10,left,1,ITC_outcome,0,undefined,0,0,312,123017,501228
26,18,female,Belgium,1,28,guess,win,5,left,4,guess_start,328,space,0,0,312,122684,501561
26,18,female,Belgium,1,28,guess,win,5,left,4,guess_choice,659,j,0,0,312,122013,502232
26,18,female,Belgium,1,28,guess,win,5,left,4,guess_outcome,0,undefined,0,0,332,120448,503797
26,18,female,Belgium,1,28,ITC,win,5,left,4,ITC_start,431,space,0,0,332,120013,504232
26,18,female,Belgium,1,28,ITC,win,5,left,4,ITC_choice,628,j,0,0,332,119380,504865
26,18,female,Belgium,1,28,ITC,win,5,left,4,ITC_wait,0,undefined,0,0,332,119376,504869
26,18,female,Belgium,1,28,ITC,win,5,left,4,ITC_collect,675,k,0,0,332,118697,505548
26,18,female,Belgium,1,28,ITC,win,5,left,4,ITC_outcome,0,undefined,0,0,336,117685,506560
26,18,female,Belgium,1,29,guess,loss,5,left,4,guess_start,1,space,0,0,336,117681,506564
26,18,female,Belgium,1,29,guess,loss,5,left,4,guess_choice,578,f,0,0,336,117091,507154
26,18,female,Belgium,1,29,guess,loss,5,left,4,guess_outcome,0,undefined,0,0,321,115528,508717
26,18,female,Belgium,1,29,ITC,loss,5,left,4,ITC_start,371,space,0,0,321,115152,509093
26,18,female,Belgium,1,29,ITC,loss,5,left,4,ITC_wait,0,undefined,0,0,321,114552,509693
26,18,female,Belgium,1,29,ITC,loss,5,left,4,ITC_choice,592,j,0,0,321,114556,509689
26,18,female,Belgium,1,29,ITC,loss,5,left,4,ITC_collect,865,k,0,0,321,113684,510561
26,18,female,Belgium,1,29,ITC,loss,5,left,4,ITC_outcome,0,undefined,0,0,325,112671,511574
26,18,female,Belgium,1,30,guess,neutral,5,left,2,guess_start,378,space,0,0,325,112288,511957
26,18,female,Belgium,1,30,guess,neutral,5,left,2,guess_choice,612,f,0,0,325,111663,512582
26,18,female,Belgium,1,30,guess,neutral,5,left,2,guess_outcome,0,undefined,0,0,325,110098,514147
26,18,female,Belgium,1,30,ITC,neutral,5,left,2,ITC_start,1331,space,0,0,325,108764,515481
26,18,female,Belgium,1,30,ITC,neutral,5,left,2,ITC_choice,631,j,0,0,325,108129,516116
26,18,female,Belgium,1,30,ITC,neutral,5,left,2,ITC_wait,0,undefined,0,0,325,108125,516120
26,18,female,Belgium,1,30,ITC,neutral,5,left,2,ITC_collect,720,k,0,0,325,107402,516843
26,18,female,Belgium,1,30,ITC,neutral,5,left,2,ITC_outcome,0,undefined,0,0,327,106393,517852
26,18,female,Belgium,1,31,guess,loss,10,right,4,guess_start,260,space,0,0,327,106129,518116
26,18,female,Belgium,1,31,guess,loss,10,right,4,guess_choice,931,f,0,0,327,105194,519051
26,18,female,Belgium,1,31,guess,loss,10,right,4,guess_outcome,0,undefined,0,0,312,103637,520608
26,18,female,Belgium,1,31,ITC,loss,10,right,4,ITC_start,528,space,0,0,312,103106,521139
26,18,female,Belgium,1,31,ITC,loss,10,right,4,ITC_choice,716,f,0,0,312,102387,521858
26,18,female,Belgium,1,31,ITC,loss,10,right,4,ITC_wait,0,undefined,0,0,312,102383,521862
26,18,female,Belgium,1,31,ITC,loss,10,right,4,ITC_collect,562,k,0,0,312,101820,522425
26,18,female,Belgium,1,31,ITC,loss,10,right,4,ITC_outcome,0,undefined,0,0,316,100816,523429
26,18,female,Belgium,1,32,guess,neutral,5,left,9,guess_start,1357,space,0,0,316,99456,524789
26,18,female,Belgium,1,32,guess,neutral,5,left,9,guess_choice,2972,j,0,0,316,96480,527765
26,18,female,Belgium,1,32,guess,neutral,5,left,9,guess_outcome,0,undefined,0,0,316,94922,529323
26,18,female,Belgium,1,32,ITC,neutral,5,left,9,ITC_start,129,space,0,0,316,94789,529456
26,18,female,Belgium,1,32,ITC,neutral,5,left,9,ITC_choice,1420,j,0,0,316,93366,530879
26,18,female,Belgium,1,32,ITC,neutral,5,left,9,ITC_wait,0,undefined,0,0,316,93362,530883
26,18,female,Belgium,1,32,ITC,neutral,5,left,9,ITC_collect,736,k,0,0,316,92624,531621
26,18,female,Belgium,1,32,ITC,neutral,5,left,9,ITC_outcome,0,undefined,0,0,325,91618,532627
26,18,female,Belgium,1,33,guess,loss,5,right,1,guess_start,323,space,0,0,325,91291,532954
26,18,female,Belgium,1,33,guess,loss,5,right,1,guess_choice,695,f,0,0,325,90589,533656
26,18,female,Belgium,1,33,guess,loss,5,right,1,guess_outcome,0,undefined,0,0,310,89033,535212
26,18,female,Belgium,1,33,ITC,loss,5,right,1,ITC_start,2891,space,0,0,310,86139,538106
26,18,female,Belgium,1,33,ITC,loss,5,right,1,ITC_wait,0,undefined,0,0,310,85352,538893
26,18,female,Belgium,1,33,ITC,loss,5,right,1,ITC_choice,780,f,0,0,310,85356,538889
26,18,female,Belgium,1,33,ITC,loss,5,right,1,ITC_collect,701,k,0,0,310,84649,539596
26,18,female,Belgium,1,33,ITC,loss,5,right,1,ITC_outcome,0,undefined,0,0,311,83641,540604
26,18,female,Belgium,1,34,guess,loss,5,left,9,guess_start,747,space,0,0,311,82890,541355
26,18,female,Belgium,1,34,guess,loss,5,left,9,guess_choice,615,j,0,0,311,82268,541977
26,18,female,Belgium,1,34,guess,loss,5,left,9,guess_outcome,0,undefined,0,0,296,80709,543536
26,18,female,Belgium,1,34,ITC,loss,5,left,9,ITC_start,576,space,0,0,296,80129,544116
26,18,female,Belgium,1,34,ITC,loss,5,left,9,ITC_choice,736,j,0,0,296,79390,544855
26,18,female,Belgium,1,34,ITC,loss,5,left,9,ITC_wait,0,undefined,0,0,296,79386,544859
26,18,female,Belgium,1,34,ITC,loss,5,left,9,ITC_collect,738,k,0,0,296,78646,545599
26,18,female,Belgium,1,34,ITC,loss,5,left,9,ITC_outcome,0,undefined,0,0,305,77639,546606
26,18,female,Belgium,1,35,guess,neutral,5,left,1,guess_start,902,space,0,0,305,76733,547512
26,18,female,Belgium,1,35,guess,neutral,5,left,1,guess_choice,682,j,0,0,305,76043,548202
26,18,female,Belgium,1,35,guess,neutral,5,left,1,guess_outcome,0,undefined,0,0,305,74484,549761
26,18,female,Belgium,1,35,ITC,neutral,5,left,1,ITC_start,1161,space,0,0,305,73319,550926
26,18,female,Belgium,1,35,ITC,neutral,5,left,1,ITC_choice,652,j,0,0,305,72663,551582
26,18,female,Belgium,1,35,ITC,neutral,5,left,1,ITC_wait,0,undefined,0,0,305,72659,551586
26,18,female,Belgium,1,35,ITC,neutral,5,left,1,ITC_collect,748,k,0,0,305,71909,552336
26,18,female,Belgium,1,35,ITC,neutral,5,left,1,ITC_outcome,0,undefined,0,0,306,70898,553347
26,18,female,Belgium,1,36,guess,win,10,right,4,guess_start,544,space,0,0,306,70350,553895
26,18,female,Belgium,1,36,guess,win,10,right,4,guess_choice,977,f,0,0,306,69363,554882
26,18,female,Belgium,1,36,guess,win,10,right,4,guess_outcome,0,undefined,0,0,326,67806,556439
26,18,female,Belgium,1,36,ITC,win,10,right,4,ITC_start,323,space,0,0,326,67479,556766
26,18,female,Belgium,1,36,ITC,win,10,right,4,ITC_choice,813,f,0,0,326,66663,557582
26,18,female,Belgium,1,36,ITC,win,10,right,4,ITC_wait,0,undefined,0,0,326,66659,557586
26,18,female,Belgium,1,36,ITC,win,10,right,4,ITC_collect,766,k,0,0,326,65890,558355
26,18,female,Belgium,1,36,ITC,win,10,right,4,ITC_outcome,0,undefined,0,0,330,64880,559365
26,18,female,Belgium,1,37,guess,loss,10,right,8,guess_start,300,space,0,0,330,64576,559669
26,18,female,Belgium,1,37,guess,loss,10,right,8,guess_choice,605,j,0,0,330,63961,560284
26,18,female,Belgium,1,37,guess,loss,10,right,8,guess_outcome,0,undefined,0,0,315,62400,561845
26,18,female,Belgium,1,37,ITC,loss,10,right,8,ITC_start,937,space,0,0,315,61458,562787
26,18,female,Belgium,1,37,ITC,loss,10,right,8,ITC_choice,1207,f,0,0,315,60247,563998
26,18,female,Belgium,1,37,ITC,loss,10,right,8,ITC_wait,0,undefined,0,0,315,60243,564002
26,18,female,Belgium,1,37,ITC,loss,10,right,8,ITC_collect,696,k,0,0,315,59545,564700
26,18,female,Belgium,1,37,ITC,loss,10,right,8,ITC_outcome,0,undefined,0,0,323,58535,565710
26,18,female,Belgium,1,38,guess,win,10,left,8,guess_start,154,space,0,0,323,58375,565870
26,18,female,Belgium,1,38,guess,win,10,left,8,guess_choice,678,f,0,0,323,57688,566557
26,18,female,Belgium,1,38,guess,win,10,left,8,guess_outcome,0,undefined,0,0,343,56124,568121
26,18,female,Belgium,1,38,ITC,win,10,left,8,ITC_start,31,space,0,0,343,56088,568157
26,18,female,Belgium,1,38,ITC,win,10,left,8,ITC_choice,577,j,0,0,343,55508,568737
26,18,female,Belgium,1,38,ITC,win,10,left,8,ITC_wait,0,undefined,0,0,343,55504,568741
26,18,female,Belgium,1,38,ITC,win,10,left,8,ITC_collect,1584,k,0,0,343,53917,570328
26,18,female,Belgium,1,38,ITC,win,10,left,8,ITC_outcome,0,undefined,0,0,351,52905,571340
26,18,female,Belgium,1,39,guess,win,10,left,5,guess_start,95,space,0,0,351,52806,571439
26,18,female,Belgium,1,39,guess,win,10,left,5,guess_choice,623,f,0,0,351,52170,572075
26,18,female,Belgium,1,39,guess,win,10,left,5,guess_outcome,0,undefined,0,0,371,50606,573639
26,18,female,Belgium,1,39,ITC,win,10,left,5,ITC_start,580,space,0,0,371,50022,574223
26,18,female,Belgium,1,39,ITC,win,10,left,5,ITC_choice,659,j,0,0,371,49359,574886
26,18,female,Belgium,1,39,ITC,win,10,left,5,ITC_wait,0,undefined,0,0,371,49355,574890
26,18,female,Belgium,1,39,ITC,win,10,left,5,ITC_collect,628,k,0,0,371,48724,575521
26,18,female,Belgium,1,39,ITC,win,10,left,5,ITC_outcome,0,undefined,0,0,376,47710,576535
26,18,female,Belgium,1,40,guess,neutral,5,right,10,guess_start,180,space,0,0,376,47525,576720
26,18,female,Belgium,1,40,guess,neutral,5,right,10,guess_choice,1552,f,0,0,376,45961,578284
26,18,female,Belgium,1,40,guess,neutral,5,right,10,guess_outcome,0,undefined,0,0,376,44398,579847
26,18,female,Belgium,1,40,ITC,neutral,5,right,10,ITC_start,473,space,0,0,376,43920,580325
26,18,female,Belgium,1,40,ITC,neutral,5,right,10,ITC_choice,726,f,0,0,376,43188,581057
26,18,female,Belgium,1,40,ITC,neutral,5,right,10,ITC_wait,0,undefined,0,0,376,43184,581061
26,18,female,Belgium,1,40,ITC,neutral,5,right,10,ITC_collect,640,k,0,0,376,42541,581704
26,18,female,Belgium,1,40,ITC,neutral,5,right,10,ITC_outcome,0,undefined,0,0,386,41527,582718
26,18,female,Belgium,1,41,guess,win,5,left,7,guess_start,113,space,0,0,386,41409,582836
26,18,female,Belgium,1,41,guess,win,5,left,7,guess_choice,607,f,0,0,386,40788,583457
26,18,female,Belgium,1,41,guess,win,5,left,7,guess_outcome,0,undefined,0,0,406,39222,585023
26,18,female,Belgium,1,41,ITC,win,5,left,7,ITC_start,178,space,0,0,406,39039,585206
26,18,female,Belgium,1,41,ITC,win,5,left,7,ITC_choice,562,j,0,0,406,38473,585772
26,18,female,Belgium,1,41,ITC,win,5,left,7,ITC_wait,0,undefined,0,0,406,38468,585777
26,18,female,Belgium,1,41,ITC,win,5,left,7,ITC_collect,845,k,0,0,406,37620,586625
26,18,female,Belgium,1,41,ITC,win,5,left,7,ITC_outcome,0,undefined,0,0,413,36605,587640
26,18,female,Belgium,1,42,guess,loss,10,right,2,guess_start,11,space,0,0,413,36589,587656
26,18,female,Belgium,1,42,guess,loss,10,right,2,guess_choice,742,f,0,0,413,35835,588410
26,18,female,Belgium,1,42,guess,loss,10,right,2,guess_outcome,0,undefined,0,0,398,34268,589977
26,18,female,Belgium,1,42,ITC,loss,10,right,2,ITC_start,399,space,0,0,398,33864,590381
26,18,female,Belgium,1,42,ITC,loss,10,right,2,ITC_choice,632,f,0,0,398,33228,591017
26,18,female,Belgium,1,42,ITC,loss,10,right,2,ITC_wait,0,undefined,0,0,398,33223,591022
26,18,female,Belgium,1,42,ITC,loss,10,right,2,ITC_collect,621,k,0,0,398,32599,591646
26,18,female,Belgium,1,42,ITC,loss,10,right,2,ITC_outcome,0,undefined,0,0,400,31584,592661
26,18,female,Belgium,1,43,guess,neutral,10,right,2,guess_start,180,space,0,0,400,31398,592847
26,18,female,Belgium,1,43,guess,neutral,10,right,2,guess_choice,909,f,0,0,400,30476,593769
26,18,female,Belgium,1,43,guess,neutral,10,right,2,guess_outcome,0,undefined,0,0,400,28919,595326
26,18,female,Belgium,1,43,ITC,neutral,10,right,2,ITC_start,640,space,0,0,400,28276,595969
26,18,female,Belgium,1,43,ITC,neutral,10,right,2,ITC_choice,841,f,0,0,400,27432,596813
26,18,female,Belgium,1,43,ITC,neutral,10,right,2,ITC_wait,0,undefined,0,0,400,27429,596816
26,18,female,Belgium,1,43,ITC,neutral,10,right,2,ITC_collect,947,k,0,0,400,26480,597765
26,18,female,Belgium,1,43,ITC,neutral,10,right,2,ITC_outcome,0,undefined,0,0,402,25474,598771
26,18,female,Belgium,1,44,guess,win,5,left,6,guess_start,492,space,0,0,402,24978,599267
26,18,female,Belgium,1,44,guess,win,5,left,6,guess_choice,646,j,0,0,402,24328,599917
26,18,female,Belgium,1,44,guess,win,5,left,6,guess_outcome,0,undefined,0,0,422,22770,601475
26,18,female,Belgium,1,44,ITC,win,5,left,6,ITC_start,588,space,0,0,422,22178,602067
26,18,female,Belgium,1,44,ITC,win,5,left,6,ITC_choice,847,j,0,0,422,21328,602917
26,18,female,Belgium,1,44,ITC,win,5,left,6,ITC_wait,0,undefined,0,0,422,21325,602920
26,18,female,Belgium,1,44,ITC,win,5,left,6,ITC_collect,776,k,0,0,422,20547,603698
26,18,female,Belgium,1,44,ITC,win,5,left,6,ITC_outcome,0,undefined,0,0,428,19541,604704
26,18,female,Belgium,1,45,guess,win,10,right,2,guess_start,575,space,0,0,428,18963,605282
26,18,female,Belgium,1,45,guess,win,10,right,2,guess_choice,652,f,0,0,428,18305,605940
26,18,female,Belgium,1,45,guess,win,10,right,2,guess_outcome,0,undefined,0,0,448,16748,607497
26,18,female,Belgium,1,45,ITC,win,10,right,2,ITC_start,633,space,0,0,448,16112,608133
26,18,female,Belgium,1,45,ITC,win,10,right,2,ITC_choice,882,f,0,0,448,15227,609018
26,18,female,Belgium,1,45,ITC,win,10,right,2,ITC_wait,0,undefined,0,0,448,15224,609021
26,18,female,Belgium,1,45,ITC,win,10,right,2,ITC_collect,840,k,0,0,448,14381,609864
26,18,female,Belgium,1,45,ITC,win,10,right,2,ITC_outcome,0,undefined,0,0,450,13375,610870
26,18,female,Belgium,1,46,guess,neutral,10,right,1,guess_start,119,space,0,0,450,13252,610993
26,18,female,Belgium,1,46,guess,neutral,10,right,1,guess_choice,666,f,0,0,450,12580,611665
26,18,female,Belgium,1,46,guess,neutral,10,right,1,guess_outcome,0,undefined,0,0,450,11020,613225
26,18,female,Belgium,1,46,ITC,neutral,10,right,1,ITC_start,580,space,0,0,450,10437,613808
26,18,female,Belgium,1,46,ITC,neutral,10,right,1,ITC_choice,884,f,0,0,450,9550,614695
26,18,female,Belgium,1,46,ITC,neutral,10,right,1,ITC_wait,0,undefined,0,0,450,9546,614699
26,18,female,Belgium,1,46,ITC,neutral,10,right,1,ITC_collect,981,k,0,0,450,8563,615682
26,18,female,Belgium,1,46,ITC,neutral,10,right,1,ITC_outcome,0,undefined,0,0,451,7556,616689
26,18,female,Belgium,1,47,guess,loss,5,right,13,guess_start,652,space,0,0,451,6901,617344
26,18,female,Belgium,1,47,guess,loss,5,right,13,guess_choice,1343,j,0,0,451,5550,618695
26,18,female,Belgium,1,47,guess,loss,5,right,13,guess_outcome,0,undefined,0,0,436,3991,620254
26,18,female,Belgium,1,47,ITC,loss,5,right,13,ITC_start,589,space,0,0,436,3398,620847
26,18,female,Belgium,1,47,ITC,loss,5,right,13,ITC_choice,653,f,0,0,436,2741,621504
26,18,female,Belgium,1,47,ITC,loss,5,right,13,ITC_wait,0,undefined,0,0,436,2736,621509
26,18,female,Belgium,1,47,ITC,loss,5,right,13,ITC_collect,640,k,0,0,436,2094,622151
26,18,female,Belgium,1,47,ITC,loss,5,right,13,ITC_outcome,0,undefined,0,0,449,1086,623159
26,18,female,Belgium,1,48,guess,loss,10,left,1,guess_start,61,space,0,0,449,1020,623225
26,18,female,Belgium,1,48,guess,loss,10,left,1,guess_choice,990,f,0,0,449,22,624223
26,18,female,Belgium,1,48,guess,loss,10,left,1,guess_outcome,0,undefined,0,0,449,-8,624253
26,18,female,Belgium,2,49,guess,neutral,5,left,7,guess_start,1128,space,0,0,0,478869,636551
26,18,female,Belgium,2,49,guess,neutral,5,left,7,guess_choice,538,f,0,0,0,478320,637100
26,18,female,Belgium,2,49,guess,neutral,5,left,7,guess_outcome,0,undefined,0,0,0,476758,638662
26,18,female,Belgium,2,49,ITC,neutral,5,left,7,ITC_start,621,space,0,0,0,476132,639288
26,18,female,Belgium,2,49,ITC,neutral,5,left,7,ITC_choice,610,j,0,0,0,475518,639902
26,18,female,Belgium,2,49,ITC,neutral,5,left,7,ITC_wait,0,undefined,0,0,0,475514,639906
26,18,female,Belgium,2,49,ITC,neutral,5,left,7,ITC_collect,952,k,0,0,0,474560,640860
26,18,female,Belgium,2,49,ITC,neutral,5,left,7,ITC_outcome,0,undefined,0,0,7,473548,641872
26,18,female,Belgium,2,50,guess,loss,10,right,3,guess_start,448,space,0,0,7,473096,642324
26,18,female,Belgium,2,50,guess,loss,10,right,3,guess_choice,4108,f,0,0,7,468976,646444
26,18,female,Belgium,2,50,guess,loss,10,right,3,guess_outcome,0,undefined,0,0,-8,467412,648008
26,18,female,Belgium,2,50,ITC,loss,10,right,3,ITC_start,614,space,0,0,-8,466794,648626
26,18,female,Belgium,2,50,ITC,loss,10,right,3,ITC_choice,856,f,0,0,-8,465934,649486
26,18,female,Belgium,2,50,ITC,loss,10,right,3,ITC_wait,0,undefined,0,0,-8,465930,649490
26,18,female,Belgium,2,50,ITC,loss,10,right,3,ITC_collect,1031,k,0,0,-8,464895,650525
26,18,female,Belgium,2,50,ITC,loss,10,right,3,ITC_outcome,0,undefined,0,0,-5,463883,651537
26,18,female,Belgium,2,51,guess,win,5,right,5,guess_start,1455,space,0,0,-5,462423,652997
26,18,female,Belgium,2,51,guess,win,5,right,5,guess_choice,616,f,0,0,-5,461795,653625
26,18,female,Belgium,2,51,guess,win,5,right,5,guess_outcome,0,undefined,0,0,15,460229,655191
26,18,female,Belgium,2,51,ITC,win,5,right,5,ITC_start,578,space,0,0,15,459646,655774
26,18,female,Belgium,2,51,ITC,win,5,right,5,ITC_choice,595,f,0,0,15,459047,656373
26,18,female,Belgium,2,51,ITC,win,5,right,5,ITC_wait,0,undefined,0,0,15,459042,656378
26,18,female,Belgium,2,51,ITC,win,5,right,5,ITC_collect,1539,k,0,0,15,457500,657920
26,18,female,Belgium,2,51,ITC,win,5,right,5,ITC_outcome,0,undefined,0,0,20,456485,658935
26,18,female,Belgium,2,52,guess,win,10,left,6,guess_start,667,space,0,0,20,455812,659608
26,18,female,Belgium,2,52,guess,win,10,left,6,guess_choice,733,j,0,0,20,455065,660355
26,18,female,Belgium,2,52,guess,win,10,left,6,guess_outcome,0,undefined,0,0,40,453498,661922
26,18,female,Belgium,2,52,ITC,win,10,left,6,ITC_start,422,space,0,0,40,453070,662350
26,18,female,Belgium,2,52,ITC,win,10,left,6,ITC_choice,683,j,0,0,40,452383,663037
26,18,female,Belgium,2,52,ITC,win,10,left,6,ITC_wait,0,undefined,0,0,40,452378,663042
26,18,female,Belgium,2,52,ITC,win,10,left,6,ITC_collect,1161,k,0,0,40,451214,664206
26,18,female,Belgium,2,52,ITC,win,10,left,6,ITC_outcome,0,undefined,0,0,46,450200,665220
26,18,female,Belgium,2,53,guess,loss,10,left,6,guess_start,218,space,0,0,46,449978,665442
26,18,female,Belgium,2,53,guess,loss,10,left,6,guess_choice,648,f,0,0,46,449314,666106
26,18,female,Belgium,2,53,guess,loss,10,left,6,guess_outcome,0,undefined,0,0,31,447748,667672
26,18,female,Belgium,2,53,ITC,loss,10,left,6,ITC_start,302,space,0,0,31,447443,667977
26,18,female,Belgium,2,53,ITC,loss,10,left,6,ITC_choice,579,j,0,0,31,446862,668558
26,18,female,Belgium,2,53,ITC,loss,10,left,6,ITC_wait,0,undefined,0,0,31,446859,668561
26,18,female,Belgium,2,53,ITC,loss,10,left,6,ITC_collect,343,k,0,0,31,446514,668906
26,18,female,Belgium,2,53,ITC,loss,10,left,6,ITC_outcome,0,undefined,0,0,37,445510,669910
26,18,female,Belgium,2,54,guess,neutral,10,left,4,guess_start,310,space,0,0,37,445196,670224
26,18,female,Belgium,2,54,guess,neutral,10,left,4,guess_choice,536,f,0,0,37,444655,670765
26,18,female,Belgium,2,54,guess,neutral,10,left,4,guess_outcome,0,undefined,0,0,37,443097,672323
26,18,female,Belgium,2,54,ITC,neutral,10,left,4,ITC_start,555,space,0,0,37,442540,672880
26,18,female,Belgium,2,54,ITC,neutral,10,left,4,ITC_wait,0,undefined,0,0,37,441995,673425
26,18,female,Belgium,2,54,ITC,neutral,10,left,4,ITC_choice,539,j,0,0,37,441998,673422
26,18,female,Belgium,2,54,ITC,neutral,10,left,4,ITC_collect,809,k,0,0,37,441184,674236
26,18,female,Belgium,2,54,ITC,neutral,10,left,4,ITC_outcome,0,undefined,0,0,41,440179,675241
26,18,female,Belgium,2,55,guess,neutral,10,left,6,guess_start,325,space,0,0,41,439850,675570
26,18,female,Belgium,2,55,guess,neutral,10,left,6,guess_choice,561,f,0,0,41,439284,676136
26,18,female,Belgium,2,55,guess,neutral,10,left,6,guess_outcome,0,undefined,0,0,41,437728,677692
26,18,female,Belgium,2,55,ITC,neutral,10,left,6,ITC_start,539,space,0,0,41,437186,678234
26,18,female,Belgium,2,55,ITC,neutral,10,left,6,ITC_choice,522,j,0,0,41,436661,678759
26,18,female,Belgium,2,55,ITC,neutral,10,left,6,ITC_wait,0,undefined,0,0,41,436657,678763
26,18,female,Belgium,2,55,ITC,neutral,10,left,6,ITC_collect,676,k,0,0,41,435979,679441
26,18,female,Belgium,2,55,ITC,neutral,10,left,6,ITC_outcome,0,undefined,0,0,47,434974,680446
26,18,female,Belgium,2,56,guess,win,5,right,2,guess_start,134,space,0,0,47,434837,680583
26,18,female,Belgium,2,56,guess,win,5,right,2,guess_choice,1062,j,0,0,47,433770,681650
26,18,female,Belgium,2,56,guess,win,5,right,2,guess_outcome,0,undefined,0,0,67,432213,683207
26,18,female,Belgium,2,56,ITC,win,5,right,2,ITC_start,526,space,0,0,67,431685,683735
26,18,female,Belgium,2,56,ITC,win,5,right,2,ITC_choice,671,f,0,0,67,431010,684410
26,18,female,Belgium,2,56,ITC,win,5,right,2,ITC_wait,0,undefined,0,0,67,431006,684414
26,18,female,Belgium,2,56,ITC,win,5,right,2,ITC_collect,868,k,0,0,67,430137,685283
26,18,female,Belgium,2,56,ITC,win,5,right,2,ITC_outcome,0,undefined,0,0,69,429130,686290
26,18,female,Belgium,2,57,guess,neutral,5,right,11,guess_start,24,space,0,0,69,429102,686318
26,18,female,Belgium,2,57,guess,neutral,5,right,11,guess_choice,722,j,0,0,69,428373,687047
26,18,female,Belgium,2,57,guess,neutral,5,right,11,guess_outcome,0,undefined,0,0,69,426815,688605
26,18,female,Belgium,2,57,ITC,neutral,5,right,11,ITC_start,389,space,0,0,69,426421,688999
26,18,female,Belgium,2,57,ITC,neutral,5,right,11,ITC_choice,722,f,0,0,69,425697,689723
26,18,female,Belgium,2,57,ITC,neutral,5,right,11,ITC_wait,0,undefined,0,0,69,425693,689727
26,18,female,Belgium,2,57,ITC,neutral,5,right,11,ITC_collect,551,k,0,0,69,425140,690280
26,18,female,Belgium,2,57,ITC,neutral,5,right,11,ITC_outcome,0,undefined,0,0,80,424133,691287
26,18,female,Belgium,2,58,guess,win,5,right,11,guess_start,230,space,0,0,80,423899,691521
26,18,female,Belgium,2,58,guess,win,5,right,11,guess_choice,610,f,0,0,80,423282,692138
26,18,female,Belgium,2,58,guess,win,5,right,11,guess_outcome,0,undefined,0,0,100,421722,693698
26,18,female,Belgium,2,58,ITC,win,5,right,11,ITC_start,456,space,0,0,100,421263,694157
26,18,female,Belgium,2,58,ITC,win,5,right,11,ITC_choice,794,f,0,0,100,420465,694955
26,18,female,Belgium,2,58,ITC,win,5,right,11,ITC_wait,0,undefined,0,0,100,420461,694959
26,18,female,Belgium,2,58,ITC,win,5,right,11,ITC_collect,810,k,0,0,100,419649,695771
26,18,female,Belgium,2,58,ITC,win,5,right,11,ITC_outcome,0,undefined,0,0,111,418641,696779
26,18,female,Belgium,2,59,guess,win,5,left,8,guess_start,144,space,0,0,111,418492,696928
26,18,female,Belgium,2,59,guess,win,5,left,8,guess_choice,542,j,0,0,111,417941,697479
26,18,female,Belgium,2,59,guess,win,5,left,8,guess_outcome,0,undefined,0,0,131,416381,699039
26,18,female,Belgium,2,59,ITC,win,5,left,8,ITC_start,525,space,0,0,131,415853,699567
26,18,female,Belgium,2,59,ITC,win,5,left,8,ITC_choice,595,j,0,0,131,415254,700166
26,18,female,Belgium,2,59,ITC,win,5,left,8,ITC_wait,0,undefined,0,0,131,415250,700170
26,18,female,Belgium,2,59,ITC,win,5,left,8,ITC_collect,827,k,0,0,131,414421,700999
26,18,female,Belgium,2,59,ITC,win,5,left,8,ITC_outcome,0,undefined,0,0,139,413412,702008
26,18,female,Belgium,2,60,guess,loss,5,left,5,guess_start,71,space,0,0,139,413336,702084
26,18,female,Belgium,2,60,guess,loss,5,left,5,guess_choice,498,f,0,0,139,412829,702591
26,18,female,Belgium,2,60,guess,loss,5,left,5,guess_outcome,0,undefined,0,0,124,411267,704153
26,18,female,Belgium,2,60,ITC,loss,5,left,5,ITC_start,292,space,0,0,124,410971,704449
26,18,female,Belgium,2,60,ITC,loss,5,left,5,ITC_wait,0,undefined,0,0,124,410383,705037
26,18,female,Belgium,2,60,ITC,loss,5,left,5,ITC_choice,579,j,0,0,124,410387,705033
26,18,female,Belgium,2,60,ITC,loss,5,left,5,ITC_collect,514,k,0,0,124,409867,705553
26,18,female,Belgium,2,60,ITC,loss,5,left,5,ITC_outcome,0,undefined,0,0,129,408858,706562
26,18,female,Belgium,2,61,guess,loss,5,left,12,guess_start,179,space,0,0,129,408676,706744
26,18,female,Belgium,2,61,guess,loss,5,left,12,guess_choice,501,f,0,0,129,408164,707256
26,18,female,Belgium,2,61,guess,loss,5,left,12,guess_outcome,0,undefined,0,0,114,406600,708820
26,18,female,Belgium,2,61,ITC,loss,5,left,12,ITC_start,450,space,0,0,114,406146,709274
26,18,female,Belgium,2,61,ITC,loss,5,left,12,ITC_wait,0,undefined,0,0,114,405559,709861
26,18,female,Belgium,2,61,ITC,loss,5,left,12,ITC_choice,578,j,0,0,114,405564,709856
26,18,female,Belgium,2,61,ITC,loss,5,left,12,ITC_collect,514,k,0,0,114,405043,710377
26,18,female,Belgium,2,61,ITC,loss,5,left,12,ITC_outcome,0,undefined,0,0,126,404032,711388
26,18,female,Belgium,2,62,guess,win,5,right,9,guess_start,14,space,0,0,126,404015,711405
26,18,female,Belgium,2,62,guess,win,5,right,9,guess_choice,938,j,0,0,126,403066,712354
26,18,female,Belgium,2,62,guess,win,5,right,9,guess_outcome,0,undefined,0,0,146,401502,713918
26,18,female,Belgium,2,62,ITC,win,5,right,9,ITC_start,580,space,0,0,146,400918,714502
26,18,female,Belgium,2,62,ITC,win,5,right,9,ITC_choice,718,f,0,0,146,400196,715224
26,18,female,Belgium,2,62,ITC,win,5,right,9,ITC_wait,0,undefined,0,0,146,400192,715228
26,18,female,Belgium,2,62,ITC,win,5,right,9,ITC_collect,1290,k,0,0,146,398900,716520
26,18,female,Belgium,2,62,ITC,win,5,right,9,ITC_outcome,0,undefined,0,0,155,397890,717530
26,18,female,Belgium,2,63,guess,neutral,10,right,5,guess_start,173,space,0,0,155,397712,717708
26,18,female,Belgium,2,63,guess,neutral,10,right,5,guess_choice,493,f,0,0,155,397208,718212
26,18,female,Belgium,2,63,guess,neutral,10,right,5,guess_outcome,0,undefined,0,0,155,395646,719774
26,18,female,Belgium,2,63,ITC,neutral,10,right,5,ITC_start,548,space,0,0,155,395093,720327
26,18,female,Belgium,2,63,ITC,neutral,10,right,5,ITC_choice,1066,f,0,0,155,394023,721397
26,18,female,Belgium,2,63,ITC,neutral,10,right,5,ITC_wait,0,undefined,0,0,155,394019,721401
26,18,female,Belgium,2,63,ITC,neutral,10,right,5,ITC_collect,802,k,0,0,155,393214,722206
26,18,female,Belgium,2,63,ITC,neutral,10,right,5,ITC_outcome,0,undefined,0,0,160,392202,723218
26,18,female,Belgium,2,64,guess,neutral,5,left,13,guess_start,137,space,0,0,160,392059,723361
26,18,female,Belgium,2,64,guess,neutral,5,left,13,guess_choice,5009,f,0,0,160,387039,728381
26,18,female,Belgium,2,64,guess,neutral,5,left,13,guess_outcome,0,undefined,0,0,160,385473,729947
26,18,female,Belgium,2,64,ITC,neutral,5,left,13,ITC_start,2289,space,0,0,160,383180,732240
26,18,female,Belgium,2,64,ITC,neutral,5,left,13,ITC_choice,632,j,0,0,160,382544,732876
26,18,female,Belgium,2,64,ITC,neutral,5,left,13,ITC_wait,0,undefined,0,0,160,382540,732880
26,18,female,Belgium,2,64,ITC,neutral,5,left,13,ITC_collect,742,k,0,0,160,381794,733626
26,18,female,Belgium,2,64,ITC,neutral,5,left,13,ITC_outcome,0,undefined,0,0,173,380781,734639
26,18,female,Belgium,2,65,guess,win,10,left,7,guess_start,542,space,0,0,173,380236,735184
26,18,female,Belgium,2,65,guess,win,10,left,7,guess_choice,663,f,0,0,173,379568,735852
26,18,female,Belgium,2,65,guess,win,10,left,7,guess_outcome,0,undefined,0,0,193,378014,737406
26,18,female,Belgium,2,65,ITC,win,10,left,7,ITC_start,481,space,0,0,193,377529,737891
26,18,female,Belgium,2,65,ITC,win,10,left,7,ITC_choice,698,j,0,0,193,376827,738593
26,18,female,Belgium,2,65,ITC,win,10,left,7,ITC_wait,0,undefined,0,0,193,376824,738596
26,18,female,Belgium,2,65,ITC,win,10,left,7,ITC_collect,528,k,0,0,193,376294,739126
26,18,female,Belgium,2,65,ITC,win,10,left,7,ITC_outcome,0,undefined,0,0,200,375289,740131
26,18,female,Belgium,2,66,guess,loss,5,right,14,guess_start,70,space,0,0,200,375217,740203
26,18,female,Belgium,2,66,guess,loss,5,right,14,guess_choice,579,f,0,0,200,374633,740787
26,18,female,Belgium,2,66,guess,loss,5,right,14,guess_outcome,0,undefined,0,0,185,373076,742344
26,18,female,Belgium,2,66,ITC,loss,5,right,14,ITC_start,266,space,0,0,185,372807,742613
26,18,female,Belgium,2,66,ITC,loss,5,right,14,ITC_choice,748,f,0,0,185,372055,743365
26,18,female,Belgium,2,66,ITC,loss,5,right,14,ITC_wait,0,undefined,0,0,185,372051,743369
26,18,female,Belgium,2,66,ITC,loss,5,right,14,ITC_collect,584,k,0,0,185,371465,743955
26,18,female,Belgium,2,66,ITC,loss,5,right,14,ITC_outcome,0,undefined,0,0,199,370461,744959
26,18,female,Belgium,2,67,guess,loss,5,left,10,guess_start,266,space,0,0,199,370192,745228
26,18,female,Belgium,2,67,guess,loss,5,left,10,guess_choice,595,j,0,0,199,369594,745826
26,18,female,Belgium,2,67,guess,loss,5,left,10,guess_outcome,0,undefined,0,0,184,368038,747382
26,18,female,Belgium,2,67,ITC,loss,5,left,10,ITC_start,189,space,0,0,184,367846,747574
26,18,female,Belgium,2,67,ITC,loss,5,left,10,ITC_choice,703,j,0,0,184,367139,748281
26,18,female,Belgium,2,67,ITC,loss,5,left,10,ITC_wait,0,undefined,0,0,184,367135,748285
26,18,female,Belgium,2,67,ITC,loss,5,left,10,ITC_collect,685,k,0,0,184,366448,748972
26,18,female,Belgium,2,67,ITC,loss,5,left,10,ITC_outcome,0,undefined,0,0,194,365441,749979
26,18,female,Belgium,2,68,guess,win,5,right,13,guess_start,298,space,0,0,194,365139,750281
26,18,female,Belgium,2,68,guess,win,5,right,13,guess_choice,551,f,0,0,194,364582,750838
26,18,female,Belgium,2,68,guess,win,5,right,13,guess_outcome,0,undefined,0,0,214,363022,752398
26,18,female,Belgium,2,68,ITC,win,5,right,13,ITC_start,457,space,0,0,214,362561,752859
26,18,female,Belgium,2,68,ITC,win,5,right,13,ITC_choice,1000,f,0,0,214,361557,753863
26,18,female,Belgium,2,68,ITC,win,5,right,13,ITC_wait,0,undefined,0,0,214,361553,753867
26,18,female,Belgium,2,68,ITC,win,5,right,13,ITC_collect,1024,k,0,0,214,360528,754892
26,18,female,Belgium,2,68,ITC,win,5,right,13,ITC_outcome,0,undefined,0,0,227,359520,755900
26,18,female,Belgium,2,69,guess,neutral,10,right,3,guess_start,272,space,0,0,227,359244,756176
26,18,female,Belgium,2,69,guess,neutral,10,right,3,guess_choice,2076,f,0,0,227,357161,758259
26,18,female,Belgium,2,69,guess,neutral,10,right,3,guess_outcome,0,undefined,0,0,227,355601,759819
26,18,female,Belgium,2,69,ITC,neutral,10,right,3,ITC_start,1970,space,0,0,227,353628,761792
26,18,female,Belgium,2,69,ITC,neutral,10,right,3,ITC_choice,818,f,0,0,227,352807,762613
26,18,female,Belgium,2,69,ITC,neutral,10,right,3,ITC_wait,0,undefined,0,0,227,352803,762617
26,18,female,Belgium,2,69,ITC,neutral,10,right,3,ITC_collect,513,k,0,0,227,352287,763133
26,18,female,Belgium,2,69,ITC,neutral,10,right,3,ITC_outcome,0,undefined,0,0,230,351279,764141
26,18,female,Belgium,2,70,guess,neutral,5,left,12,guess_start,337,space,0,0,230,350937,764483
26,18,female,Belgium,2,70,guess,neutral,5,left,12,guess_choice,1499,j,0,0,230,349430,765990
26,18,female,Belgium,2,70,guess,neutral,5,left,12,guess_outcome,0,undefined,0,0,230,347870,767550
26,18,female,Belgium,2,70,ITC,neutral,5,left,12,ITC_start,625,space,0,0,230,347241,768179
26,18,female,Belgium,2,70,ITC,neutral,5,left,12,ITC_choice,601,j,0,0,230,346636,768784
26,18,female,Belgium,2,70,ITC,neutral,5,left,12,ITC_wait,0,undefined,0,0,230,346632,768788
26,18,female,Belgium,2,70,ITC,neutral,5,left,12,ITC_collect,679,k,0,0,230,345950,769470
26,18,female,Belgium,2,70,ITC,neutral,5,left,12,ITC_outcome,0,undefined,0,0,242,344940,770480
26,18,female,Belgium,2,71,guess,win,5,right,10,guess_start,1095,space,0,0,242,343841,771579
26,18,female,Belgium,2,71,guess,win,5,right,10,guess_choice,589,f,0,0,242,343243,772177
26,18,female,Belgium,2,71,guess,win,5,right,10,guess_outcome,0,undefined,0,0,262,341685,773735
26,18,female,Belgium,2,71,ITC,win,5,right,10,ITC_start,2219,space,0,0,262,339462,775958
26,18,female,Belgium,2,71,ITC,win,5,right,10,ITC_choice,669,f,0,0,262,338789,776631
26,18,female,Belgium,2,71,ITC,win,5,right,10,ITC_wait,0,undefined,0,0,262,338784,776636
26,18,female,Belgium,2,71,ITC,win,5,right,10,ITC_collect,686,k,0,0,262,338096,777324
26,18,female,Belgium,2,71,ITC,win,5,right,10,ITC_outcome,0,undefined,0,0,272,337086,778334
26,18,female,Belgium,2,72,guess,neutral,5,left,8,guess_start,294,space,0,0,272,336789,778631
26,18,female,Belgium,2,72,guess,neutral,5,left,8,guess_choice,598,f,0,0,272,336179,779241
26,18,female,Belgium,2,72,guess,neutral,5,left,8,guess_outcome,0,undefined,0,0,272,334618,780802
26,18,female,Belgium,2,72,ITC,neutral,5,left,8,ITC_start,565,space,0,0,272,334048,781372
26,18,female,Belgium,2,72,ITC,neutral,5,left,8,ITC_choice,549,j,0,0,272,333495,781925
26,18,female,Belgium,2,72,ITC,neutral,5,left,8,ITC_wait,0,undefined,0,0,272,333491,781929
26,18,female,Belgium,2,72,ITC,neutral,5,left,8,ITC_collect,1036,k,0,0,272,332453,782967
26,18,female,Belgium,2,72,ITC,neutral,5,left,8,ITC_outcome,0,undefined,0,0,280,331441,783979
26,18,female,Belgium,2,73,guess,neutral,10,left,2,guess_start,45,space,0,0,280,331391,784029
26,18,female,Belgium,2,73,guess,neutral,10,left,2,guess_choice,567,f,0,0,280,330815,784605
26,18,female,Belgium,2,73,guess,neutral,10,left,2,guess_outcome,0,undefined,0,0,280,329260,786160
26,18,female,Belgium,2,73,ITC,neutral,10,left,2,ITC_start,488,space,0,0,280,328771,786649
26,18,female,Belgium,2,73,ITC,neutral,10,left,2,ITC_choice,1129,j,0,0,280,327640,787780
26,18,female,Belgium,2,73,ITC,neutral,10,left,2,ITC_wait,0,undefined,0,0,280,327636,787784
26,18,female,Belgium,2,73,ITC,neutral,10,left,2,ITC_collect,365,k,0,0,280,327268,788152
26,18,female,Belgium,2,73,ITC,neutral,10,left,2,ITC_outcome,0,undefined,0,0,282,326256,789164
26,18,female,Belgium,2,74,guess,neutral,10,left,5,guess_start,233,space,0,0,282,326018,789402
26,18,female,Belgium,2,74,guess,neutral,10,left,5,guess_choice,599,f,0,0,282,325406,790014
26,18,female,Belgium,2,74,guess,neutral,10,left,5,guess_outcome,0,undefined,0,0,282,323843,791577
26,18,female,Belgium,2,74,ITC,neutral,10,left,5,ITC_start,228,space,0,0,282,323610,791810
26,18,female,Belgium,2,74,ITC,neutral,10,left,5,ITC_choice,613,j,0,0,282,322992,792428
26,18,female,Belgium,2,74,ITC,neutral,10,left,5,ITC_wait,0,undefined,0,0,282,322987,792433
26,18,female,Belgium,2,74,ITC,neutral,10,left,5,ITC_collect,223,k,0,0,282,322761,792659
26,18,female,Belgium,2,74,ITC,neutral,10,left,5,ITC_outcome,0,undefined,0,0,287,321750,793670
26,18,female,Belgium,2,75,guess,loss,5,right,7,guess_start,268,space,0,0,287,321479,793941
26,18,female,Belgium,2,75,guess,loss,5,right,7,guess_choice,526,f,0,0,287,320940,794480
26,18,female,Belgium,2,75,guess,loss,5,right,7,guess_outcome,0,undefined,0,0,272,319376,796044
26,18,female,Belgium,2,75,ITC,loss,5,right,7,ITC_start,509,space,0,0,272,318862,796558
26,18,female,Belgium,2,75,ITC,loss,5,right,7,ITC_choice,822,f,0,0,272,318035,797385
26,18,female,Belgium,2,75,ITC,loss,5,right,7,ITC_wait,0,undefined,0,0,272,318031,797389
26,18,female,Belgium,2,75,ITC,loss,5,right,7,ITC_collect,477,k,0,0,272,317550,797870
26,18,female,Belgium,2,75,ITC,loss,5,right,7,ITC_outcome,0,undefined,0,0,279,316536,798884
26,18,female,Belgium,2,76,guess,win,5,right,7,guess_start,390,space,0,0,279,316141,799279
26,18,female,Belgium,2,76,guess,win,5,right,7,guess_choice,870,j,0,0,279,315257,800163
26,18,female,Belgium,2,76,guess,win,5,right,7,guess_outcome,0,undefined,0,0,299,313690,801730
26,18,female,Belgium,2,76,ITC,win,5,right,7,ITC_start,619,space,0,0,299,313068,802352
26,18,female,Belgium,2,76,ITC,win,5,right,7,ITC_choice,706,f,0,0,299,312360,803060
26,18,female,Belgium,2,76,ITC,win,5,right,7,ITC_wait,0,undefined,0,0,299,312356,803064
26,18,female,Belgium,2,76,ITC,win,5,right,7,ITC_collect,691,k,0,0,299,311664,803756
26,18,female,Belgium,2,76,ITC,win,5,right,7,ITC_outcome,0,undefined,0,0,306,310658,804762
26,18,female,Belgium,2,77,guess,loss,5,right,11,guess_start,3191,space,0,0,306,307464,807956
26,18,female,Belgium,2,77,guess,loss,5,right,11,guess_choice,588,j,0,0,306,306871,808549
26,18,female,Belgium,2,77,guess,loss,5,right,11,guess_outcome,0,undefined,0,0,291,305314,810106
26,18,female,Belgium,2,77,ITC,loss,5,right,11,ITC_start,562,space,0,0,291,304749,810671
26,18,female,Belgium,2,77,ITC,loss,5,right,11,ITC_choice,662,f,0,0,291,304084,811336
26,18,female,Belgium,2,77,ITC,loss,5,right,11,ITC_wait,0,undefined,0,0,291,304080,811340
26,18,female,Belgium,2,77,ITC,loss,5,right,11,ITC_collect,769,k,0,0,291,303309,812111
26,18,female,Belgium,2,77,ITC,loss,5,right,11,ITC_outcome,0,undefined,0,0,302,302303,813117
26,18,female,Belgium,2,78,guess,win,5,right,11,guess_start,331,space,0,0,302,301969,813451
26,18,female,Belgium,2,78,guess,win,5,right,11,guess_choice,561,f,0,0,302,301403,814017
26,18,female,Belgium,2,78,guess,win,5,right,11,guess_outcome,0,undefined,0,0,322,299845,815575
26,18,female,Belgium,2,78,ITC,win,5,right,11,ITC_start,520,space,0,0,322,299322,816098
26,18,female,Belgium,2,78,ITC,win,5,right,11,ITC_choice,691,f,0,0,322,298627,816793
26,18,female,Belgium,2,78,ITC,win,5,right,11,ITC_wait,0,undefined,0,0,322,298622,816798
26,18,female,Belgium,2,78,ITC,win,5,right,11,ITC_collect,555,k,0,0,322,298065,817355
26,18,female,Belgium,2,78,ITC,win,5,right,11,ITC_outcome,0,undefined,0,0,333,297058,818362
26,18,female,Belgium,2,79,guess,neutral,5,left,3,guess_start,239,space,0,0,333,296815,818605
26,18,female,Belgium,2,79,guess,neutral,5,left,3,guess_choice,1161,f,0,0,333,295648,819772
26,18,female,Belgium,2,79,guess,neutral,5,left,3,guess_outcome,0,undefined,0,0,333,294091,821329
26,18,female,Belgium,2,79,ITC,neutral,5,left,3,ITC_start,739,space,0,0,333,293348,822072
26,18,female,Belgium,2,79,ITC,neutral,5,left,3,ITC_choice,490,j,0,0,333,292854,822566
26,18,female,Belgium,2,79,ITC,neutral,5,left,3,ITC_wait,0,undefined,0,0,333,292850,822570
26,18,female,Belgium,2,79,ITC,neutral,5,left,3,ITC_collect,638,k,0,0,333,292209,823211
26,18,female,Belgium,2,79,ITC,neutral,5,left,3,ITC_outcome,0,undefined,0,0,336,291203,824217
26,18,female,Belgium,2,80,guess,win,5,left,2,guess_start,520,space,0,0,336,290679,824741
26,18,female,Belgium,2,80,guess,win,5,left,2,guess_choice,590,f,0,0,336,290081,825339
26,18,female,Belgium,2,80,guess,win,5,left,2,guess_outcome,0,undefined,0,0,356,288523,826897
26,18,female,Belgium,2,80,ITC,win,5,left,2,ITC_start,605,space,0,0,356,287913,827507
26,18,female,Belgium,2,80,ITC,win,5,left,2,ITC_choice,1134,j,0,0,356,286776,828644
26,18,female,Belgium,2,80,ITC,win,5,left,2,ITC_wait,0,undefined,0,0,356,286772,828648
26,18,female,Belgium,2,80,ITC,win,5,left,2,ITC_collect,218,k,0,0,356,286552,828868
26,18,female,Belgium,2,80,ITC,win,5,left,2,ITC_outcome,0,undefined,0,0,358,285543,829877
26,18,female,Belgium,2,81,guess,loss,5,right,3,guess_start,150,space,0,0,358,285388,830032
26,18,female,Belgium,2,81,guess,loss,5,right,3,guess_choice,596,f,0,0,358,284784,830636
26,18,female,Belgium,2,81,guess,loss,5,right,3,guess_outcome,0,undefined,0,0,343,283223,832197
26,18,female,Belgium,2,81,ITC,loss,5,right,3,ITC_start,75,space,0,0,343,283144,832276
26,18,female,Belgium,2,81,ITC,loss,5,right,3,ITC_wait,0,undefined,0,0,343,282471,832949
26,18,female,Belgium,2,81,ITC,loss,5,right,3,ITC_choice,665,f,0,0,343,282475,832945
26,18,female,Belgium,2,81,ITC,loss,5,right,3,ITC_collect,413,k,0,0,343,282055,833365
26,18,female,Belgium,2,81,ITC,loss,5,right,3,ITC_outcome,0,undefined,0,0,346,281046,834374
26,18,female,Belgium,2,82,guess,neutral,5,left,6,guess_start,644,space,0,0,346,280398,835022
26,18,female,Belgium,2,82,guess,neutral,5,left,6,guess_choice,569,f,0,0,346,279820,835600
26,18,female,Belgium,2,82,guess,neutral,5,left,6,guess_outcome,0,undefined,0,0,346,278260,837160
26,18,female,Belgium,2,82,ITC,neutral,5,left,6,ITC_start,592,space,0,0,346,277664,837756
26,18,female,Belgium,2,82,ITC,neutral,5,left,6,ITC_choice,1198,j,0,0,346,276462,838958
26,18,female,Belgium,2,82,ITC,neutral,5,left,6,ITC_wait,0,undefined,0,0,346,276458,838962
26,18,female,Belgium,2,82,ITC,neutral,5,left,6,ITC_collect,185,k,0,0,346,276271,839149
26,18,female,Belgium,2,82,ITC,neutral,5,left,6,ITC_outcome,0,undefined,0,0,352,275259,840161
26,18,female,Belgium,2,83,guess,win,5,left,16,guess_start,451,space,0,0,352,274804,840616
26,18,female,Belgium,2,83,guess,win,5,left,16,guess_choice,578,f,0,0,352,274216,841204
26,18,female,Belgium,2,83,guess,win,5,left,16,guess_outcome,0,undefined,0,0,372,272654,842766
26,18,female,Belgium,2,83,ITC,win,5,left,16,ITC_start,116,space,0,0,372,272534,842886
26,18,female,Belgium,2,83,ITC,win,5,left,16,ITC_choice,546,j,0,0,372,271984,843436
26,18,female,Belgium,2,83,ITC,win,5,left,16,ITC_wait,0,undefined,0,0,372,271980,843440
26,18,female,Belgium,2,83,ITC,win,5,left,16,ITC_collect,163,k,0,0,372,271814,843606
26,18,female,Belgium,2,83,ITC,win,5,left,16,ITC_outcome,0,undefined,0,0,388,270803,844617
26,18,female,Belgium,2,84,guess,loss,10,right,8,guess_start,465,space,0,0,388,270333,845087
26,18,female,Belgium,2,84,guess,loss,10,right,8,guess_choice,668,f,0,0,388,269655,845765
26,18,female,Belgium,2,84,guess,loss,10,right,8,guess_outcome,0,undefined,0,0,373,268094,847326
26,18,female,Belgium,2,84,ITC,loss,10,right,8,ITC_start,270,space,0,0,373,267819,847601
26,18,female,Belgium,2,84,ITC,loss,10,right,8,ITC_choice,543,f,0,0,373,267272,848148
26,18,female,Belgium,2,84,ITC,loss,10,right,8,ITC_wait,0,undefined,0,0,373,267268,848152
26,18,female,Belgium,2,84,ITC,loss,10,right,8,ITC_collect,208,k,0,0,373,267057,848363
26,18,female,Belgium,2,84,ITC,loss,10,right,8,ITC_outcome,0,undefined,0,0,381,266048,849372
26,18,female,Belgium,2,85,guess,win,5,right,14,guess_start,263,space,0,0,381,265781,849639
26,18,female,Belgium,2,85,guess,win,5,right,14,guess_choice,580,j,0,0,381,265189,850231
26,18,female,Belgium,2,85,guess,win,5,right,14,guess_outcome,0,undefined,0,0,401,263628,851792
26,18,female,Belgium,2,85,ITC,win,5,right,14,ITC_start,529,space,0,0,401,263094,852326
26,18,female,Belgium,2,85,ITC,win,5,right,14,ITC_choice,618,f,0,0,401,262472,852948
26,18,female,Belgium,2,85,ITC,win,5,right,14,ITC_wait,0,undefined,0,0,401,262467,852953
26,18,female,Belgium,2,85,ITC,win,5,right,14,ITC_collect,519,k,0,0,401,261945,853475
26,18,female,Belgium,2,85,ITC,win,5,right,14,ITC_outcome,0,undefined,0,0,415,260933,854487
26,18,female,Belgium,2,86,guess,win,10,left,8,guess_start,399,space,0,0,415,260531,854889
26,18,female,Belgium,2,86,guess,win,10,left,8,guess_choice,593,j,0,0,415,259928,855492
26,18,female,Belgium,2,86,guess,win,10,left,8,guess_outcome,0,undefined,0,0,435,258365,857055
26,18,female,Belgium,2,86,ITC,win,10,left,8,ITC_start,555,space,0,0,435,257806,857614
26,18,female,Belgium,2,86,ITC,win,10,left,8,ITC_choice,716,j,0,0,435,257085,858335
26,18,female,Belgium,2,86,ITC,win,10,left,8,ITC_wait,0,undefined,0,0,435,257081,858339
26,18,female,Belgium,2,86,ITC,win,10,left,8,ITC_collect,139,k,0,0,435,256938,858482
26,18,female,Belgium,2,86,ITC,win,10,left,8,ITC_outcome,0,undefined,0,0,443,255925,859495
26,18,female,Belgium,2,87,guess,neutral,10,right,6,guess_start,1276,space,0,0,443,254644,860776
26,18,female,Belgium,2,87,guess,neutral,10,right,6,guess_choice,473,f,0,0,443,254157,861263
26,18,female,Belgium,2,87,guess,neutral,10,right,6,guess_outcome,0,undefined,0,0,443,252593,862827
26,18,female,Belgium,2,87,ITC,neutral,10,right,6,ITC_start,206,space,0,0,443,252382,863038
26,18,female,Belgium,2,87,ITC,neutral,10,right,6,ITC_choice,846,f,0,0,443,251531,863889
26,18,female,Belgium,2,87,ITC,neutral,10,right,6,ITC_wait,0,undefined,0,0,443,251527,863893
26,18,female,Belgium,2,87,ITC,neutral,10,right,6,ITC_collect,469,k,0,0,443,251054,864366
26,18,female,Belgium,2,87,ITC,neutral,10,right,6,ITC_outcome,0,undefined,0,0,449,250039,865381
26,18,female,Belgium,2,88,guess,loss,10,left,5,guess_start,180,space,0,0,449,249855,865565
26,18,female,Belgium,2,88,guess,loss,10,left,5,guess_choice,568,j,0,0,449,249282,866138
26,18,female,Belgium,2,88,guess,loss,10,left,5,guess_outcome,0,undefined,0,0,434,247726,867694
26,18,female,Belgium,2,88,ITC,loss,10,left,5,ITC_start,580,space,0,0,434,247142,868278
26,18,female,Belgium,2,88,ITC,loss,10,left,5,ITC_choice,946,j,0,0,434,246193,869227
26,18,female,Belgium,2,88,ITC,loss,10,left,5,ITC_wait,0,undefined,0,0,434,246189,869231
26,18,female,Belgium,2,88,ITC,loss,10,left,5,ITC_collect,159,k,0,0,434,246029,869391
26,18,female,Belgium,2,88,ITC,loss,10,left,5,ITC_outcome,0,undefined,0,0,439,245022,870398
26,18,female,Belgium,2,89,guess,loss,10,left,1,guess_start,102,space,0,0,439,244917,870503
26,18,female,Belgium,2,89,guess,loss,10,left,1,guess_choice,811,j,0,0,439,244102,871318
26,18,female,Belgium,2,89,guess,loss,10,left,1,guess_outcome,0,undefined,0,0,424,242545,872875
26,18,female,Belgium,2,89,ITC,loss,10,left,1,ITC_start,504,space,0,0,424,242038,873382
26,18,female,Belgium,2,89,ITC,loss,10,left,1,ITC_choice,706,j,0,0,424,241329,874091
26,18,female,Belgium,2,89,ITC,loss,10,left,1,ITC_wait,0,undefined,0,0,424,241325,874095
26,18,female,Belgium,2,89,ITC,loss,10,left,1,ITC_collect,185,k,0,0,424,241138,874282
26,18,female,Belgium,2,89,ITC,loss,10,left,1,ITC_outcome,0,undefined,0,0,425,240133,875287
26,18,female,Belgium,2,90,guess,neutral,5,left,15,guess_start,485,space,0,0,425,239645,875775
26,18,female,Belgium,2,90,guess,neutral,5,left,15,guess_choice,551,f,0,0,425,239088,876332
26,18,female,Belgium,2,90,guess,neutral,5,left,15,guess_outcome,0,undefined,0,0,425,237529,877891
26,18,female,Belgium,2,90,ITC,neutral,5,left,15,ITC_start,480,space,0,0,425,237046,878374
26,18,female,Belgium,2,90,ITC,neutral,5,left,15,ITC_choice,571,j,0,0,425,236472,878948
26,18,female,Belgium,2,90,ITC,neutral,5,left,15,ITC_wait,0,undefined,0,0,425,236468,878952
26,18,female,Belgium,2,90,ITC,neutral,5,left,15,ITC_collect,121,k,0,0,425,236345,879075
26,18,female,Belgium,2,90,ITC,neutral,5,left,15,ITC_outcome,0,undefined,0,0,440,235339,880081
26,18,female,Belgium,2,91,guess,neutral,5,right,7,guess_start,563,space,0,0,440,234773,880647
26,18,female,Belgium,2,91,guess,neutral,5,right,7,guess_choice,507,f,0,0,440,233998,881422
26,18,female,Belgium,2,91,guess,neutral,5,right,7,guess_outcome,0,undefined,0,0,440,232442,882978
26,18,female,Belgium,2,91,ITC,neutral,5,right,7,ITC_start,427,space,0,0,440,232012,883408
26,18,female,Belgium,2,91,ITC,neutral,5,right,7,ITC_choice,846,f,0,0,440,231163,884257
26,18,female,Belgium,2,91,ITC,neutral,5,right,7,ITC_wait,0,undefined,0,0,440,231159,884261
26,18,female,Belgium,2,91,ITC,neutral,5,right,7,ITC_collect,166,k,0,0,440,230990,884430
26,18,female,Belgium,2,91,ITC,neutral,5,right,7,ITC_outcome,0,undefined,0,0,447,229983,885437
26,18,female,Belgium,2,92,guess,neutral,5,right,1,guess_start,126,space,0,0,447,229853,885567
26,18,female,Belgium,2,92,guess,neutral,5,right,1,guess_choice,515,f,0,0,447,229328,886092
26,18,female,Belgium,2,92,guess,neutral,5,right,1,guess_outcome,0,undefined,0,0,447,227771,887649
26,18,female,Belgium,2,92,ITC,neutral,5,right,1,ITC_start,651,space,0,0,447,227117,888303
26,18,female,Belgium,2,92,ITC,neutral,5,right,1,ITC_choice,593,f,0,0,447,226520,888900
26,18,female,Belgium,2,92,ITC,neutral,5,right,1,ITC_wait,0,undefined,0,0,447,226516,888904
26,18,female,Belgium,2,92,ITC,neutral,5,right,1,ITC_collect,155,k,0,0,447,226359,889061
26,18,female,Belgium,2,92,ITC,neutral,5,right,1,ITC_outcome,0,undefined,0,0,448,225351,890069
26,18,female,Belgium,2,93,guess,loss,5,left,1,guess_start,138,space,0,0,448,225209,890211
26,18,female,Belgium,2,93,guess,loss,5,left,1,guess_choice,623,j,0,0,448,224579,890841
26,18,female,Belgium,2,93,guess,loss,5,left,1,guess_outcome,0,undefined,0,0,433,223020,892400
26,18,female,Belgium,2,93,ITC,loss,5,left,1,ITC_start,74,space,0,0,433,222942,892478
26,18,female,Belgium,2,93,ITC,loss,5,left,1,ITC_choice,613,j,0,0,433,222325,893095
26,18,female,Belgium,2,93,ITC,loss,5,left,1,ITC_wait,0,undefined,0,0,433,222321,893099
26,18,female,Belgium,2,93,ITC,loss,5,left,1,ITC_collect,181,k,0,0,433,222138,893282
26,18,female,Belgium,2,93,ITC,loss,5,left,1,ITC_outcome,0,undefined,0,0,434,221131,894289
26,18,female,Belgium,2,94,guess,win,10,left,1,guess_start,507,space,0,0,434,220620,894800
26,18,female,Belgium,2,94,guess,win,10,left,1,guess_choice,616,j,0,0,434,219995,895425
26,18,female,Belgium,2,94,guess,win,10,left,1,guess_outcome,0,undefined,0,0,454,218436,896984
26,18,female,Belgium,2,94,ITC,win,10,left,1,ITC_start,530,space,0,0,454,217903,897517
26,18,female,Belgium,2,94,ITC,win,10,left,1,ITC_choice,519,j,0,0,454,217380,898040
26,18,female,Belgium,2,94,ITC,win,10,left,1,ITC_wait,0,undefined,0,0,454,217375,898045
26,18,female,Belgium,2,94,ITC,win,10,left,1,ITC_collect,189,k,0,0,454,217184,898236
26,18,female,Belgium,2,94,ITC,win,10,left,1,ITC_outcome,0,undefined,0,0,455,216176,899244
26,18,female,Belgium,2,95,guess,win,10,right,6,guess_start,329,space,0,0,455,215842,899578
26,18,female,Belgium,2,95,guess,win,10,right,6,guess_choice,576,j,0,0,455,215258,900162
26,18,female,Belgium,2,95,guess,win,10,right,6,guess_outcome,0,undefined,0,0,475,213697,901723
26,18,female,Belgium,2,95,ITC,win,10,right,6,ITC_start,485,space,0,0,475,213207,902213
26,18,female,Belgium,2,95,ITC,win,10,right,6,ITC_choice,613,j,0,0,475,212591,902829
26,18,female,Belgium,2,95,ITC,win,10,right,6,ITC_wait,0,undefined,0,0,475,202585,912835
26,18,female,Belgium,2,95,ITC,win,10,right,6,ITC_collect,1867,k,0,0,475,200712,914708
26,18,female,Belgium,2,95,ITC,win,10,right,6,ITC_outcome,0,undefined,0,0,495,199699,915721
26,18,female,Belgium,2,96,guess,neutral,5,left,5,guess_start,327,space,0,0,495,199368,916052
26,18,female,Belgium,2,96,guess,neutral,5,left,5,guess_choice,593,f,0,0,495,198764,916656
26,18,female,Belgium,2,96,guess,neutral,5,left,5,guess_outcome,0,undefined,0,0,495,197201,918219
26,18,female,Belgium,2,96,ITC,neutral,5,left,5,ITC_start,951,space,0,0,495,196244,919176
26,18,female,Belgium,2,96,ITC,neutral,5,left,5,ITC_choice,621,j,0,0,495,195619,919801
26,18,female,Belgium,2,96,ITC,neutral,5,left,5,ITC_wait,0,undefined,0,0,495,195615,919805
26,18,female,Belgium,2,96,ITC,neutral,5,left,5,ITC_collect,176,k,0,0,495,195435,919985
26,18,female,Belgium,2,96,ITC,neutral,5,left,5,ITC_outcome,0,undefined,0,0,500,194423,920997
26,18,female,Belgium,2,97,guess,loss,5,right,5,guess_start,364,space,0,0,500,194055,921365
26,18,female,Belgium,2,97,guess,loss,5,right,5,guess_choice,494,f,0,0,500,193549,921871
26,18,female,Belgium,2,97,guess,loss,5,right,5,guess_outcome,0,undefined,0,0,485,191985,923435
26,18,female,Belgium,2,97,ITC,loss,5,right,5,ITC_start,564,space,0,0,485,191416,924004
26,18,female,Belgium,2,97,ITC,loss,5,right,5,ITC_choice,892,f,0,0,485,190520,924900
26,18,female,Belgium,2,97,ITC,loss,5,right,5,ITC_wait,0,undefined,0,0,485,190514,924906
26,18,female,Belgium,2,97,ITC,loss,5,right,5,ITC_collect,161,k,0,0,485,190349,925071
26,18,female,Belgium,2,97,ITC,loss,5,right,5,ITC_outcome,0,undefined,0,0,490,189336,926084
26,18,female,Belgium,2,98,guess,loss,5,left,10,guess_start,283,space,0,0,490,189048,926372
26,18,female,Belgium,2,98,guess,loss,5,left,10,guess_choice,544,j,0,0,490,188490,926930
26,18,female,Belgium,2,98,guess,loss,5,left,10,guess_outcome,0,undefined,0,0,475,186924,928496
26,18,female,Belgium,2,98,ITC,loss,5,left,10,ITC_start,275,space,0,0,475,186645,928775
26,18,female,Belgium,2,98,ITC,loss,5,left,10,ITC_choice,556,j,0,0,475,186084,929336
26,18,female,Belgium,2,98,ITC,loss,5,left,10,ITC_wait,0,undefined,0,0,475,186079,929341
26,18,female,Belgium,2,98,ITC,loss,5,left,10,ITC_collect,156,k,0,0,475,185919,929501
26,18,female,Belgium,2,98,ITC,loss,5,left,10,ITC_outcome,0,undefined,0,0,485,184906,930514
26,18,female,Belgium,2,99,guess,loss,5,right,16,guess_start,266,space,0,0,485,184634,930786
26,18,female,Belgium,2,99,guess,loss,5,right,16,guess_choice,407,j,0,0,485,184214,931206
26,18,female,Belgium,2,99,guess,loss,5,right,16,guess_outcome,0,undefined,0,0,470,182649,932771
26,18,female,Belgium,2,99,ITC,loss,5,right,16,ITC_start,347,space,0,0,470,182298,933122
26,18,female,Belgium,2,99,ITC,loss,5,right,16,ITC_choice,499,f,0,0,470,181793,933627
26,18,female,Belgium,2,99,ITC,loss,5,right,16,ITC_wait,0,undefined,0,0,470,181788,933632
26,18,female,Belgium,2,99,ITC,loss,5,right,16,ITC_collect,107,k,0,0,470,181678,933742
26,18,female,Belgium,2,99,ITC,loss,5,right,16,ITC_outcome,0,undefined,0,0,486,180665,934755
26,18,female,Belgium,2,100,guess,loss,5,left,8,guess_start,263,space,0,0,486,180398,935022
26,18,female,Belgium,2,100,guess,loss,5,left,8,guess_choice,425,j,0,0,486,179968,935452
26,18,female,Belgium,2,100,guess,loss,5,left,8,guess_outcome,0,undefined,0,0,471,178411,937009
26,18,female,Belgium,2,100,ITC,loss,5,left,8,ITC_start,356,space,0,0,471,178052,937368
26,18,female,Belgium,2,100,ITC,loss,5,left,8,ITC_wait,0,undefined,0,0,471,177467,937953
26,18,female,Belgium,2,100,ITC,loss,5,left,8,ITC_choice,578,j,0,0,471,177470,937950
26,18,female,Belgium,2,100,ITC,loss,5,left,8,ITC_collect,162,k,0,0,471,177303,938117
26,18,female,Belgium,2,100,ITC,loss,5,left,8,ITC_outcome,0,undefined,0,0,479,176299,939121
26,18,female,Belgium,2,101,guess,neutral,5,left,11,guess_start,142,space,0,0,479,176153,939267
26,18,female,Belgium,2,101,guess,neutral,5,left,11,guess_choice,868,j,0,0,479,175279,940141
26,18,female,Belgium,2,101,guess,neutral,5,left,11,guess_outcome,0,undefined,0,0,479,173723,941697
26,18,female,Belgium,2,101,ITC,neutral,5,left,11,ITC_start,341,space,0,0,479,173379,942041
26,18,female,Belgium,2,101,ITC,neutral,5,left,11,ITC_choice,717,j,0,0,479,172659,942761
26,18,female,Belgium,2,101,ITC,neutral,5,left,11,ITC_wait,0,undefined,0,0,479,172653,942767
26,18,female,Belgium,2,101,ITC,neutral,5,left,11,ITC_collect,295,k,0,0,479,172356,943064
26,18,female,Belgium,2,101,ITC,neutral,5,left,11,ITC_outcome,0,undefined,0,0,490,171350,944070
26,18,female,Belgium,2,102,guess,neutral,10,left,1,guess_start,244,space,0,0,490,171102,944318
26,18,female,Belgium,2,102,guess,neutral,10,left,1,guess_choice,770,j,0,0,490,170326,945094
26,18,female,Belgium,2,102,guess,neutral,10,left,1,guess_outcome,0,undefined,0,0,490,168770,946650
26,18,female,Belgium,2,102,ITC,neutral,10,left,1,ITC_start,371,space,0,0,490,168396,947024
26,18,female,Belgium,2,102,ITC,neutral,10,left,1,ITC_wait,0,undefined,0,0,490,167801,947619
26,18,female,Belgium,2,102,ITC,neutral,10,left,1,ITC_choice,588,j,0,0,490,167805,947615
26,18,female,Belgium,2,102,ITC,neutral,10,left,1,ITC_collect,149,k,0,0,490,167650,947770
26,18,female,Belgium,2,102,ITC,neutral,10,left,1,ITC_outcome,0,undefined,0,0,491,166644,948776
26,18,female,Belgium,2,103,guess,neutral,10,right,7,guess_start,57,space,0,0,491,166583,948837
26,18,female,Belgium,2,103,guess,neutral,10,right,7,guess_choice,442,f,0,0,491,166134,949286
26,18,female,Belgium,2,103,guess,neutral,10,right,7,guess_outcome,0,undefined,0,0,491,164575,950845
26,18,female,Belgium,2,103,ITC,neutral,10,right,7,ITC_start,166,space,0,0,491,164406,951014
26,18,female,Belgium,2,103,ITC,neutral,10,right,7,ITC_wait,0,undefined,0,0,491,163510,951910
26,18,female,Belgium,2,103,ITC,neutral,10,right,7,ITC_choice,889,f,0,0,491,163514,951906
26,18,female,Belgium,2,103,ITC,neutral,10,right,7,ITC_collect,145,k,0,0,491,163363,952057
26,18,female,Belgium,2,103,ITC,neutral,10,right,7,ITC_outcome,0,undefined,0,0,498,162357,953063
26,18,female,Belgium,2,104,guess,loss,5,left,14,guess_start,213,space,0,0,498,162140,953280
26,18,female,Belgium,2,104,guess,loss,5,left,14,guess_choice,630,f,0,0,498,161503,953917
26,18,female,Belgium,2,104,guess,loss,5,left,14,guess_outcome,0,undefined,0,0,483,159946,955474
26,18,female,Belgium,2,104,ITC,loss,5,left,14,ITC_start,2062,space,0,0,483,157881,957539
26,18,female,Belgium,2,104,ITC,loss,5,left,14,ITC_choice,614,j,0,0,483,157264,958156
26,18,female,Belgium,2,104,ITC,loss,5,left,14,ITC_wait,0,undefined,0,0,483,157260,958160
26,18,female,Belgium,2,104,ITC,loss,5,left,14,ITC_collect,181,k,0,0,483,157077,958343
26,18,female,Belgium,2,104,ITC,loss,5,left,14,ITC_outcome,0,undefined,0,0,497,156070,959350
26,18,female,Belgium,2,105,guess,loss,10,right,7,guess_start,185,space,0,0,497,155881,959539
26,18,female,Belgium,2,105,guess,loss,10,right,7,guess_choice,523,f,0,0,497,155350,960070
26,18,female,Belgium,2,105,guess,loss,10,right,7,guess_outcome,0,undefined,0,0,482,153791,961629
26,18,female,Belgium,2,105,ITC,loss,10,right,7,ITC_start,23,space,0,0,482,153764,961656
26,18,female,Belgium,2,105,ITC,loss,10,right,7,ITC_choice,782,f,0,0,482,152979,962441
26,18,female,Belgium,2,105,ITC,loss,10,right,7,ITC_wait,0,undefined,0,0,482,152975,962445
26,18,female,Belgium,2,105,ITC,loss,10,right,7,ITC_collect,127,k,0,0,482,152846,962574
26,18,female,Belgium,2,105,ITC,loss,10,right,7,ITC_outcome,0,undefined,0,0,489,151837,963583
26,18,female,Belgium,2,106,guess,neutral,10,left,8,guess_start,932,space,0,0,489,150900,964520
26,18,female,Belgium,2,106,guess,neutral,10,left,8,guess_choice,595,f,0,0,489,150296,965124
26,18,female,Belgium,2,106,guess,neutral,10,left,8,guess_outcome,0,undefined,0,0,489,148737,966683
26,18,female,Belgium,2,106,ITC,neutral,10,left,8,ITC_start,403,space,0,0,489,148330,967090
26,18,female,Belgium,2,106,ITC,neutral,10,left,8,ITC_choice,581,j,0,0,489,147745,967675
26,18,female,Belgium,2,106,ITC,neutral,10,left,8,ITC_wait,0,undefined,0,0,489,147741,967679
26,18,female,Belgium,2,106,ITC,neutral,10,left,8,ITC_collect,139,k,0,0,489,147599,967821
26,18,female,Belgium,2,106,ITC,neutral,10,left,8,ITC_outcome,0,undefined,0,0,497,146589,968831
26,18,female,Belgium,2,107,guess,loss,10,right,4,guess_start,318,space,0,0,497,146267,969153
26,18,female,Belgium,2,107,guess,loss,10,right,4,guess_choice,1216,j,0,0,497,145041,970379
26,18,female,Belgium,2,107,guess,loss,10,right,4,guess_outcome,0,undefined,0,0,482,143481,971939
26,18,female,Belgium,2,107,ITC,loss,10,right,4,ITC_start,129,space,0,0,482,143348,972072
26,18,female,Belgium,2,107,ITC,loss,10,right,4,ITC_choice,658,f,0,0,482,142687,972733
26,18,female,Belgium,2,107,ITC,loss,10,right,4,ITC_wait,0,undefined,0,0,482,142683,972737
26,18,female,Belgium,2,107,ITC,loss,10,right,4,ITC_collect,291,k,0,0,482,142390,973030
26,18,female,Belgium,2,107,ITC,loss,10,right,4,ITC_outcome,0,undefined,0,0,486,141380,974040
26,18,female,Belgium,2,108,guess,neutral,5,right,10,guess_start,271,space,0,0,486,141104,974316
26,18,female,Belgium,2,108,guess,neutral,5,right,10,guess_choice,662,j,0,0,486,140431,974989
26,18,female,Belgium,2,108,guess,neutral,5,right,10,guess_outcome,0,undefined,0,0,486,138870,976550
26,18,female,Belgium,2,108,ITC,neutral,5,right,10,ITC_start,730,space,0,0,486,138136,977284
26,18,female,Belgium,2,108,ITC,neutral,5,right,10,ITC_choice,618,f,0,0,486,137514,977906
26,18,female,Belgium,2,108,ITC,neutral,5,right,10,ITC_wait,0,undefined,0,0,486,137510,977910
26,18,female,Belgium,2,108,ITC,neutral,5,right,10,ITC_collect,174,k,0,0,486,137332,978088
26,18,female,Belgium,2,108,ITC,neutral,5,right,10,ITC_outcome,0,undefined,0,0,496,136321,979099
26,18,female,Belgium,2,109,guess,neutral,5,right,13,guess_start,236,space,0,0,496,136079,979341
26,18,female,Belgium,2,109,guess,neutral,5,right,13,guess_choice,593,f,0,0,496,135476,979944
26,18,female,Belgium,2,109,guess,neutral,5,right,13,guess_outcome,0,undefined,0,0,496,133913,981507
26,18,female,Belgium,2,109,ITC,neutral,5,right,13,ITC_start,210,space,0,0,496,133699,981721
26,18,female,Belgium,2,109,ITC,neutral,5,right,13,ITC_wait,0,undefined,0,0,496,132942,982478
26,18,female,Belgium,2,109,ITC,neutral,5,right,13,ITC_choice,748,f,0,0,496,132947,982473
26,18,female,Belgium,2,109,ITC,neutral,5,right,13,ITC_collect,125,k,0,0,496,132815,982605
26,18,female,Belgium,2,109,ITC,neutral,5,right,13,ITC_outcome,0,undefined,0,0,509,131804,983616
26,18,female,Belgium,2,110,guess,win,5,right,10,guess_start,34,space,0,0,509,131765,983655
26,18,female,Belgium,2,110,guess,win,5,right,10,guess_choice,551,f,0,0,509,131204,984216
26,18,female,Belgium,2,110,guess,win,5,right,10,guess_outcome,0,undefined,0,0,529,129641,985779
26,18,female,Belgium,2,110,ITC,win,5,right,10,ITC_start,106,space,0,0,529,129530,985890
26,18,female,Belgium,2,110,ITC,win,5,right,10,ITC_choice,650,f,0,0,529,128875,986545
26,18,female,Belgium,2,110,ITC,win,5,right,10,ITC_wait,0,undefined,0,0,529,128870,986550
26,18,female,Belgium,2,110,ITC,win,5,right,10,ITC_collect,132,k,0,0,529,128736,986684
26,18,female,Belgium,2,110,ITC,win,5,right,10,ITC_outcome,0,undefined,0,0,539,127723,987697
26,18,female,Belgium,2,111,guess,neutral,5,left,16,guess_start,121,space,0,0,539,127597,987823
26,18,female,Belgium,2,111,guess,neutral,5,left,16,guess_choice,1019,j,0,0,539,126567,988853
26,18,female,Belgium,2,111,guess,neutral,5,left,16,guess_outcome,0,undefined,0,0,539,125002,990418
26,18,female,Belgium,2,111,ITC,neutral,5,left,16,ITC_start,572,space,0,0,539,124425,990995
26,18,female,Belgium,2,111,ITC,neutral,5,left,16,ITC_choice,796,j,0,0,539,123625,991795
26,18,female,Belgium,2,111,ITC,neutral,5,left,16,ITC_wait,0,undefined,0,0,539,123620,991800
26,18,female,Belgium,2,111,ITC,neutral,5,left,16,ITC_collect,153,k,0,0,539,123464,991956
26,18,female,Belgium,2,111,ITC,neutral,5,left,16,ITC_outcome,0,undefined,0,0,555,122451,992969
26,18,female,Belgium,2,112,guess,loss,5,left,2,guess_start,43,space,0,0,555,122403,993017
26,18,female,Belgium,2,112,guess,loss,5,left,2,guess_choice,571,f,0,0,555,121820,993600
26,18,female,Belgium,2,112,guess,loss,5,left,2,guess_outcome,0,undefined,0,0,540,120264,995156
26,18,female,Belgium,2,112,ITC,loss,5,left,2,ITC_start,811,space,0,0,540,119450,995970
26,18,female,Belgium,2,112,ITC,loss,5,left,2,ITC_wait,0,undefined,0,0,540,118865,996555
26,18,female,Belgium,2,112,ITC,loss,5,left,2,ITC_choice,577,j,0,0,540,118869,996551
26,18,female,Belgium,2,112,ITC,loss,5,left,2,ITC_collect,171,k,0,0,540,118693,996727
26,18,female,Belgium,2,113,guess,neutral,5,left,4,guess_start,195,space,0,0,542,117490,997930
26,18,female,Belgium,2,112,ITC,loss,5,left,2,ITC_outcome,0,undefined,0,0,542,117689,997731
26,18,female,Belgium,2,113,guess,neutral,5,left,4,guess_choice,525,f,0,0,542,116960,998460
26,18,female,Belgium,2,113,guess,neutral,5,left,4,guess_outcome,0,undefined,0,0,542,115404,1000016
26,18,female,Belgium,2,113,ITC,neutral,5,left,4,ITC_start,182,space,0,0,542,115219,1000201
26,18,female,Belgium,2,113,ITC,neutral,5,left,4,ITC_choice,560,j,0,0,542,114656,1000764
26,18,female,Belgium,2,113,ITC,neutral,5,left,4,ITC_wait,0,undefined,0,0,542,114652,1000768
26,18,female,Belgium,2,113,ITC,neutral,5,left,4,ITC_collect,115,k,0,0,542,114535,1000885
26,18,female,Belgium,2,113,ITC,neutral,5,left,4,ITC_outcome,0,undefined,0,0,546,113531,1001889
26,18,female,Belgium,2,114,guess,win,5,left,6,guess_start,284,space,0,0,546,113243,1002177
26,18,female,Belgium,2,114,guess,win,5,left,6,guess_choice,555,f,0,0,546,112682,1002738
26,18,female,Belgium,2,114,guess,win,5,left,6,guess_outcome,0,undefined,0,0,566,111123,1004297
26,18,female,Belgium,2,114,ITC,win,5,left,6,ITC_start,78,space,0,0,566,111042,1004378
26,18,female,Belgium,2,114,ITC,win,5,left,6,ITC_choice,501,j,0,0,566,110537,1004883
26,18,female,Belgium,2,114,ITC,win,5,left,6,ITC_wait,0,undefined,0,0,566,110533,1004887
26,18,female,Belgium,2,114,ITC,win,5,left,6,ITC_collect,117,k,0,0,566,110414,1005006
26,18,female,Belgium,2,114,ITC,win,5,left,6,ITC_outcome,0,undefined,0,0,572,109408,1006012
26,18,female,Belgium,2,115,guess,neutral,5,left,9,guess_start,55,space,0,0,572,109349,1006071
26,18,female,Belgium,2,115,guess,neutral,5,left,9,guess_choice,585,f,0,0,572,108759,1006661
26,18,female,Belgium,2,115,guess,neutral,5,left,9,guess_outcome,0,undefined,0,0,572,107202,1008218
26,18,female,Belgium,2,115,ITC,neutral,5,left,9,ITC_start,20,space,0,0,572,107180,1008240
26,18,female,Belgium,2,115,ITC,neutral,5,left,9,ITC_choice,569,j,0,0,572,106609,1008811
26,18,female,Belgium,2,115,ITC,neutral,5,left,9,ITC_wait,0,undefined,0,0,572,106605,1008815
26,18,female,Belgium,2,115,ITC,neutral,5,left,9,ITC_collect,98,k,0,0,572,106506,1008914
26,18,female,Belgium,2,115,ITC,neutral,5,left,9,ITC_outcome,0,undefined,0,0,581,105500,1009920
26,18,female,Belgium,2,116,guess,neutral,5,left,8,guess_start,41,space,0,0,581,105454,1009966
26,18,female,Belgium,2,116,guess,neutral,5,left,8,guess_choice,842,j,0,0,581,104605,1010815
26,18,female,Belgium,2,116,guess,neutral,5,left,8,guess_outcome,0,undefined,0,0,581,103046,1012374
26,18,female,Belgium,2,116,ITC,neutral,5,left,8,ITC_start,156,space,0,0,581,102887,1012533
26,18,female,Belgium,2,116,ITC,neutral,5,left,8,ITC_choice,623,j,0,0,581,102261,1013159
26,18,female,Belgium,2,116,ITC,neutral,5,left,8,ITC_wait,0,undefined,0,0,581,102257,1013163
26,18,female,Belgium,2,116,ITC,neutral,5,left,8,ITC_collect,141,k,0,0,581,102114,1013306
26,18,female,Belgium,2,116,ITC,neutral,5,left,8,ITC_outcome,0,undefined,0,0,589,101108,1014312
26,18,female,Belgium,2,117,guess,win,5,left,15,guess_start,114,space,0,0,589,100989,1014431
26,18,female,Belgium,2,117,guess,win,5,left,15,guess_choice,654,f,0,0,589,100328,1015092
26,18,female,Belgium,2,117,guess,win,5,left,15,guess_outcome,0,undefined,0,0,609,98771,1016649
26,18,female,Belgium,2,117,ITC,win,5,left,15,ITC_start,72,space,0,0,609,98696,1016724
26,18,female,Belgium,2,117,ITC,win,5,left,15,ITC_choice,588,j,0,0,609,98106,1017314
26,18,female,Belgium,2,117,ITC,win,5,left,15,ITC_wait,0,undefined,0,0,609,98101,1017319
26,18,female,Belgium,2,117,ITC,win,5,left,15,ITC_collect,100,k,0,0,609,97999,1017421
26,18,female,Belgium,2,117,ITC,win,5,left,15,ITC_outcome,0,undefined,0,0,624,96990,1018430
26,18,female,Belgium,2,118,guess,neutral,5,left,2,guess_start,22,space,0,0,624,96964,1018456
26,18,female,Belgium,2,118,guess,neutral,5,left,2,guess_choice,603,f,0,0,624,96353,1019067
26,18,female,Belgium,2,118,guess,neutral,5,left,2,guess_outcome,0,undefined,0,0,624,94793,1020627
26,18,female,Belgium,2,118,ITC,neutral,5,left,2,ITC_start,92,space,0,0,624,94697,1020723
26,18,female,Belgium,2,118,ITC,neutral,5,left,2,ITC_wait,0,undefined,0,0,624,94130,1021290
26,18,female,Belgium,2,118,ITC,neutral,5,left,2,ITC_choice,559,j,0,0,624,94134,1021286
26,18,female,Belgium,2,118,ITC,neutral,5,left,2,ITC_collect,50,k,0,0,624,94078,1021342
26,18,female,Belgium,2,118,ITC,neutral,5,left,2,ITC_outcome,0,undefined,0,0,626,93071,1022349
26,18,female,Belgium,2,119,guess,neutral,5,right,14,guess_start,117,space,0,0,626,92950,1022470
26,18,female,Belgium,2,119,guess,neutral,5,right,14,guess_choice,527,f,0,0,626,92414,1023006
26,18,female,Belgium,2,119,guess,neutral,5,right,14,guess_outcome,0,undefined,0,0,626,90854,1024566
26,18,female,Belgium,2,119,ITC,neutral,5,right,14,ITC_start,95,space,0,0,626,90754,1024666
26,18,female,Belgium,2,119,ITC,neutral,5,right,14,ITC_choice,789,j,0,0,626,89961,1025459
26,18,female,Belgium,2,119,ITC,neutral,5,right,14,ITC_wait,0,undefined,0,0,626,84957,1030463
26,18,female,Belgium,2,119,ITC,neutral,5,right,14,ITC_collect,305,k,0,0,626,84647,1030773
26,18,female,Belgium,2,119,ITC,neutral,5,right,14,ITC_outcome,0,undefined,0,0,646,83637,1031783
26,18,female,Belgium,2,120,guess,win,5,right,8,guess_start,714,space,0,0,646,82918,1032502
26,18,female,Belgium,2,120,guess,win,5,right,8,guess_choice,566,f,0,0,646,82341,1033079
26,18,female,Belgium,2,120,guess,win,5,right,8,guess_outcome,0,undefined,0,0,666,80779,1034641
26,18,female,Belgium,2,120,ITC,win,5,right,8,ITC_start,557,space,0,0,666,80218,1035202
26,18,female,Belgium,2,120,ITC,win,5,right,8,ITC_choice,623,f,0,0,666,79591,1035829
26,18,female,Belgium,2,120,ITC,win,5,right,8,ITC_wait,0,undefined,0,0,666,79587,1035833
26,18,female,Belgium,2,120,ITC,win,5,right,8,ITC_collect,119,k,0,0,666,79466,1035954
26,18,female,Belgium,2,120,ITC,win,5,right,8,ITC_outcome,0,undefined,0,0,674,78455,1036965
26,18,female,Belgium,2,121,guess,win,10,left,7,guess_start,141,space,0,0,674,78309,1037111
26,18,female,Belgium,2,121,guess,win,10,left,7,guess_choice,759,j,0,0,674,77539,1037881
26,18,female,Belgium,2,121,guess,win,10,left,7,guess_outcome,0,undefined,0,0,694,75977,1039443
26,18,female,Belgium,2,121,ITC,win,10,left,7,ITC_start,599,space,0,0,694,75374,1040046
26,18,female,Belgium,2,121,ITC,win,10,left,7,ITC_choice,586,j,0,0,694,74785,1040635
26,18,female,Belgium,2,121,ITC,win,10,left,7,ITC_wait,0,undefined,0,0,694,74780,1040640
26,18,female,Belgium,2,121,ITC,win,10,left,7,ITC_collect,88,k,0,0,694,74689,1040731
26,18,female,Belgium,2,121,ITC,win,10,left,7,ITC_outcome,0,undefined,0,0,701,73676,1041744
26,18,female,Belgium,2,122,guess,loss,5,left,12,guess_start,344,space,0,0,701,73326,1042094
26,18,female,Belgium,2,122,guess,loss,5,left,12,guess_choice,540,f,0,0,701,72775,1042645
26,18,female,Belgium,2,122,guess,loss,5,left,12,guess_outcome,0,undefined,0,0,686,71212,1044208
26,18,female,Belgium,2,122,ITC,loss,5,left,12,ITC_start,168,space,0,0,686,71040,1044380
26,18,female,Belgium,2,122,ITC,loss,5,left,12,ITC_choice,533,j,0,0,686,70502,1044918
26,18,female,Belgium,2,122,ITC,loss,5,left,12,ITC_wait,0,undefined,0,0,686,70497,1044923
26,18,female,Belgium,2,122,ITC,loss,5,left,12,ITC_collect,104,k,0,0,686,70390,1045030
26,18,female,Belgium,2,122,ITC,loss,5,left,12,ITC_outcome,0,undefined,0,0,698,69380,1046040
26,18,female,Belgium,2,123,guess,win,10,right,5,guess_start,233,space,0,0,698,69142,1046278
26,18,female,Belgium,2,123,guess,win,10,right,5,guess_choice,900,j,0,0,698,68230,1047190
26,18,female,Belgium,2,123,guess,win,10,right,5,guess_outcome,0,undefined,0,0,718,66666,1048754
26,18,female,Belgium,2,123,ITC,win,10,right,5,ITC_start,104,space,0,0,718,66557,1048863
26,18,female,Belgium,2,123,ITC,win,10,right,5,ITC_choice,765,f,0,0,718,65787,1049633
26,18,female,Belgium,2,123,ITC,win,10,right,5,ITC_wait,0,undefined,0,0,718,65783,1049637
26,18,female,Belgium,2,123,ITC,win,10,right,5,ITC_collect,104,k,0,0,718,65676,1049744
26,18,female,Belgium,2,123,ITC,win,10,right,5,ITC_outcome,0,undefined,0,0,723,64663,1050757
26,18,female,Belgium,2,124,guess,loss,10,left,2,guess_start,1,space,0,0,723,64656,1050764
26,18,female,Belgium,2,124,guess,loss,10,left,2,guess_choice,618,j,0,0,723,64027,1051393
26,18,female,Belgium,2,124,guess,loss,10,left,2,guess_outcome,0,undefined,0,0,708,62464,1052956
26,18,female,Belgium,2,124,ITC,loss,10,left,2,ITC_start,65,space,0,0,708,62393,1053027
26,18,female,Belgium,2,124,ITC,loss,10,left,2,ITC_choice,520,j,0,0,708,61869,1053551
26,18,female,Belgium,2,124,ITC,loss,10,left,2,ITC_wait,0,undefined,0,0,708,61865,1053555
26,18,female,Belgium,2,124,ITC,loss,10,left,2,ITC_collect,93,k,0,0,708,61768,1053652
26,18,female,Belgium,2,124,ITC,loss,10,left,2,ITC_outcome,0,undefined,0,0,710,60756,1054664
26,18,female,Belgium,2,125,guess,loss,10,left,3,guess_start,18,space,0,0,710,60733,1054687
26,18,female,Belgium,2,125,guess,loss,10,left,3,guess_choice,493,f,0,0,710,60227,1055193
26,18,female,Belgium,2,125,guess,loss,10,left,3,guess_outcome,0,undefined,0,0,695,58666,1056754
26,18,female,Belgium,2,125,ITC,loss,10,left,3,ITC_start,96,space,0,0,695,58565,1056855
26,18,female,Belgium,2,125,ITC,loss,10,left,3,ITC_choice,574,j,0,0,695,57988,1057432
26,18,female,Belgium,2,125,ITC,loss,10,left,3,ITC_wait,0,undefined,0,0,695,57984,1057436
26,18,female,Belgium,2,125,ITC,loss,10,left,3,ITC_collect,71,k,0,0,695,57911,1057509
26,18,female,Belgium,2,125,ITC,loss,10,left,3,ITC_outcome,0,undefined,0,0,698,56906,1058514
26,18,female,Belgium,2,126,guess,loss,5,left,4,guess_start,108,space,0,0,698,56794,1058626
26,18,female,Belgium,2,126,guess,loss,5,left,4,guess_choice,563,f,0,0,698,56226,1059194
26,18,female,Belgium,2,126,guess,loss,5,left,4,guess_outcome,0,undefined,0,0,683,54669,1060751
26,18,female,Belgium,2,126,ITC,loss,5,left,4,ITC_start,70,space,0,0,683,54596,1060824
26,18,female,Belgium,2,126,ITC,loss,5,left,4,ITC_choice,673,j,0,0,683,53921,1061499
26,18,female,Belgium,2,126,ITC,loss,5,left,4,ITC_wait,0,undefined,0,0,683,53917,1061503
26,18,female,Belgium,2,126,ITC,loss,5,left,4,ITC_collect,74,k,0,0,683,53841,1061579
26,18,female,Belgium,2,126,ITC,loss,5,left,4,ITC_outcome,0,undefined,0,0,687,52836,1062584
26,18,female,Belgium,2,127,guess,win,5,right,13,guess_start,147,space,0,0,687,52685,1062735
26,18,female,Belgium,2,127,guess,win,5,right,13,guess_choice,426,f,0,0,687,52253,1063167
26,18,female,Belgium,2,127,guess,win,5,right,13,guess_outcome,0,undefined,0,0,707,50698,1064722
26,18,female,Belgium,2,127,ITC,win,5,right,13,ITC_start,86,space,0,0,707,50608,1064812
26,18,female,Belgium,2,127,ITC,win,5,right,13,ITC_choice,1114,f,0,0,707,49491,1065929
26,18,female,Belgium,2,127,ITC,win,5,right,13,ITC_wait,0,undefined,0,0,707,49488,1065932
26,18,female,Belgium,2,127,ITC,win,5,right,13,ITC_collect,59,k,0,0,707,49427,1065993
26,18,female,Belgium,2,127,ITC,win,5,right,13,ITC_outcome,0,undefined,0,0,720,48422,1066998
26,18,female,Belgium,2,128,guess,loss,10,right,6,guess_start,158,space,0,0,720,48261,1067159
26,18,female,Belgium,2,128,guess,loss,10,right,6,guess_choice,515,j,0,0,720,47739,1067681
26,18,female,Belgium,2,128,guess,loss,10,right,6,guess_outcome,0,undefined,0,0,705,46182,1069238
26,18,female,Belgium,2,128,ITC,loss,10,right,6,ITC_start,112,space,0,0,705,46067,1069353
26,18,female,Belgium,2,128,ITC,loss,10,right,6,ITC_choice,1212,f,0,0,705,44853,1070567
26,18,female,Belgium,2,128,ITC,loss,10,right,6,ITC_wait,0,undefined,0,0,705,44849,1070571
26,18,female,Belgium,2,128,ITC,loss,10,right,6,ITC_collect,168,k,0,0,705,44679,1070741
26,18,female,Belgium,2,128,ITC,loss,10,right,6,ITC_outcome,0,undefined,0,0,711,43672,1071748
26,18,female,Belgium,2,129,guess,neutral,10,right,4,guess_start,87,space,0,0,711,43581,1071839
26,18,female,Belgium,2,129,guess,neutral,10,right,4,guess_choice,489,f,0,0,711,43086,1072334
26,18,female,Belgium,2,129,guess,neutral,10,right,4,guess_outcome,0,undefined,0,0,711,41527,1073893
26,18,female,Belgium,2,129,ITC,neutral,10,right,4,ITC_start,35,space,0,0,711,41488,1073932
26,18,female,Belgium,2,129,ITC,neutral,10,right,4,ITC_choice,567,f,0,0,711,40918,1074502
26,18,female,Belgium,2,129,ITC,neutral,10,right,4,ITC_wait,0,undefined,0,0,711,40914,1074506
26,18,female,Belgium,2,129,ITC,neutral,10,right,4,ITC_collect,546,k,0,0,711,40366,1075054
26,18,female,Belgium,2,130,guess,win,10,left,4,guess_start,0,space,0,0,715,39355,1076065
26,18,female,Belgium,2,129,ITC,neutral,10,right,4,ITC_outcome,0,undefined,0,0,715,39359,1076061
26,18,female,Belgium,2,130,guess,win,10,left,4,guess_choice,472,f,0,0,715,38878,1076542
26,18,female,Belgium,2,130,guess,win,10,left,4,guess_outcome,0,undefined,0,0,735,37319,1078101
26,18,female,Belgium,2,130,ITC,win,10,left,4,ITC_start,0,space,0,0,735,37315,1078105
26,18,female,Belgium,2,130,ITC,win,10,left,4,ITC_wait,0,undefined,0,0,735,35990,1079430
26,18,female,Belgium,2,130,ITC,win,10,left,4,ITC_choice,1319,j,0,0,735,35993,1079427
26,18,female,Belgium,2,130,ITC,win,10,left,4,ITC_collect,120,k,0,0,735,35867,1079553
26,18,female,Belgium,2,130,ITC,win,10,left,4,ITC_outcome,0,undefined,0,0,739,34860,1080560
26,18,female,Belgium,2,131,guess,win,5,right,1,guess_start,147,space,0,0,739,34708,1080712
26,18,female,Belgium,2,131,guess,win,5,right,1,guess_choice,1837,j,0,0,739,32863,1082557
26,18,female,Belgium,2,131,guess,win,5,right,1,guess_outcome,0,undefined,0,0,759,31302,1084118
26,18,female,Belgium,2,131,ITC,win,5,right,1,ITC_start,3,space,0,0,759,31294,1084126
26,18,female,Belgium,2,131,ITC,win,5,right,1,ITC_choice,772,f,0,0,759,30519,1084901
26,18,female,Belgium,2,131,ITC,win,5,right,1,ITC_wait,0,undefined,0,0,759,30515,1084905
26,18,female,Belgium,2,131,ITC,win,5,right,1,ITC_collect,104,k,0,0,759,30408,1085012
26,18,female,Belgium,2,131,ITC,win,5,right,1,ITC_outcome,0,undefined,0,0,760,29399,1086021
26,18,female,Belgium,2,132,guess,win,5,left,4,guess_start,77,space,0,0,760,29318,1086102
26,18,female,Belgium,2,132,guess,win,5,left,4,guess_choice,512,f,0,0,760,28795,1086625
26,18,female,Belgium,2,132,guess,win,5,left,4,guess_outcome,0,undefined,0,0,780,27234,1088186
26,18,female,Belgium,2,132,ITC,win,5,left,4,ITC_start,194,space,0,0,780,27036,1088384
26,18,female,Belgium,2,132,ITC,win,5,left,4,ITC_wait,0,undefined,0,0,780,26307,1089113
26,18,female,Belgium,2,132,ITC,win,5,left,4,ITC_choice,721,j,0,0,780,26311,1089109
26,18,female,Belgium,2,132,ITC,win,5,left,4,ITC_collect,85,k,0,0,780,26219,1089201
26,18,female,Belgium,2,132,ITC,win,5,left,4,ITC_outcome,0,undefined,0,0,784,25210,1090210
26,18,female,Belgium,2,133,guess,loss,5,right,13,guess_start,32,space,0,0,784,25173,1090247
26,18,female,Belgium,2,133,guess,loss,5,right,13,guess_choice,528,f,0,0,784,24636,1090784
26,18,female,Belgium,2,133,guess,loss,5,right,13,guess_outcome,0,undefined,0,0,769,23074,1092346
26,18,female,Belgium,2,133,ITC,loss,5,right,13,ITC_start,164,space,0,0,769,22906,1092514
26,18,female,Belgium,2,133,ITC,loss,5,right,13,ITC_choice,694,f,0,0,769,22208,1093212
26,18,female,Belgium,2,133,ITC,loss,5,right,13,ITC_wait,0,undefined,0,0,769,22204,1093216
26,18,female,Belgium,2,133,ITC,loss,5,right,13,ITC_collect,113,k,0,0,769,22089,1093331
26,18,female,Belgium,2,133,ITC,loss,5,right,13,ITC_outcome,0,undefined,0,0,782,21078,1094342
26,18,female,Belgium,2,134,guess,win,5,left,5,guess_start,146,space,0,0,782,20926,1094494
26,18,female,Belgium,2,134,guess,win,5,left,5,guess_choice,429,f,0,0,782,20488,1094932
26,18,female,Belgium,2,134,guess,win,5,left,5,guess_outcome,0,undefined,0,0,802,18928,1096492
26,18,female,Belgium,2,134,ITC,win,5,left,5,ITC_start,51,space,0,0,802,18873,1096547
26,18,female,Belgium,2,134,ITC,win,5,left,5,ITC_wait,0,undefined,0,0,802,18334,1097086
26,18,female,Belgium,2,134,ITC,win,5,left,5,ITC_choice,530,j,0,0,802,18339,1097081
26,18,female,Belgium,2,134,ITC,win,5,left,5,ITC_collect,88,k,0,0,802,18244,1097176
26,18,female,Belgium,2,134,ITC,win,5,left,5,ITC_outcome,0,undefined,0,0,807,17234,1098186
26,18,female,Belgium,2,135,guess,loss,5,left,6,guess_start,47,space,0,0,807,17181,1098239
26,18,female,Belgium,2,135,guess,loss,5,left,6,guess_choice,502,f,0,0,807,16668,1098752
26,18,female,Belgium,2,135,guess,loss,5,left,6,guess_outcome,0,undefined,0,0,792,15105,1100315
26,18,female,Belgium,2,135,ITC,loss,5,left,6,ITC_start,83,space,0,0,792,15017,1100403
26,18,female,Belgium,2,135,ITC,loss,5,left,6,ITC_choice,563,j,0,0,792,14449,1100971
26,18,female,Belgium,2,135,ITC,loss,5,left,6,ITC_wait,0,undefined,0,0,792,14445,1100975
26,18,female,Belgium,2,135,ITC,loss,5,left,6,ITC_collect,43,k,0,0,792,14400,1101020
26,18,female,Belgium,2,135,ITC,loss,5,left,6,ITC_outcome,0,undefined,0,0,798,13388,1102032
26,18,female,Belgium,2,136,guess,win,10,left,2,guess_start,68,space,0,0,798,13315,1102105
26,18,female,Belgium,2,136,guess,win,10,left,2,guess_choice,626,f,0,0,798,12678,1102742
26,18,female,Belgium,2,136,guess,win,10,left,2,guess_outcome,0,undefined,0,0,818,11115,1104305
26,18,female,Belgium,2,136,ITC,win,10,left,2,ITC_start,192,space,0,0,818,10919,1104501
26,18,female,Belgium,2,136,ITC,win,10,left,2,ITC_wait,0,undefined,0,0,818,10187,1105233
26,18,female,Belgium,2,136,ITC,win,10,left,2,ITC_choice,723,j,0,0,818,10192,1105228
26,18,female,Belgium,2,136,ITC,win,10,left,2,ITC_collect,44,k,0,0,818,10140,1105280
26,18,female,Belgium,2,136,ITC,win,10,left,2,ITC_outcome,0,undefined,0,0,820,9128,1106292
26,18,female,Belgium,2,137,guess,win,5,left,12,guess_start,55,space,0,0,820,9069,1106351
26,18,female,Belgium,2,137,guess,win,5,left,12,guess_choice,538,j,0,0,820,8520,1106900
26,18,female,Belgium,2,137,guess,win,5,left,12,guess_outcome,0,undefined,0,0,840,6959,1108461
26,18,female,Belgium,2,137,ITC,win,5,left,12,ITC_start,57,space,0,0,840,6898,1108522
26,18,female,Belgium,2,137,ITC,win,5,left,12,ITC_wait,0,undefined,0,0,840,6367,1109053
26,18,female,Belgium,2,137,ITC,win,5,left,12,ITC_choice,526,j,0,0,840,6370,1109050
26,18,female,Belgium,2,137,ITC,win,5,left,12,ITC_collect,86,k,0,0,840,6279,1109141
26,18,female,Belgium,2,137,ITC,win,5,left,12,ITC_outcome,0,undefined,0,0,852,5274,1110146
26,18,female,Belgium,2,138,guess,neutral,10,right,3,guess_start,106,space,0,0,852,5164,1110256
26,18,female,Belgium,2,138,guess,neutral,10,right,3,guess_choice,1420,j,0,0,852,3739,1111681
26,18,female,Belgium,2,138,guess,neutral,10,right,3,guess_outcome,0,undefined,0,0,852,2182,1113238
26,18,female,Belgium,2,138,ITC,neutral,10,right,3,ITC_start,196,space,0,0,852,1982,1113438
26,18,female,Belgium,2,138,ITC,neutral,10,right,3,ITC_choice,672,f,0,0,852,1307,1114113
26,18,female,Belgium,2,138,ITC,neutral,10,right,3,ITC_wait,0,undefined,0,0,852,1303,1114117
26,18,female,Belgium,2,138,ITC,neutral,10,right,3,ITC_collect,94,k,0,0,852,1207,1114213
26,18,female,Belgium,2,138,ITC,neutral,10,right,3,ITC_outcome,0,undefined,0,0,855,202,1115218
26,18,female,Belgium,2,139,guess,win,5,left,9,guess_start,193,space,0,0,855,5,1115415
26,18,female,Belgium,2,139,guess,win,5,left,9,guess_choice,0,undefined,0,0,855,-6,1115426
26,18,female,Belgium,3,140,guess,loss,5,right,15,guess_start,593,space,0,0,0,479404,1129986
26,18,female,Belgium,3,140,guess,loss,5,right,15,guess_choice,614,j,0,0,0,478782,1130608
26,18,female,Belgium,3,140,guess,loss,5,right,15,guess_outcome,0,undefined,0,0,-15,477223,1132167
26,18,female,Belgium,3,140,ITC,loss,5,right,15,ITC_start,93,space,0,0,-15,477126,1132264
26,18,female,Belgium,3,140,ITC,loss,5,right,15,ITC_choice,1016,f,0,0,-15,476107,1133283
26,18,female,Belgium,3,140,ITC,loss,5,right,15,ITC_wait,0,undefined,0,0,-15,476103,1133287
26,18,female,Belgium,3,140,ITC,loss,5,right,15,ITC_collect,334,k,0,0,-15,475766,1133624
26,18,female,Belgium,3,140,ITC,loss,5,right,15,ITC_outcome,0,undefined,0,0,0,474757,1134633
26,18,female,Belgium,3,141,guess,win,5,left,3,guess_start,134,space,0,0,0,474618,1134772
26,18,female,Belgium,3,141,guess,win,5,left,3,guess_choice,484,j,0,0,0,474125,1135265
26,18,female,Belgium,3,141,guess,win,5,left,3,guess_outcome,0,undefined,0,0,20,472567,1136823
26,18,female,Belgium,3,141,ITC,win,5,left,3,ITC_start,33,space,0,0,20,472530,1136860
26,18,female,Belgium,3,141,ITC,win,5,left,3,ITC_wait,0,undefined,0,0,20,472027,1137363
26,18,female,Belgium,3,141,ITC,win,5,left,3,ITC_choice,496,j,0,0,20,472031,1137359
26,18,female,Belgium,3,141,ITC,win,5,left,3,ITC_collect,46,k,0,0,20,471980,1137410
