subjectID,age,gender,nationality,block_number,trial_number,trial_type,guess_outcome,delay_time,delay_pos,immediate_amount,stage,respRT,respKey,blur_count,focus_count,total_points,remaining_duration,time_elapsed
40,24,male,Belgian,1,1,guess,win,10,left,5,guess_start,13901,space,0,0,0,466096,509517
40,24,male,Belgian,1,1,guess,win,10,left,5,guess_choice,2172,j,0,0,0,463920,511693
40,24,male,Belgian,1,1,guess,win,10,left,5,guess_outcome,0,undefined,0,0,20,462353,513260
40,24,male,Belgian,1,1,ITC,win,10,left,5,ITC_start,2023,space,0,0,20,460328,515285
40,24,male,Belgian,1,1,ITC,win,10,left,5,ITC_choice,4208,f,0,0,20,456120,519493
40,24,male,Belgian,1,1,ITC,win,10,left,5,ITC_wait,0,undefined,0,0,20,446099,529514
40,24,male,Belgian,1,1,ITC,win,10,left,5,ITC_collect,1347,k,0,0,20,444751,530862
40,24,male,Belgian,1,1,ITC,win,10,left,5,ITC_outcome,0,undefined,0,0,40,443739,531874
40,24,male,Belgian,1,2,guess,neutral,10,right,1,guess_start,1857,space,0,0,40,441880,533733
40,24,male,Belgian,1,2,guess,neutral,10,right,1,guess_choice,1421,f,0,0,40,440457,535156
40,24,male,Belgian,1,2,guess,neutral,10,right,1,guess_outcome,0,undefined,0,0,40,438898,536715
40,24,male,Belgian,1,2,ITC,neutral,10,right,1,ITC_start,3499,space,0,0,40,435399,540214
40,24,male,Belgian,1,2,ITC,neutral,10,right,1,ITC_choice,5007,j,0,0,40,430391,545222
40,24,male,Belgian,1,2,ITC,neutral,10,right,1,ITC_wait,0,undefined,0,0,40,420379,555234
40,24,male,Belgian,1,2,ITC,neutral,10,right,1,ITC_outcome,0,undefined,0,0,60,385769,589844
40,24,male,Belgian,1,3,guess,neutral,5,left,9,guess_outcome,0,undefined,0,0,60,377188,598425
40,24,male,Belgian,1,2,ITC,neutral,10,right,1,ITC_collect,33601,k,0,0,40,386775,588838
40,24,male,Belgian,1,3,guess,neutral,5,left,9,guess_start,5095,space,0,0,60,380672,594941
40,24,male,Belgian,1,3,guess,neutral,5,left,9,guess_choice,1925,f,0,0,60,378744,596869
40,24,male,Belgian,1,3,ITC,neutral,5,left,9,ITC_start,1226,space,0,0,60,375960,599653
40,24,male,Belgian,1,3,ITC,neutral,5,left,9,ITC_choice,4542,f,0,0,60,371415,604198
40,24,male,Belgian,1,3,ITC,neutral,5,left,9,ITC_wait,0,undefined,0,0,60,366408,609205
40,24,male,Belgian,1,3,ITC,neutral,5,left,9,ITC_collect,1240,k,0,0,60,365167,610446
40,24,male,Belgian,1,3,ITC,neutral,5,left,9,ITC_outcome,0,undefined,0,0,80,364148,611465
40,24,male,Belgian,1,4,guess,neutral,10,left,2,guess_start,1956,space,0,0,80,362191,613422
40,24,male,Belgian,1,4,guess,neutral,10,left,2,guess_choice,1052,j,0,0,80,361135,614478
40,24,male,Belgian,1,4,guess,neutral,10,left,2,guess_outcome,0,undefined,0,0,80,359567,616046
40,24,male,Belgian,1,4,ITC,neutral,10,left,2,ITC_start,1647,space,0,0,80,357919,617694
40,24,male,Belgian,1,4,ITC,neutral,10,left,2,ITC_choice,4351,f,0,0,80,353567,622046
40,24,male,Belgian,1,4,ITC,neutral,10,left,2,ITC_wait,0,undefined,0,0,80,343549,632064
40,24,male,Belgian,1,4,ITC,neutral,10,left,2,ITC_collect,1692,k,0,0,80,341855,633758
40,24,male,Belgian,1,4,ITC,neutral,10,left,2,ITC_outcome,0,undefined,0,0,100,340848,634765
40,24,male,Belgian,1,5,guess,neutral,5,left,4,guess_start,1230,space,0,0,100,339616,635997
40,24,male,Belgian,1,5,guess,neutral,5,left,4,guess_choice,1670,f,0,0,100,337943,637670
40,24,male,Belgian,1,5,guess,neutral,5,left,4,guess_outcome,0,undefined,0,0,100,336388,639225
40,24,male,Belgian,1,5,ITC,neutral,5,left,4,ITC_start,1228,space,0,0,100,335159,640454
40,24,male,Belgian,1,5,ITC,neutral,5,left,4,ITC_choice,2839,f,0,0,100,332319,643294
40,24,male,Belgian,1,5,ITC,neutral,5,left,4,ITC_wait,0,undefined,0,0,100,327308,648305
40,24,male,Belgian,1,5,ITC,neutral,5,left,4,ITC_collect,643,k,0,0,100,326663,648950
40,24,male,Belgian,1,5,ITC,neutral,5,left,4,ITC_outcome,0,undefined,0,0,120,325648,649965
40,24,male,Belgian,1,6,guess,win,10,right,3,guess_start,662,space,0,0,120,324983,650630
40,24,male,Belgian,1,6,guess,win,10,right,3,guess_choice,1789,f,0,0,120,323192,652421
40,24,male,Belgian,1,6,guess,win,10,right,3,guess_outcome,0,undefined,0,0,140,321627,653986
40,24,male,Belgian,1,6,ITC,win,10,right,3,ITC_start,803,space,0,0,140,320823,654790
40,24,male,Belgian,1,6,ITC,win,10,right,3,ITC_choice,2663,j,0,0,140,318159,657454
40,24,male,Belgian,1,6,ITC,win,10,right,3,ITC_wait,0,undefined,0,0,140,308137,667476
40,24,male,Belgian,1,6,ITC,win,10,right,3,ITC_collect,977,k,0,0,140,307158,668455
40,24,male,Belgian,1,6,ITC,win,10,right,3,ITC_outcome,0,undefined,0,0,160,306137,669476
40,24,male,Belgian,1,7,guess,win,5,left,11,guess_start,791,space,0,0,160,305344,670269
40,24,male,Belgian,1,7,guess,win,5,left,11,guess_choice,2126,f,0,0,160,303215,672398
40,24,male,Belgian,1,7,guess,win,5,left,11,guess_outcome,0,undefined,0,0,180,301657,673956
40,24,male,Belgian,1,7,ITC,win,5,left,11,ITC_start,729,space,0,0,180,300927,674686
40,24,male,Belgian,1,7,ITC,win,5,left,11,ITC_choice,2368,f,0,0,180,298559,677054
40,24,male,Belgian,1,7,ITC,win,5,left,11,ITC_wait,0,undefined,0,0,180,293557,682056
40,24,male,Belgian,1,7,ITC,win,5,left,11,ITC_collect,964,k,0,0,180,292591,683022
40,24,male,Belgian,1,7,ITC,win,5,left,11,ITC_outcome,0,undefined,0,0,200,291578,684035
40,24,male,Belgian,1,8,guess,win,10,left,7,guess_start,537,space,0,0,200,291038,684575
40,24,male,Belgian,1,8,guess,win,10,left,7,guess_choice,1188,j,0,0,200,289848,685765
40,24,male,Belgian,1,8,guess,win,10,left,7,guess_outcome,0,undefined,0,0,220,288277,687336
40,24,male,Belgian,1,8,ITC,win,10,left,7,ITC_start,830,space,0,0,220,287447,688166
40,24,male,Belgian,1,8,ITC,win,10,left,7,ITC_choice,1749,f,0,0,220,285695,689918
40,24,male,Belgian,1,8,ITC,win,10,left,7,ITC_wait,0,undefined,0,0,220,275678,699935
40,24,male,Belgian,1,8,ITC,win,10,left,7,ITC_collect,990,k,0,0,220,274687,700926
40,24,male,Belgian,1,8,ITC,win,10,left,7,ITC_outcome,0,undefined,0,0,240,273677,701936
40,24,male,Belgian,1,9,guess,neutral,5,left,5,guess_start,612,space,0,0,240,273063,702550
40,24,male,Belgian,1,9,guess,neutral,5,left,5,guess_choice,1637,j,0,0,240,271422,704191
40,24,male,Belgian,1,9,guess,neutral,5,left,5,guess_outcome,0,undefined,0,0,240,269867,705746
40,24,male,Belgian,1,9,ITC,neutral,5,left,5,ITC_start,490,space,0,0,240,269375,706238
40,24,male,Belgian,1,9,ITC,neutral,5,left,5,ITC_choice,1694,f,0,0,240,267679,707934
40,24,male,Belgian,1,9,ITC,neutral,5,left,5,ITC_wait,0,undefined,0,0,240,262668,712945
40,24,male,Belgian,1,9,ITC,neutral,5,left,5,ITC_collect,691,k,0,0,240,261976,713637
40,24,male,Belgian,1,9,ITC,neutral,5,left,5,ITC_outcome,0,undefined,0,0,260,260967,714646
40,24,male,Belgian,1,10,guess,neutral,10,right,5,guess_start,599,space,0,0,260,260366,715247
40,24,male,Belgian,1,10,guess,neutral,10,right,5,guess_choice,1308,f,0,0,260,259055,716558
40,24,male,Belgian,1,10,guess,neutral,10,right,5,guess_outcome,0,undefined,0,0,260,257487,718126
40,24,male,Belgian,1,10,ITC,neutral,10,right,5,ITC_start,487,space,0,0,260,256999,718614
40,24,male,Belgian,1,10,ITC,neutral,10,right,5,ITC_choice,2542,j,0,0,260,254455,721158
40,24,male,Belgian,1,10,ITC,neutral,10,right,5,ITC_wait,0,undefined,0,0,260,244438,731175
40,24,male,Belgian,1,10,ITC,neutral,10,right,5,ITC_collect,909,k,0,0,260,243526,732087
40,24,male,Belgian,1,10,ITC,neutral,10,right,5,ITC_outcome,0,undefined,0,0,280,242518,733095
40,24,male,Belgian,1,11,guess,win,10,left,1,guess_start,677,space,0,0,280,241838,733775
40,24,male,Belgian,1,11,guess,win,10,left,1,guess_choice,1021,j,0,0,280,240815,734798
40,24,male,Belgian,1,11,guess,win,10,left,1,guess_outcome,0,undefined,0,0,300,239257,736356
40,24,male,Belgian,1,11,ITC,win,10,left,1,ITC_start,688,space,0,0,300,238567,737046
40,24,male,Belgian,1,11,ITC,win,10,left,1,ITC_choice,1647,f,0,0,300,236918,738695
40,24,male,Belgian,1,11,ITC,win,10,left,1,ITC_wait,0,undefined,0,0,300,226907,748706
40,24,male,Belgian,1,11,ITC,win,10,left,1,ITC_collect,1284,k,0,0,300,225623,749990
40,24,male,Belgian,1,11,ITC,win,10,left,1,ITC_outcome,0,undefined,0,0,320,224607,751006
40,24,male,Belgian,1,12,guess,loss,5,right,7,guess_start,590,space,0,0,320,224015,751598
40,24,male,Belgian,1,12,guess,loss,5,right,7,guess_choice,886,j,0,0,320,223126,752487
40,24,male,Belgian,1,12,guess,loss,5,right,7,guess_outcome,0,undefined,0,0,305,221567,754046
40,24,male,Belgian,1,12,ITC,loss,5,right,7,ITC_start,1990,space,0,0,305,219575,756038
40,24,male,Belgian,1,12,ITC,loss,5,right,7,ITC_choice,4104,j,0,0,305,215470,760143
40,24,male,Belgian,1,12,ITC,loss,5,right,7,ITC_wait,0,undefined,0,0,305,210468,765145
40,24,male,Belgian,1,12,ITC,loss,5,right,7,ITC_collect,1036,k,0,0,305,209430,766183
40,24,male,Belgian,1,12,ITC,loss,5,right,7,ITC_outcome,0,undefined,0,0,325,208427,767186
40,24,male,Belgian,1,13,guess,win,5,right,1,guess_start,507,space,0,0,325,207918,767695
40,24,male,Belgian,1,13,guess,win,5,right,1,guess_choice,966,j,0,0,325,206949,768664
40,24,male,Belgian,1,13,guess,win,5,right,1,guess_outcome,0,undefined,0,0,345,205387,770226
40,24,male,Belgian,1,13,ITC,win,5,right,1,ITC_start,699,space,0,0,345,204686,770927
40,24,male,Belgian,1,13,ITC,win,5,right,1,ITC_choice,2398,j,0,0,345,202286,773327
40,24,male,Belgian,1,13,ITC,win,5,right,1,ITC_wait,0,undefined,0,0,345,197277,778336
40,24,male,Belgian,1,13,ITC,win,5,right,1,ITC_collect,1206,k,0,0,345,196070,779543
40,24,male,Belgian,1,13,ITC,win,5,right,1,ITC_outcome,0,undefined,0,0,365,195057,780556
40,24,male,Belgian,1,14,guess,win,5,right,14,guess_start,736,space,0,0,365,194319,781294
40,24,male,Belgian,1,14,guess,win,5,right,14,guess_choice,1197,f,0,0,365,193118,782495
40,24,male,Belgian,1,14,guess,win,5,right,14,guess_outcome,0,undefined,0,0,385,191557,784056
40,24,male,Belgian,1,14,ITC,win,5,right,14,ITC_start,661,space,0,0,385,190895,784718
40,24,male,Belgian,1,14,ITC,win,5,right,14,ITC_choice,3983,j,0,0,385,186910,788703
40,24,male,Belgian,1,14,ITC,win,5,right,14,ITC_wait,0,undefined,0,0,385,181897,793716
40,24,male,Belgian,1,14,ITC,win,5,right,14,ITC_collect,600,k,0,0,385,181295,794318
40,24,male,Belgian,1,14,ITC,win,5,right,14,ITC_outcome,0,undefined,0,0,405,180276,795337
40,24,male,Belgian,1,15,guess,win,10,left,4,guess_start,421,space,0,0,405,179856,795757
40,24,male,Belgian,1,15,guess,win,10,left,4,guess_choice,918,j,0,0,405,178935,796678
40,24,male,Belgian,1,15,guess,win,10,left,4,guess_outcome,0,undefined,0,0,425,177376,798237
40,24,male,Belgian,1,15,ITC,win,10,left,4,ITC_start,776,space,0,0,425,176599,799014
40,24,male,Belgian,1,15,ITC,win,10,left,4,ITC_choice,1512,f,0,0,425,175086,800527
40,24,male,Belgian,1,15,ITC,win,10,left,4,ITC_wait,0,undefined,0,0,425,165077,810536
40,24,male,Belgian,1,15,ITC,win,10,left,4,ITC_collect,372,k,0,0,425,164703,810910
40,24,male,Belgian,1,15,ITC,win,10,left,4,ITC_outcome,0,undefined,0,0,445,163700,811913
40,24,male,Belgian,1,16,guess,win,5,right,12,guess_start,604,space,0,0,445,163095,812518
40,24,male,Belgian,1,16,guess,win,5,right,12,guess_choice,934,j,0,0,445,162158,813455
40,24,male,Belgian,1,16,guess,win,5,right,12,guess_outcome,0,undefined,0,0,465,160596,815017
40,24,male,Belgian,1,16,ITC,win,5,right,12,ITC_start,718,space,0,0,465,159879,815734
40,24,male,Belgian,1,16,ITC,win,5,right,12,ITC_choice,2439,j,0,0,465,157439,818174
40,24,male,Belgian,1,16,ITC,win,5,right,12,ITC_wait,0,undefined,0,0,465,152427,823186
40,24,male,Belgian,1,16,ITC,win,5,right,12,ITC_collect,764,k,0,0,465,151663,823950
40,24,male,Belgian,1,16,ITC,win,5,right,12,ITC_outcome,0,undefined,0,0,485,150647,824966
40,24,male,Belgian,1,17,guess,neutral,5,left,15,guess_start,598,space,0,0,485,150047,825566
40,24,male,Belgian,1,17,guess,neutral,5,left,15,guess_choice,2813,j,0,0,485,147230,828383
40,24,male,Belgian,1,17,guess,neutral,5,left,15,guess_outcome,0,undefined,0,0,485,145676,829937
40,24,male,Belgian,1,17,ITC,neutral,5,left,15,ITC_start,572,space,0,0,485,145103,830510
40,24,male,Belgian,1,17,ITC,neutral,5,left,15,ITC_choice,1880,f,0,0,485,143222,832391
40,24,male,Belgian,1,17,ITC,neutral,5,left,15,ITC_wait,0,undefined,0,0,485,138206,837407
40,24,male,Belgian,1,17,ITC,neutral,5,left,15,ITC_collect,639,k,0,0,485,137566,838047
40,24,male,Belgian,1,17,ITC,neutral,5,left,15,ITC_outcome,0,undefined,0,0,505,136547,839066
40,24,male,Belgian,1,18,guess,neutral,10,left,4,guess_start,482,space,0,0,505,136063,839550
40,24,male,Belgian,1,18,guess,neutral,10,left,4,guess_choice,1295,f,0,0,505,134765,840848
40,24,male,Belgian,1,18,guess,neutral,10,left,4,guess_outcome,0,undefined,0,0,505,133207,842406
40,24,male,Belgian,1,18,ITC,neutral,10,left,4,ITC_start,736,space,0,0,505,132469,843144
40,24,male,Belgian,1,18,ITC,neutral,10,left,4,ITC_choice,1533,f,0,0,505,130934,844679
40,24,male,Belgian,1,18,ITC,neutral,10,left,4,ITC_wait,0,undefined,0,0,505,120926,854687
40,24,male,Belgian,1,18,ITC,neutral,10,left,4,ITC_collect,1088,k,0,0,505,119837,855776
40,24,male,Belgian,1,18,ITC,neutral,10,left,4,ITC_outcome,0,undefined,0,0,525,118832,856781
40,24,male,Belgian,1,19,guess,loss,5,right,1,guess_start,527,space,0,0,525,118302,857311
40,24,male,Belgian,1,19,guess,loss,5,right,1,guess_choice,1766,f,0,0,525,116534,859079
40,24,male,Belgian,1,19,guess,loss,5,right,1,guess_outcome,0,undefined,0,0,510,114967,860646
40,24,male,Belgian,1,19,ITC,loss,5,right,1,ITC_start,766,space,0,0,510,114199,861414
40,24,male,Belgian,1,19,ITC,loss,5,right,1,ITC_choice,2720,j,0,0,510,111477,864136
40,24,male,Belgian,1,19,ITC,loss,5,right,1,ITC_wait,0,undefined,0,0,510,106466,869147
40,24,male,Belgian,1,19,ITC,loss,5,right,1,ITC_collect,4708,k,0,0,510,101757,873856
40,24,male,Belgian,1,19,ITC,loss,5,right,1,ITC_outcome,0,undefined,0,0,530,100736,874877
40,24,male,Belgian,1,20,guess,loss,10,left,7,guess_start,577,space,0,0,530,100157,875456
40,24,male,Belgian,1,20,guess,loss,10,left,7,guess_choice,1166,f,0,0,530,98989,876624
40,24,male,Belgian,1,20,guess,loss,10,left,7,guess_outcome,0,undefined,0,0,515,97437,878176
40,24,male,Belgian,1,20,ITC,loss,10,left,7,ITC_start,2173,space,0,0,515,95262,880351
40,24,male,Belgian,1,20,ITC,loss,10,left,7,ITC_choice,5479,f,0,0,515,89782,885831
40,24,male,Belgian,1,20,ITC,loss,10,left,7,ITC_wait,0,undefined,0,0,515,79776,895837
40,24,male,Belgian,1,20,ITC,loss,10,left,7,ITC_collect,1041,k,0,0,515,78734,896879
40,24,male,Belgian,1,20,ITC,loss,10,left,7,ITC_outcome,0,undefined,0,0,535,77717,897896
40,24,male,Belgian,1,21,guess,win,5,right,3,guess_start,532,space,0,0,535,77182,898431
40,24,male,Belgian,1,21,guess,win,5,right,3,guess_choice,791,j,0,0,535,76389,899224
40,24,male,Belgian,1,21,guess,win,5,right,3,guess_outcome,0,undefined,0,0,555,74837,900776
40,24,male,Belgian,1,21,ITC,win,5,right,3,ITC_start,790,space,0,0,555,74046,901567
40,24,male,Belgian,1,21,ITC,win,5,right,3,ITC_choice,1822,f,0,0,555,72223,903390
40,24,male,Belgian,1,21,ITC,win,5,right,3,ITC_wait,0,undefined,0,0,555,72220,903393
40,24,male,Belgian,1,21,ITC,win,5,right,3,ITC_collect,989,k,0,0,555,71230,904383
40,24,male,Belgian,1,21,ITC,win,5,right,3,ITC_outcome,0,undefined,0,0,558,70217,905396
40,24,male,Belgian,1,22,guess,loss,5,left,6,guess_start,448,space,0,0,558,69766,905847
40,24,male,Belgian,1,22,guess,loss,5,left,6,guess_choice,621,j,0,0,558,69142,906471
40,24,male,Belgian,1,22,guess,loss,5,left,6,guess_outcome,0,undefined,0,0,543,67576,908037
40,24,male,Belgian,1,22,ITC,loss,5,left,6,ITC_start,377,space,0,0,543,67198,908415
40,24,male,Belgian,1,22,ITC,loss,5,left,6,ITC_choice,1342,j,0,0,543,65853,909760
40,24,male,Belgian,1,22,ITC,loss,5,left,6,ITC_wait,0,undefined,0,0,543,65852,909761
40,24,male,Belgian,1,22,ITC,loss,5,left,6,ITC_collect,1068,k,0,0,543,64782,910831
40,24,male,Belgian,1,22,ITC,loss,5,left,6,ITC_outcome,0,undefined,0,0,549,63776,911837
40,24,male,Belgian,1,23,guess,loss,10,right,6,guess_start,602,space,0,0,549,63173,912440
40,24,male,Belgian,1,23,guess,loss,10,right,6,guess_choice,958,j,0,0,549,62213,913400
40,24,male,Belgian,1,23,guess,loss,10,right,6,guess_outcome,0,undefined,0,0,534,60656,914957
40,24,male,Belgian,1,23,ITC,loss,10,right,6,ITC_start,1977,space,0,0,534,58677,916936
40,24,male,Belgian,1,23,ITC,loss,10,right,6,ITC_choice,1102,f,0,0,534,57574,918039
40,24,male,Belgian,1,23,ITC,loss,10,right,6,ITC_wait,0,undefined,0,0,534,57572,918041
40,24,male,Belgian,1,23,ITC,loss,10,right,6,ITC_collect,909,k,0,0,534,56662,918951
40,24,male,Belgian,1,23,ITC,loss,10,right,6,ITC_outcome,0,undefined,0,0,540,55656,919957
40,24,male,Belgian,1,24,guess,neutral,5,right,7,guess_start,569,space,0,0,540,55086,920527
40,24,male,Belgian,1,24,guess,neutral,5,right,7,guess_choice,958,j,0,0,540,54125,921488
40,24,male,Belgian,1,24,guess,neutral,5,right,7,guess_outcome,0,undefined,0,0,540,52555,923058
40,24,male,Belgian,1,24,ITC,neutral,5,right,7,ITC_start,533,space,0,0,540,52022,923591
40,24,male,Belgian,1,24,ITC,neutral,5,right,7,ITC_choice,1151,f,0,0,540,50869,924744
40,24,male,Belgian,1,24,ITC,neutral,5,right,7,ITC_wait,0,undefined,0,0,540,50867,924746
40,24,male,Belgian,1,24,ITC,neutral,5,right,7,ITC_collect,1124,k,0,0,540,49742,925871
40,24,male,Belgian,1,24,ITC,neutral,5,right,7,ITC_outcome,0,undefined,0,0,547,48736,926877
40,24,male,Belgian,1,25,guess,win,5,right,8,guess_start,568,space,0,0,547,48166,927447
40,24,male,Belgian,1,25,guess,win,5,right,8,guess_choice,854,j,0,0,547,47309,928304
40,24,male,Belgian,1,25,guess,win,5,right,8,guess_outcome,0,undefined,0,0,567,45756,929857
40,24,male,Belgian,1,25,ITC,win,5,right,8,ITC_start,597,space,0,0,567,45158,930455
40,24,male,Belgian,1,25,ITC,win,5,right,8,ITC_choice,1231,f,0,0,567,43925,931688
40,24,male,Belgian,1,25,ITC,win,5,right,8,ITC_wait,0,undefined,0,0,567,43923,931690
40,24,male,Belgian,1,25,ITC,win,5,right,8,ITC_collect,1285,k,0,0,567,42638,932975
40,24,male,Belgian,1,25,ITC,win,5,right,8,ITC_outcome,0,undefined,0,0,575,41617,933996
40,24,male,Belgian,1,26,guess,neutral,5,right,10,guess_start,506,space,0,0,575,41110,934503
40,24,male,Belgian,1,26,guess,neutral,5,right,10,guess_choice,958,f,0,0,575,40149,935464
40,24,male,Belgian,1,26,guess,neutral,5,right,10,guess_outcome,0,undefined,0,0,575,38597,937016
40,24,male,Belgian,1,26,ITC,neutral,5,right,10,ITC_start,3301,space,0,0,575,35294,940319
40,24,male,Belgian,1,26,ITC,neutral,5,right,10,ITC_wait,0,undefined,0,0,575,34115,941498
40,24,male,Belgian,1,26,ITC,neutral,5,right,10,ITC_choice,1176,f,0,0,575,34117,941496
40,24,male,Belgian,1,26,ITC,neutral,5,right,10,ITC_collect,1180,k,0,0,575,32934,942679
40,24,male,Belgian,1,26,ITC,neutral,5,right,10,ITC_outcome,0,undefined,0,0,585,31916,943697
40,24,male,Belgian,1,27,guess,win,10,right,2,guess_start,565,space,0,0,585,31349,944264
40,24,male,Belgian,1,27,guess,win,10,right,2,guess_choice,933,j,0,0,585,30414,945199
40,24,male,Belgian,1,27,guess,win,10,right,2,guess_outcome,0,undefined,0,0,605,28845,946768
40,24,male,Belgian,1,27,ITC,win,10,right,2,ITC_start,607,space,0,0,605,28237,947376
40,24,male,Belgian,1,27,ITC,win,10,right,2,ITC_choice,1102,f,0,0,605,27133,948480
40,24,male,Belgian,1,27,ITC,win,10,right,2,ITC_wait,0,undefined,0,0,605,27132,948481
40,24,male,Belgian,1,27,ITC,win,10,right,2,ITC_collect,973,k,0,0,605,26157,949456
40,24,male,Belgian,1,27,ITC,win,10,right,2,ITC_outcome,0,undefined,0,0,607,25146,950467
40,24,male,Belgian,1,28,guess,win,5,right,13,guess_start,418,space,0,0,607,24726,950887
40,24,male,Belgian,1,28,guess,win,5,right,13,guess_choice,815,j,0,0,607,23910,951703
40,24,male,Belgian,1,28,guess,win,5,right,13,guess_outcome,0,undefined,0,0,627,22346,953267
40,24,male,Belgian,1,28,ITC,win,5,right,13,ITC_start,571,space,0,0,627,21773,953840
40,24,male,Belgian,1,28,ITC,win,5,right,13,ITC_wait,0,undefined,0,0,627,20796,954817
40,24,male,Belgian,1,28,ITC,win,5,right,13,ITC_choice,976,f,0,0,627,20798,954815
40,24,male,Belgian,1,28,ITC,win,5,right,13,ITC_collect,1006,k,0,0,627,19789,955824
40,24,male,Belgian,1,28,ITC,win,5,right,13,ITC_outcome,0,undefined,0,0,640,18786,956827
40,24,male,Belgian,1,29,guess,win,5,right,16,guess_start,441,space,0,0,640,18342,957271
40,24,male,Belgian,1,29,guess,win,5,right,16,guess_choice,678,f,0,0,640,17662,957951
40,24,male,Belgian,1,29,guess,win,5,right,16,guess_outcome,0,undefined,0,0,660,16106,959507
40,24,male,Belgian,1,29,ITC,win,5,right,16,ITC_start,539,space,0,0,660,15566,960047
40,24,male,Belgian,1,29,ITC,win,5,right,16,ITC_choice,1070,f,0,0,660,14493,961120
40,24,male,Belgian,1,29,ITC,win,5,right,16,ITC_wait,0,undefined,0,0,660,14492,961121
40,24,male,Belgian,1,29,ITC,win,5,right,16,ITC_collect,998,k,0,0,660,13494,962119
40,24,male,Belgian,1,29,ITC,win,5,right,16,ITC_outcome,0,undefined,0,0,676,12485,963128
40,24,male,Belgian,1,30,guess,loss,5,left,10,guess_start,469,space,0,0,676,12014,963599
40,24,male,Belgian,1,30,guess,loss,5,left,10,guess_choice,823,f,0,0,676,11190,964423
40,24,male,Belgian,1,30,guess,loss,5,left,10,guess_outcome,0,undefined,0,0,661,9625,965988
40,24,male,Belgian,1,30,ITC,loss,5,left,10,ITC_start,290,space,0,0,661,9333,966280
40,24,male,Belgian,1,30,ITC,loss,5,left,10,ITC_wait,0,undefined,0,0,661,8563,967050
40,24,male,Belgian,1,30,ITC,loss,5,left,10,ITC_choice,767,j,0,0,661,8565,967048
40,24,male,Belgian,1,30,ITC,loss,5,left,10,ITC_collect,660,k,0,0,661,7902,967711
40,24,male,Belgian,1,30,ITC,loss,5,left,10,ITC_outcome,0,undefined,0,0,671,6886,968727
40,24,male,Belgian,1,31,guess,loss,10,right,5,guess_start,311,space,0,0,671,6574,969039
40,24,male,Belgian,1,31,guess,loss,10,right,5,guess_choice,772,j,0,0,671,5798,969815
40,24,male,Belgian,1,31,guess,loss,10,right,5,guess_outcome,0,undefined,0,0,656,4226,971387
40,24,male,Belgian,1,31,ITC,loss,10,right,5,ITC_start,242,space,0,0,656,3982,971631
40,24,male,Belgian,1,31,ITC,loss,10,right,5,ITC_choice,799,f,0,0,656,3182,972431
40,24,male,Belgian,1,31,ITC,loss,10,right,5,ITC_wait,0,undefined,0,0,656,3180,972433
40,24,male,Belgian,1,31,ITC,loss,10,right,5,ITC_collect,782,k,0,0,656,2398,973215
40,24,male,Belgian,1,31,ITC,loss,10,right,5,ITC_outcome,0,undefined,0,0,661,1386,974227
40,24,male,Belgian,1,32,guess,loss,5,right,15,guess_start,403,space,0,0,661,982,974631
40,24,male,Belgian,1,32,guess,loss,5,right,15,guess_choice,797,j,0,0,661,182,975431
40,24,male,Belgian,1,32,guess,loss,5,right,15,guess_outcome,0,undefined,0,0,661,-14,975627
40,24,male,Belgian,2,33,guess,loss,5,left,16,guess_start,1675,space,0,0,0,478325,986343
40,24,male,Belgian,2,33,guess,loss,5,left,16,guess_choice,1117,j,0,0,0,477204,987464
40,24,male,Belgian,2,33,guess,loss,5,left,16,guess_outcome,0,undefined,0,0,-15,475641,989027
40,24,male,Belgian,2,33,ITC,loss,5,left,16,ITC_start,506,space,0,0,-15,475132,989536
40,24,male,Belgian,2,33,ITC,loss,5,left,16,ITC_choice,727,j,0,0,-15,474404,990264
40,24,male,Belgian,2,33,ITC,loss,5,left,16,ITC_wait,0,undefined,0,0,-15,474402,990266
40,24,male,Belgian,2,33,ITC,loss,5,left,16,ITC_collect,869,k,0,0,-15,473532,991136
40,24,male,Belgian,2,33,ITC,loss,5,left,16,ITC_outcome,0,undefined,0,0,1,472520,992148
40,24,male,Belgian,2,34,guess,loss,5,right,2,guess_start,436,space,0,0,1,472084,992584
40,24,male,Belgian,2,34,guess,loss,5,right,2,guess_choice,917,f,0,0,1,471164,993504
40,24,male,Belgian,2,34,guess,loss,5,right,2,guess_outcome,0,undefined,0,0,-14,469600,995068
40,24,male,Belgian,2,34,ITC,loss,5,right,2,ITC_start,314,space,0,0,-14,469284,995384
40,24,male,Belgian,2,34,ITC,loss,5,right,2,ITC_wait,0,undefined,0,0,-14,468370,996298
40,24,male,Belgian,2,34,ITC,loss,5,right,2,ITC_choice,911,f,0,0,-14,468372,996296
40,24,male,Belgian,2,34,ITC,loss,5,right,2,ITC_collect,764,k,0,0,-14,467604,997064
40,24,male,Belgian,2,34,ITC,loss,5,right,2,ITC_outcome,0,undefined,0,0,-12,466601,998067
40,24,male,Belgian,2,35,guess,loss,5,right,12,guess_start,298,space,0,0,-12,466300,998368
40,24,male,Belgian,2,35,guess,loss,5,right,12,guess_choice,620,j,0,0,-12,465677,998991
40,24,male,Belgian,2,35,guess,loss,5,right,12,guess_outcome,0,undefined,0,0,-27,464121,1000547
40,24,male,Belgian,2,35,ITC,loss,5,right,12,ITC_start,460,space,0,0,-27,463660,1001008
40,24,male,Belgian,2,35,ITC,loss,5,right,12,ITC_choice,806,f,0,0,-27,462852,1001816
40,24,male,Belgian,2,35,ITC,loss,5,right,12,ITC_wait,0,undefined,0,0,-27,462850,1001818
40,24,male,Belgian,2,35,ITC,loss,5,right,12,ITC_collect,741,k,0,0,-27,462109,1002559
40,24,male,Belgian,2,35,ITC,loss,5,right,12,ITC_outcome,0,undefined,0,0,-15,461100,1003568
40,24,male,Belgian,2,36,guess,neutral,5,right,8,guess_start,495,space,0,0,-15,460604,1004064
40,24,male,Belgian,2,36,guess,neutral,5,right,8,guess_choice,830,f,0,0,-15,459772,1004896
40,24,male,Belgian,2,36,guess,neutral,5,right,8,guess_outcome,0,undefined,0,0,-15,458201,1006467
40,24,male,Belgian,2,36,ITC,neutral,5,right,8,ITC_start,410,space,0,0,-15,457788,1006880
40,24,male,Belgian,2,36,ITC,neutral,5,right,8,ITC_wait,0,undefined,0,0,-15,456929,1007739
40,24,male,Belgian,2,36,ITC,neutral,5,right,8,ITC_choice,856,f,0,0,-15,456931,1007737
40,24,male,Belgian,2,36,ITC,neutral,5,right,8,ITC_collect,596,k,0,0,-15,456332,1008336
40,24,male,Belgian,2,36,ITC,neutral,5,right,8,ITC_outcome,0,undefined,0,0,-7,455320,1009348
40,24,male,Belgian,2,37,guess,win,5,left,4,guess_start,291,space,0,0,-7,455029,1009639
40,24,male,Belgian,2,37,guess,win,5,left,4,guess_choice,1086,j,0,0,-7,453939,1010729
40,24,male,Belgian,2,37,guess,win,5,left,4,guess_outcome,0,undefined,0,0,13,452380,1012288
40,24,male,Belgian,2,37,ITC,win,5,left,4,ITC_start,525,space,0,0,13,451853,1012815
40,24,male,Belgian,2,37,ITC,win,5,left,4,ITC_choice,1216,j,0,0,13,450637,1014031
40,24,male,Belgian,2,37,ITC,win,5,left,4,ITC_wait,0,undefined,0,0,13,450635,1014033
40,24,male,Belgian,2,37,ITC,win,5,left,4,ITC_collect,1389,k,0,0,13,449244,1015424
40,24,male,Belgian,2,37,ITC,win,5,left,4,ITC_outcome,0,undefined,0,0,17,448240,1016428
40,24,male,Belgian,2,38,guess,neutral,10,left,6,guess_start,339,space,0,0,17,447900,1016768
40,24,male,Belgian,2,38,guess,neutral,10,left,6,guess_choice,703,j,0,0,17,447194,1017474
40,24,male,Belgian,2,38,guess,neutral,10,left,6,guess_outcome,0,undefined,0,0,17,445640,1019028
40,24,male,Belgian,2,38,ITC,neutral,10,left,6,ITC_start,482,space,0,0,17,445156,1019512
40,24,male,Belgian,2,38,ITC,neutral,10,left,6,ITC_choice,703,j,0,0,17,444452,1020216
40,24,male,Belgian,2,38,ITC,neutral,10,left,6,ITC_wait,0,undefined,0,0,17,444449,1020219
40,24,male,Belgian,2,38,ITC,neutral,10,left,6,ITC_collect,748,k,0,0,17,443700,1020968
40,24,male,Belgian,2,38,ITC,neutral,10,left,6,ITC_outcome,0,undefined,0,0,23,442680,1021988
40,24,male,Belgian,2,39,guess,loss,5,left,14,guess_start,283,space,0,0,23,442396,1022272
40,24,male,Belgian,2,39,guess,loss,5,left,14,guess_choice,646,f,0,0,23,441749,1022919
40,24,male,Belgian,2,39,guess,loss,5,left,14,guess_outcome,0,undefined,0,0,8,440180,1024488
40,24,male,Belgian,2,39,ITC,loss,5,left,14,ITC_start,247,space,0,0,8,439933,1024735
40,24,male,Belgian,2,39,ITC,loss,5,left,14,ITC_wait,0,undefined,0,0,8,439322,1025346
40,24,male,Belgian,2,39,ITC,loss,5,left,14,ITC_choice,607,j,0,0,8,439324,1025344
40,24,male,Belgian,2,39,ITC,loss,5,left,14,ITC_collect,971,k,0,0,8,438349,1026319
40,24,male,Belgian,2,39,ITC,loss,5,left,14,ITC_outcome,0,undefined,0,0,22,437340,1027328
40,24,male,Belgian,2,40,guess,loss,5,left,5,guess_start,638,space,0,0,22,436700,1027968
40,24,male,Belgian,2,40,guess,loss,5,left,5,guess_choice,654,j,0,0,22,436044,1028624
40,24,male,Belgian,2,40,guess,loss,5,left,5,guess_outcome,0,undefined,0,0,7,434480,1030188
40,24,male,Belgian,2,40,ITC,loss,5,left,5,ITC_start,459,space,0,0,7,434021,1030647
40,24,male,Belgian,2,40,ITC,loss,5,left,5,ITC_choice,679,j,0,0,7,433340,1031328
40,24,male,Belgian,2,40,ITC,loss,5,left,5,ITC_wait,0,undefined,0,0,7,433338,1031330
40,24,male,Belgian,2,40,ITC,loss,5,left,5,ITC_collect,580,k,0,0,7,432757,1031911
40,24,male,Belgian,2,40,ITC,loss,5,left,5,ITC_outcome,0,undefined,0,0,12,431741,1032927
40,24,male,Belgian,2,41,guess,neutral,5,left,1,guess_start,382,space,0,0,12,431356,1033312
40,24,male,Belgian,2,41,guess,neutral,5,left,1,guess_choice,782,f,0,0,12,430572,1034096
40,24,male,Belgian,2,41,guess,neutral,5,left,1,guess_outcome,0,undefined,0,0,12,429000,1035668
40,24,male,Belgian,2,41,ITC,neutral,5,left,1,ITC_start,395,space,0,0,12,428604,1036064
40,24,male,Belgian,2,41,ITC,neutral,5,left,1,ITC_choice,623,j,0,0,12,427980,1036688
40,24,male,Belgian,2,41,ITC,neutral,5,left,1,ITC_wait,0,undefined,0,0,12,427978,1036690
40,24,male,Belgian,2,41,ITC,neutral,5,left,1,ITC_collect,819,k,0,0,12,427157,1037511
40,24,male,Belgian,2,41,ITC,neutral,5,left,1,ITC_outcome,0,undefined,0,0,13,426141,1038527
40,24,male,Belgian,2,42,guess,neutral,10,right,3,guess_start,439,space,0,0,13,425700,1038968
40,24,male,Belgian,2,42,guess,neutral,10,right,3,guess_choice,749,f,0,0,13,424948,1039720
40,24,male,Belgian,2,42,guess,neutral,10,right,3,guess_outcome,0,undefined,0,0,13,423379,1041289
40,24,male,Belgian,2,42,ITC,neutral,10,right,3,ITC_start,511,space,0,0,13,422868,1041800
40,24,male,Belgian,2,42,ITC,neutral,10,right,3,ITC_wait,0,undefined,0,0,13,422089,1042579
40,24,male,Belgian,2,42,ITC,neutral,10,right,3,ITC_choice,775,f,0,0,13,422092,1042576
40,24,male,Belgian,2,42,ITC,neutral,10,right,3,ITC_collect,830,k,0,0,13,421260,1043408
40,24,male,Belgian,2,42,ITC,neutral,10,right,3,ITC_outcome,0,undefined,0,0,16,420240,1044428
40,24,male,Belgian,2,43,guess,neutral,5,right,13,guess_start,322,space,0,0,16,419917,1044751
40,24,male,Belgian,2,43,guess,neutral,5,right,13,guess_choice,879,f,0,0,16,419035,1045633
40,24,male,Belgian,2,43,guess,neutral,5,right,13,guess_outcome,0,undefined,0,0,16,417480,1047188
40,24,male,Belgian,2,43,ITC,neutral,5,right,13,ITC_start,531,space,0,0,16,416948,1047720
40,24,male,Belgian,2,43,ITC,neutral,5,right,13,ITC_choice,814,f,0,0,16,416133,1048535
40,24,male,Belgian,2,43,ITC,neutral,5,right,13,ITC_wait,0,undefined,0,0,16,416131,1048537
40,24,male,Belgian,2,43,ITC,neutral,5,right,13,ITC_collect,909,k,0,0,16,415220,1049448
40,24,male,Belgian,2,43,ITC,neutral,5,right,13,ITC_outcome,0,undefined,0,0,29,414200,1050468
40,24,male,Belgian,2,44,guess,loss,10,right,1,guess_start,116,space,0,0,29,414084,1050584
40,24,male,Belgian,2,44,guess,loss,10,right,1,guess_choice,598,f,0,0,29,413483,1051185
40,24,male,Belgian,2,44,guess,loss,10,right,1,guess_outcome,0,undefined,0,0,14,411921,1052747
40,24,male,Belgian,2,44,ITC,loss,10,right,1,ITC_start,451,space,0,0,14,411469,1053199
40,24,male,Belgian,2,44,ITC,loss,10,right,1,ITC_wait,0,undefined,0,0,14,410761,1053907
40,24,male,Belgian,2,44,ITC,loss,10,right,1,ITC_choice,703,f,0,0,14,410763,1053905
40,24,male,Belgian,2,44,ITC,loss,10,right,1,ITC_collect,868,k,0,0,14,409892,1054776
40,24,male,Belgian,2,44,ITC,loss,10,right,1,ITC_outcome,0,undefined,0,0,15,408880,1055788
40,24,male,Belgian,2,45,guess,win,10,left,8,guess_start,682,space,0,0,15,408197,1056471
40,24,male,Belgian,2,45,guess,win,10,left,8,guess_choice,1214,j,0,0,15,406979,1057689
40,24,male,Belgian,2,45,guess,win,10,left,8,guess_outcome,0,undefined,0,0,35,405421,1059247
40,24,male,Belgian,2,45,ITC,win,10,left,8,ITC_start,343,space,0,0,35,405076,1059592
40,24,male,Belgian,2,45,ITC,win,10,left,8,ITC_choice,664,j,0,0,35,404412,1060256
40,24,male,Belgian,2,45,ITC,win,10,left,8,ITC_wait,0,undefined,0,0,35,404410,1060258
40,24,male,Belgian,2,45,ITC,win,10,left,8,ITC_collect,756,k,0,0,35,403653,1061015
40,24,male,Belgian,2,45,ITC,win,10,left,8,ITC_outcome,0,undefined,0,0,43,402640,1062028
40,24,male,Belgian,2,46,guess,loss,5,right,11,guess_start,498,space,0,0,43,402139,1062529
40,24,male,Belgian,2,46,guess,loss,5,right,11,guess_choice,661,f,0,0,43,401476,1063192
40,24,male,Belgian,2,46,guess,loss,5,right,11,guess_outcome,0,undefined,0,0,28,399909,1064759
40,24,male,Belgian,2,46,ITC,loss,5,right,11,ITC_start,320,space,0,0,28,399589,1065079
40,24,male,Belgian,2,46,ITC,loss,5,right,11,ITC_wait,0,undefined,0,0,28,398728,1065940
40,24,male,Belgian,2,46,ITC,loss,5,right,11,ITC_choice,855,f,0,0,28,398731,1065937
40,24,male,Belgian,2,46,ITC,loss,5,right,11,ITC_collect,685,k,0,0,28,398043,1066625
40,24,male,Belgian,2,46,ITC,loss,5,right,11,ITC_outcome,0,undefined,0,0,39,397040,1067628
40,24,male,Belgian,2,47,guess,loss,5,left,4,guess_start,282,space,0,0,39,396756,1067912
40,24,male,Belgian,2,47,guess,loss,5,left,4,guess_choice,582,j,0,0,39,396171,1068497
40,24,male,Belgian,2,47,guess,loss,5,left,4,guess_outcome,0,undefined,0,0,24,394599,1070069
40,24,male,Belgian,2,47,ITC,loss,5,left,4,ITC_start,282,space,0,0,24,394316,1070352
40,24,male,Belgian,2,47,ITC,loss,5,left,4,ITC_choice,767,j,0,0,24,393548,1071120
40,24,male,Belgian,2,47,ITC,loss,5,left,4,ITC_wait,0,undefined,0,0,24,393546,1071122
40,24,male,Belgian,2,47,ITC,loss,5,left,4,ITC_collect,597,k,0,0,24,392947,1071721
40,24,male,Belgian,2,47,ITC,loss,5,left,4,ITC_outcome,0,undefined,0,0,28,391940,1072728
40,24,male,Belgian,2,48,guess,loss,10,right,2,guess_start,542,space,0,0,28,391396,1073272
40,24,male,Belgian,2,48,guess,loss,10,right,2,guess_choice,717,f,0,0,28,390677,1073991
40,24,male,Belgian,2,48,guess,loss,10,right,2,guess_outcome,0,undefined,0,0,13,389121,1075547
40,24,male,Belgian,2,48,ITC,loss,10,right,2,ITC_start,299,space,0,0,13,388821,1075847
40,24,male,Belgian,2,48,ITC,loss,10,right,2,ITC_choice,840,f,0,0,13,387979,1076689
40,24,male,Belgian,2,48,ITC,loss,10,right,2,ITC_wait,0,undefined,0,0,13,387977,1076691
40,24,male,Belgian,2,48,ITC,loss,10,right,2,ITC_collect,628,k,0,0,13,387348,1077320
40,24,male,Belgian,2,48,ITC,loss,10,right,2,ITC_outcome,0,undefined,0,0,15,386340,1078328
40,24,male,Belgian,2,49,guess,neutral,5,right,11,guess_start,295,space,0,0,15,386043,1078625
40,24,male,Belgian,2,49,guess,neutral,5,right,11,guess_choice,1171,f,0,0,15,384868,1079800
40,24,male,Belgian,2,49,guess,neutral,5,right,11,guess_outcome,0,undefined,0,0,15,383300,1081368
40,24,male,Belgian,2,49,ITC,neutral,5,right,11,ITC_start,423,space,0,0,15,382876,1081792
40,24,male,Belgian,2,49,ITC,neutral,5,right,11,ITC_choice,896,f,0,0,15,381978,1082690
40,24,male,Belgian,2,49,ITC,neutral,5,right,11,ITC_wait,0,undefined,0,0,15,381960,1082708
40,24,male,Belgian,2,49,ITC,neutral,5,right,11,ITC_collect,564,k,0,0,15,381395,1083273
40,24,male,Belgian,2,49,ITC,neutral,5,right,11,ITC_outcome,0,undefined,0,0,26,380389,1084279
40,24,male,Belgian,2,50,guess,loss,10,right,8,guess_start,353,space,0,0,26,380035,1084633
40,24,male,Belgian,2,50,guess,loss,10,right,8,guess_choice,621,j,0,0,26,379412,1085256
40,24,male,Belgian,2,50,guess,loss,10,right,8,guess_outcome,0,undefined,0,0,11,377850,1086818
40,24,male,Belgian,2,50,ITC,loss,10,right,8,ITC_start,236,space,0,0,11,377612,1087056
40,24,male,Belgian,2,50,ITC,loss,10,right,8,ITC_choice,894,f,0,0,11,376716,1087952
40,24,male,Belgian,2,50,ITC,loss,10,right,8,ITC_wait,0,undefined,0,0,11,376714,1087954
40,24,male,Belgian,2,50,ITC,loss,10,right,8,ITC_collect,686,k,0,0,11,376028,1088640
40,24,male,Belgian,2,50,ITC,loss,10,right,8,ITC_outcome,0,undefined,0,0,19,375010,1089658
40,24,male,Belgian,2,51,guess,loss,5,right,8,guess_start,430,space,0,0,19,374579,1090089
40,24,male,Belgian,2,51,guess,loss,5,right,8,guess_choice,1156,j,0,0,19,373420,1091248
40,24,male,Belgian,2,51,guess,loss,5,right,8,guess_outcome,0,undefined,0,0,4,371850,1092818
40,24,male,Belgian,2,51,ITC,loss,5,right,8,ITC_start,429,space,0,0,4,371419,1093249
40,24,male,Belgian,2,51,ITC,loss,5,right,8,ITC_choice,1542,j,0,0,4,369876,1094792
40,24,male,Belgian,2,51,ITC,loss,5,right,8,ITC_wait,0,undefined,0,0,4,364870,1099798
40,24,male,Belgian,2,51,ITC,loss,5,right,8,ITC_collect,912,k,0,0,4,363956,1100712
40,24,male,Belgian,2,51,ITC,loss,5,right,8,ITC_outcome,0,undefined,0,0,24,362950,1101718
40,24,male,Belgian,2,52,guess,neutral,5,right,3,guess_start,826,space,0,0,24,362123,1102545
40,24,male,Belgian,2,52,guess,neutral,5,right,3,guess_choice,1158,f,0,0,24,360963,1103705
40,24,male,Belgian,2,52,guess,neutral,5,right,3,guess_outcome,0,undefined,0,0,24,359410,1105258
40,24,male,Belgian,2,52,ITC,neutral,5,right,3,ITC_start,670,space,0,0,24,358739,1105929
40,24,male,Belgian,2,52,ITC,neutral,5,right,3,ITC_choice,1006,j,0,0,24,357731,1106937
40,24,male,Belgian,2,52,ITC,neutral,5,right,3,ITC_wait,0,undefined,0,0,24,352710,1111958
40,24,male,Belgian,2,52,ITC,neutral,5,right,3,ITC_collect,491,k,0,0,24,352219,1112449
40,24,male,Belgian,2,52,ITC,neutral,5,right,3,ITC_outcome,0,undefined,0,0,44,351210,1113458
40,24,male,Belgian,2,53,guess,loss,5,right,13,guess_start,573,space,0,0,44,350635,1114033
40,24,male,Belgian,2,53,guess,loss,5,right,13,guess_choice,550,j,0,0,44,350082,1114586
40,24,male,Belgian,2,53,guess,loss,5,right,13,guess_outcome,0,undefined,0,0,29,348529,1116139
40,24,male,Belgian,2,53,ITC,loss,5,right,13,ITC_start,253,space,0,0,29,348275,1116393
40,24,male,Belgian,2,53,ITC,loss,5,right,13,ITC_choice,982,f,0,0,29,347290,1117378
40,24,male,Belgian,2,53,ITC,loss,5,right,13,ITC_wait,0,undefined,0,0,29,347289,1117379
40,24,male,Belgian,2,53,ITC,loss,5,right,13,ITC_collect,771,k,0,0,29,346516,1118152
40,24,male,Belgian,2,53,ITC,loss,5,right,13,ITC_outcome,0,undefined,0,0,42,345510,1119158
40,24,male,Belgian,2,54,guess,win,5,left,2,guess_start,265,space,0,0,42,345243,1119425
40,24,male,Belgian,2,54,guess,win,5,left,2,guess_choice,604,f,0,0,42,344636,1120032
40,24,male,Belgian,2,54,guess,win,5,left,2,guess_outcome,0,undefined,0,0,62,343070,1121598
40,24,male,Belgian,2,54,ITC,win,5,left,2,ITC_start,394,space,0,0,62,342675,1121993
40,24,male,Belgian,2,54,ITC,win,5,left,2,ITC_choice,749,j,0,0,62,341923,1122745
40,24,male,Belgian,2,54,ITC,win,5,left,2,ITC_wait,0,undefined,0,0,62,341922,1122746
40,24,male,Belgian,2,54,ITC,win,5,left,2,ITC_collect,677,k,0,0,62,341243,1123425
40,24,male,Belgian,2,54,ITC,win,5,left,2,ITC_outcome,0,undefined,0,0,64,340230,1124438
40,24,male,Belgian,2,55,guess,neutral,5,left,6,guess_start,225,space,0,0,64,340003,1124665
40,24,male,Belgian,2,55,guess,neutral,5,left,6,guess_choice,797,j,0,0,64,339204,1125464
40,24,male,Belgian,2,55,guess,neutral,5,left,6,guess_outcome,0,undefined,0,0,64,337645,1127023
40,24,male,Belgian,2,55,ITC,neutral,5,left,6,ITC_start,441,space,0,0,64,337204,1127464
40,24,male,Belgian,2,55,ITC,neutral,5,left,6,ITC_choice,792,j,0,0,64,336411,1128257
40,24,male,Belgian,2,55,ITC,neutral,5,left,6,ITC_wait,0,undefined,0,0,64,336409,1128259
40,24,male,Belgian,2,55,ITC,neutral,5,left,6,ITC_collect,892,k,0,0,64,335516,1129152
40,24,male,Belgian,2,55,ITC,neutral,5,left,6,ITC_outcome,0,undefined,0,0,70,334503,1130165
40,24,male,Belgian,2,56,guess,neutral,5,left,2,guess_start,250,space,0,0,70,334252,1130416
40,24,male,Belgian,2,56,guess,neutral,5,left,2,guess_choice,812,f,0,0,70,333436,1131232
40,24,male,Belgian,2,56,guess,neutral,5,left,2,guess_outcome,0,undefined,0,0,70,331875,1132793
40,24,male,Belgian,2,56,ITC,neutral,5,left,2,ITC_start,423,space,0,0,70,331452,1133216
40,24,male,Belgian,2,56,ITC,neutral,5,left,2,ITC_choice,702,j,0,0,70,330748,1133920
40,24,male,Belgian,2,56,ITC,neutral,5,left,2,ITC_wait,0,undefined,0,0,70,330745,1133923
40,24,male,Belgian,2,56,ITC,neutral,5,left,2,ITC_collect,541,k,0,0,70,330204,1134464
40,24,male,Belgian,2,56,ITC,neutral,5,left,2,ITC_outcome,0,undefined,0,0,72,329191,1135477
40,24,male,Belgian,2,57,guess,neutral,10,right,7,guess_start,362,space,0,0,72,328827,1135841
40,24,male,Belgian,2,57,guess,neutral,10,right,7,guess_choice,885,f,0,0,72,327938,1136730
40,24,male,Belgian,2,57,guess,neutral,10,right,7,guess_outcome,0,undefined,0,0,72,326380,1138288
40,24,male,Belgian,2,57,ITC,neutral,10,right,7,ITC_start,1679,space,0,0,72,324699,1139969
40,24,male,Belgian,2,57,ITC,neutral,10,right,7,ITC_choice,951,f,0,0,72,323747,1140921
40,24,male,Belgian,2,57,ITC,neutral,10,right,7,ITC_wait,0,undefined,0,0,72,323745,1140923
40,24,male,Belgian,2,57,ITC,neutral,10,right,7,ITC_collect,702,k,0,0,72,323043,1141625
40,24,male,Belgian,2,57,ITC,neutral,10,right,7,ITC_outcome,0,undefined,0,0,79,322039,1142629
40,24,male,Belgian,2,58,guess,win,5,right,6,guess_start,1435,space,0,0,79,320604,1144064
40,24,male,Belgian,2,58,guess,win,5,right,6,guess_choice,951,f,0,0,79,319651,1145017
40,24,male,Belgian,2,58,guess,win,5,right,6,guess_outcome,0,undefined,0,0,99,318080,1146588
40,24,male,Belgian,2,58,ITC,win,5,right,6,ITC_start,532,space,0,0,99,317548,1147120
40,24,male,Belgian,2,58,ITC,win,5,right,6,ITC_choice,799,f,0,0,99,316747,1147921
40,24,male,Belgian,2,58,ITC,win,5,right,6,ITC_wait,0,undefined,0,0,99,316746,1147922
40,24,male,Belgian,2,58,ITC,win,5,right,6,ITC_collect,622,k,0,0,99,316123,1148545
40,24,male,Belgian,2,58,ITC,win,5,right,6,ITC_outcome,0,undefined,0,0,105,315119,1149549
40,24,male,Belgian,2,59,guess,loss,5,right,3,guess_start,1763,space,0,0,105,313355,1151313
40,24,male,Belgian,2,59,guess,loss,5,right,3,guess_choice,1252,j,0,0,105,312100,1152568
40,24,male,Belgian,2,59,guess,loss,5,right,3,guess_outcome,0,undefined,0,0,90,310530,1154138
40,24,male,Belgian,2,59,ITC,loss,5,right,3,ITC_start,1076,space,0,0,90,309451,1155217
40,24,male,Belgian,2,59,ITC,loss,5,right,3,ITC_choice,1302,f,0,0,90,308148,1156520
40,24,male,Belgian,2,59,ITC,loss,5,right,3,ITC_wait,0,undefined,0,0,90,308146,1156522
40,24,male,Belgian,2,59,ITC,loss,5,right,3,ITC_collect,1109,k,0,0,90,307035,1157633
40,24,male,Belgian,2,59,ITC,loss,5,right,3,ITC_outcome,0,undefined,0,0,93,306030,1158638
40,24,male,Belgian,2,60,guess,neutral,5,right,16,guess_start,3576,space,0,0,93,302450,1162218
40,24,male,Belgian,2,60,guess,neutral,5,right,16,guess_choice,998,f,0,0,93,301451,1163217
40,24,male,Belgian,2,60,guess,neutral,5,right,16,guess_outcome,0,undefined,0,0,93,299879,1164789
40,24,male,Belgian,2,60,ITC,neutral,5,right,16,ITC_start,689,space,0,0,93,299188,1165480
40,24,male,Belgian,2,60,ITC,neutral,5,right,16,ITC_wait,0,undefined,0,0,93,298305,1166363
40,24,male,Belgian,2,60,ITC,neutral,5,right,16,ITC_choice,879,f,0,0,93,298307,1166361
40,24,male,Belgian,2,60,ITC,neutral,5,right,16,ITC_collect,485,k,0,0,93,297819,1166849
40,24,male,Belgian,2,60,ITC,neutral,5,right,16,ITC_outcome,0,undefined,0,0,109,296799,1167869
40,24,male,Belgian,2,61,guess,win,10,left,6,guess_start,435,space,0,0,109,296363,1168305
40,24,male,Belgian,2,61,guess,win,10,left,6,guess_choice,693,f,0,0,109,295667,1169001
40,24,male,Belgian,2,61,guess,win,10,left,6,guess_outcome,0,undefined,0,0,129,294099,1170569
40,24,male,Belgian,2,61,ITC,win,10,left,6,ITC_start,1031,space,0,0,129,293067,1171601
40,24,male,Belgian,2,61,ITC,win,10,left,6,ITC_wait,0,undefined,0,0,129,292305,1172363
40,24,male,Belgian,2,61,ITC,win,10,left,6,ITC_choice,759,j,0,0,129,292307,1172361
40,24,male,Belgian,2,61,ITC,win,10,left,6,ITC_collect,700,k,0,0,129,291604,1173064
40,24,male,Belgian,2,61,ITC,win,10,left,6,ITC_outcome,0,undefined,0,0,135,290599,1174069
40,24,male,Belgian,2,62,guess,loss,10,left,3,guess_start,258,space,0,0,135,290339,1174329
40,24,male,Belgian,2,62,guess,loss,10,left,3,guess_choice,573,f,0,0,135,289763,1174905
40,24,male,Belgian,2,62,guess,loss,10,left,3,guess_outcome,0,undefined,0,0,120,288199,1176469
40,24,male,Belgian,2,62,ITC,loss,10,left,3,ITC_start,587,space,0,0,120,287611,1177057
40,24,male,Belgian,2,62,ITC,loss,10,left,3,ITC_choice,750,j,0,0,120,286858,1177810
40,24,male,Belgian,2,62,ITC,loss,10,left,3,ITC_wait,0,undefined,0,0,120,286856,1177812
40,24,male,Belgian,2,62,ITC,loss,10,left,3,ITC_collect,638,k,0,0,120,286218,1178450
40,24,male,Belgian,2,62,ITC,loss,10,left,3,ITC_outcome,0,undefined,0,0,123,285199,1179469
40,24,male,Belgian,2,63,guess,win,5,right,5,guess_start,259,space,0,0,123,284939,1179729
40,24,male,Belgian,2,63,guess,win,5,right,5,guess_choice,604,f,0,0,123,284330,1180338
40,24,male,Belgian,2,63,guess,win,5,right,5,guess_outcome,0,undefined,0,0,143,282759,1181909
40,24,male,Belgian,2,63,ITC,win,5,right,5,ITC_start,562,space,0,0,143,282195,1182473
40,24,male,Belgian,2,63,ITC,win,5,right,5,ITC_wait,0,undefined,0,0,143,281105,1183563
40,24,male,Belgian,2,63,ITC,win,5,right,5,ITC_choice,1087,f,0,0,143,281108,1183560
40,24,male,Belgian,2,63,ITC,win,5,right,5,ITC_collect,630,k,0,0,143,280475,1184193
40,24,male,Belgian,2,63,ITC,win,5,right,5,ITC_outcome,0,undefined,0,0,148,279459,1185209
40,24,male,Belgian,2,64,guess,neutral,5,right,14,guess_start,247,space,0,0,148,279211,1185457
40,24,male,Belgian,2,64,guess,neutral,5,right,14,guess_choice,814,f,0,0,148,278395,1186273
40,24,male,Belgian,2,64,guess,neutral,5,right,14,guess_outcome,0,undefined,0,0,148,276839,1187829
40,24,male,Belgian,2,64,ITC,neutral,5,right,14,ITC_start,795,space,0,0,148,276042,1188626
40,24,male,Belgian,2,64,ITC,neutral,5,right,14,ITC_wait,0,undefined,0,0,148,274985,1189683
40,24,male,Belgian,2,64,ITC,neutral,5,right,14,ITC_choice,1053,f,0,0,148,274987,1189681
40,24,male,Belgian,2,64,ITC,neutral,5,right,14,ITC_collect,747,k,0,0,148,274235,1190433
40,24,male,Belgian,2,64,ITC,neutral,5,right,14,ITC_outcome,0,undefined,0,0,162,273220,1191448
40,24,male,Belgian,2,65,guess,win,5,right,7,guess_start,663,space,0,0,162,272556,1192112
40,24,male,Belgian,2,65,guess,win,5,right,7,guess_choice,638,f,0,0,162,271915,1192753
40,24,male,Belgian,2,65,guess,win,5,right,7,guess_outcome,0,undefined,0,0,182,270360,1194308
40,24,male,Belgian,2,65,ITC,win,5,right,7,ITC_start,1316,space,0,0,182,269043,1195625
40,24,male,Belgian,2,65,ITC,win,5,right,7,ITC_choice,837,f,0,0,182,268203,1196465
40,24,male,Belgian,2,65,ITC,win,5,right,7,ITC_wait,0,undefined,0,0,182,268201,1196467
40,24,male,Belgian,2,65,ITC,win,5,right,7,ITC_collect,685,k,0,0,182,267515,1197153
40,24,male,Belgian,2,65,ITC,win,5,right,7,ITC_outcome,0,undefined,0,0,189,266499,1198169
40,24,male,Belgian,2,66,guess,loss,10,left,4,guess_start,263,space,0,0,189,266235,1198433
40,24,male,Belgian,2,66,guess,loss,10,left,4,guess_choice,750,j,0,0,189,265483,1199185
40,24,male,Belgian,2,66,guess,loss,10,left,4,guess_outcome,0,undefined,0,0,174,263920,1200748
40,24,male,Belgian,2,66,ITC,loss,10,left,4,ITC_start,492,space,0,0,174,263428,1201240
40,24,male,Belgian,2,66,ITC,loss,10,left,4,ITC_choice,655,j,0,0,174,262771,1201897
40,24,male,Belgian,2,66,ITC,loss,10,left,4,ITC_wait,0,undefined,0,0,174,262769,1201899
40,24,male,Belgian,2,66,ITC,loss,10,left,4,ITC_collect,445,k,0,0,174,262323,1202345
40,24,male,Belgian,2,66,ITC,loss,10,left,4,ITC_outcome,0,undefined,0,0,178,261320,1203348
40,24,male,Belgian,2,67,guess,neutral,10,right,8,guess_start,275,space,0,0,178,261043,1203625
40,24,male,Belgian,2,67,guess,neutral,10,right,8,guess_choice,764,f,0,0,178,260275,1204393
40,24,male,Belgian,2,67,guess,neutral,10,right,8,guess_outcome,0,undefined,0,0,178,258720,1205948
40,24,male,Belgian,2,67,ITC,neutral,10,right,8,ITC_start,740,space,0,0,178,257978,1206690
40,24,male,Belgian,2,67,ITC,neutral,10,right,8,ITC_choice,1246,f,0,0,178,256730,1207938
40,24,male,Belgian,2,67,ITC,neutral,10,right,8,ITC_wait,0,undefined,0,0,178,256729,1207939
40,24,male,Belgian,2,67,ITC,neutral,10,right,8,ITC_collect,813,k,0,0,178,255915,1208753
40,24,male,Belgian,2,67,ITC,neutral,10,right,8,ITC_outcome,0,undefined,0,0,186,254899,1209769
40,24,male,Belgian,2,68,guess,win,5,right,15,guess_start,279,space,0,0,186,254619,1210049
40,24,male,Belgian,2,68,guess,win,5,right,15,guess_choice,870,j,0,0,186,253747,1210921
40,24,male,Belgian,2,68,guess,win,5,right,15,guess_outcome,0,undefined,0,0,206,252179,1212489
40,24,male,Belgian,2,68,ITC,win,5,right,15,ITC_start,262,space,0,0,206,251916,1212752
40,24,male,Belgian,2,68,ITC,win,5,right,15,ITC_choice,921,f,0,0,206,250995,1213673
40,24,male,Belgian,2,68,ITC,win,5,right,15,ITC_wait,0,undefined,0,0,206,250993,1213675
40,24,male,Belgian,2,68,ITC,win,5,right,15,ITC_collect,555,k,0,0,206,250435,1214233
40,24,male,Belgian,2,68,ITC,win,5,right,15,ITC_outcome,0,undefined,0,0,221,249419,1215249
40,24,male,Belgian,2,69,guess,win,5,right,10,guess_start,271,space,0,0,221,249147,1215521
40,24,male,Belgian,2,69,guess,win,5,right,10,guess_choice,733,j,0,0,221,248410,1216258
40,24,male,Belgian,2,69,guess,win,5,right,10,guess_outcome,0,undefined,0,0,241,246839,1217829
40,24,male,Belgian,2,69,ITC,win,5,right,10,ITC_start,451,space,0,0,241,246387,1218281
40,24,male,Belgian,2,69,ITC,win,5,right,10,ITC_wait,0,undefined,0,0,241,245425,1219243
40,24,male,Belgian,2,69,ITC,win,5,right,10,ITC_choice,959,f,0,0,241,245427,1219241
40,24,male,Belgian,2,69,ITC,win,5,right,10,ITC_collect,516,k,0,0,241,244907,1219761
40,24,male,Belgian,2,69,ITC,win,5,right,10,ITC_outcome,0,undefined,0,0,251,243899,1220769
40,24,male,Belgian,2,70,guess,neutral,5,left,12,guess_start,262,space,0,0,251,243635,1221033
40,24,male,Belgian,2,70,guess,neutral,5,left,12,guess_choice,576,j,0,0,251,243057,1221611
40,24,male,Belgian,2,70,guess,neutral,5,left,12,guess_outcome,0,undefined,0,0,251,241499,1223169
40,24,male,Belgian,2,70,ITC,neutral,5,left,12,ITC_start,198,space,0,0,251,241299,1223369
40,24,male,Belgian,2,70,ITC,neutral,5,left,12,ITC_choice,679,j,0,0,251,240619,1224049
40,24,male,Belgian,2,70,ITC,neutral,5,left,12,ITC_wait,0,undefined,0,0,251,240616,1224052
40,24,male,Belgian,2,70,ITC,neutral,5,left,12,ITC_collect,508,k,0,0,251,240107,1224561
40,24,male,Belgian,2,70,ITC,neutral,5,left,12,ITC_outcome,0,undefined,0,0,263,239099,1225569
40,24,male,Belgian,2,71,guess,win,5,right,9,guess_start,175,space,0,0,263,238923,1225745
40,24,male,Belgian,2,71,guess,win,5,right,9,guess_choice,598,j,0,0,263,238322,1226346
40,24,male,Belgian,2,71,guess,win,5,right,9,guess_outcome,0,undefined,0,0,283,236759,1227909
40,24,male,Belgian,2,71,ITC,win,5,right,9,ITC_start,75,space,0,0,283,236684,1227984
40,24,male,Belgian,2,71,ITC,win,5,right,9,ITC_wait,0,undefined,0,0,283,235832,1228836
40,24,male,Belgian,2,71,ITC,win,5,right,9,ITC_choice,848,f,0,0,283,235835,1228833
40,24,male,Belgian,2,71,ITC,win,5,right,9,ITC_collect,443,k,0,0,283,235387,1229281
40,24,male,Belgian,2,71,ITC,win,5,right,9,ITC_outcome,0,undefined,0,0,292,234379,1230289
40,24,male,Belgian,2,72,guess,loss,5,left,9,guess_start,366,space,0,0,292,234010,1230658
40,24,male,Belgian,2,72,guess,loss,5,left,9,guess_choice,716,j,0,0,292,233290,1231378
40,24,male,Belgian,2,72,guess,loss,5,left,9,guess_outcome,0,undefined,0,0,277,231719,1232949
40,24,male,Belgian,2,72,ITC,loss,5,left,9,ITC_start,241,space,0,0,277,231476,1233192
40,24,male,Belgian,2,72,ITC,loss,5,left,9,ITC_wait,0,undefined,0,0,277,230680,1233988
40,24,male,Belgian,2,72,ITC,loss,5,left,9,ITC_choice,793,j,0,0,277,230683,1233985
40,24,male,Belgian,2,72,ITC,loss,5,left,9,ITC_collect,643,k,0,0,277,230035,1234633
40,24,male,Belgian,2,72,ITC,loss,5,left,9,ITC_outcome,0,undefined,0,0,286,229019,1235649
40,24,male,Belgian,2,73,guess,win,5,right,11,guess_start,63,space,0,0,286,228955,1235713
40,24,male,Belgian,2,73,guess,win,5,right,11,guess_choice,559,f,0,0,286,228394,1236274
40,24,male,Belgian,2,73,guess,win,5,right,11,guess_outcome,0,undefined,0,0,306,226840,1237828
40,24,male,Belgian,2,73,ITC,win,5,right,11,ITC_start,556,space,0,0,306,226282,1238386
40,24,male,Belgian,2,73,ITC,win,5,right,11,ITC_wait,0,undefined,0,0,306,225393,1239275
40,24,male,Belgian,2,73,ITC,win,5,right,11,ITC_choice,885,f,0,0,306,225395,1239273
40,24,male,Belgian,2,73,ITC,win,5,right,11,ITC_collect,455,k,0,0,306,224937,1239731
40,24,male,Belgian,2,73,ITC,win,5,right,11,ITC_outcome,0,undefined,0,0,317,223929,1240739
40,24,male,Belgian,2,74,guess,win,5,left,3,guess_start,100,space,0,0,317,223827,1240841
40,24,male,Belgian,2,74,guess,win,5,left,3,guess_choice,629,j,0,0,317,223195,1241473
40,24,male,Belgian,2,74,guess,win,5,left,3,guess_outcome,0,undefined,0,0,337,221630,1243038
40,24,male,Belgian,2,74,ITC,win,5,left,3,ITC_start,81,space,0,0,337,221547,1243121
40,24,male,Belgian,2,74,ITC,win,5,left,3,ITC_choice,768,j,0,0,337,220778,1243890
40,24,male,Belgian,2,74,ITC,win,5,left,3,ITC_wait,0,undefined,0,0,337,220776,1243892
40,24,male,Belgian,2,74,ITC,win,5,left,3,ITC_collect,316,k,0,0,337,220459,1244209
40,24,male,Belgian,2,74,ITC,win,5,left,3,ITC_outcome,0,undefined,0,0,340,219449,1245219
40,24,male,Belgian,2,75,guess,win,10,left,2,guess_start,381,space,0,0,340,219066,1245602
40,24,male,Belgian,2,75,guess,win,10,left,2,guess_choice,502,f,0,0,340,218562,1246106
40,24,male,Belgian,2,75,guess,win,10,left,2,guess_outcome,0,undefined,0,0,360,217009,1247659
40,24,male,Belgian,2,75,ITC,win,10,left,2,ITC_start,317,space,0,0,360,216690,1247978
40,24,male,Belgian,2,75,ITC,win,10,left,2,ITC_wait,0,undefined,0,0,360,216024,1248644
40,24,male,Belgian,2,75,ITC,win,10,left,2,ITC_choice,663,j,0,0,360,216026,1248642
40,24,male,Belgian,2,75,ITC,win,10,left,2,ITC_collect,1068,k,0,0,360,214955,1249713
40,24,male,Belgian,2,75,ITC,win,10,left,2,ITC_outcome,0,undefined,0,0,362,213949,1250719
40,24,male,Belgian,2,76,guess,neutral,5,left,16,guess_start,73,space,0,0,362,213874,1250794
40,24,male,Belgian,2,76,guess,neutral,5,left,16,guess_choice,750,j,0,0,362,213121,1251547
40,24,male,Belgian,2,76,guess,neutral,5,left,16,guess_outcome,0,undefined,0,0,362,211548,1253120
40,24,male,Belgian,2,76,ITC,neutral,5,left,16,ITC_start,400,space,0,0,362,211147,1253521
40,24,male,Belgian,2,76,ITC,neutral,5,left,16,ITC_choice,583,j,0,0,362,210562,1254106
40,24,male,Belgian,2,76,ITC,neutral,5,left,16,ITC_wait,0,undefined,0,0,362,210560,1254108
40,24,male,Belgian,2,76,ITC,neutral,5,left,16,ITC_collect,308,k,0,0,362,210251,1254417
40,24,male,Belgian,2,76,ITC,neutral,5,left,16,ITC_outcome,0,undefined,0,0,378,209249,1255419
40,24,male,Belgian,2,77,guess,win,5,right,6,guess_start,259,space,0,0,378,208987,1255681
40,24,male,Belgian,2,77,guess,win,5,right,6,guess_choice,453,j,0,0,378,208530,1256138
40,24,male,Belgian,2,77,guess,win,5,right,6,guess_outcome,0,undefined,0,0,398,206969,1257699
40,24,male,Belgian,2,77,ITC,win,5,right,6,ITC_start,1053,space,0,0,398,205915,1258753
40,24,male,Belgian,2,77,ITC,win,5,right,6,ITC_wait,0,undefined,0,0,398,205056,1259612
40,24,male,Belgian,2,77,ITC,win,5,right,6,ITC_choice,856,f,0,0,398,205058,1259610
40,24,male,Belgian,2,77,ITC,win,5,right,6,ITC_collect,365,k,0,0,398,204690,1259978
40,24,male,Belgian,2,77,ITC,win,5,right,6,ITC_outcome,0,undefined,0,0,404,203669,1260999
40,24,male,Belgian,2,78,guess,loss,10,right,1,guess_start,584,space,0,0,404,203083,1261585
40,24,male,Belgian,2,78,guess,loss,10,right,1,guess_choice,942,j,0,0,404,202138,1262530
40,24,male,Belgian,2,78,guess,loss,10,right,1,guess_outcome,0,undefined,0,0,389,200569,1264099
40,24,male,Belgian,2,78,ITC,loss,10,right,1,ITC_start,17717,space,0,0,389,182850,1281818
40,24,male,Belgian,2,78,ITC,loss,10,right,1,ITC_choice,2560,f,0,0,389,180289,1284379
40,24,male,Belgian,2,78,ITC,loss,10,right,1,ITC_wait,0,undefined,0,0,389,180287,1284381
40,24,male,Belgian,2,78,ITC,loss,10,right,1,ITC_collect,1251,k,0,0,389,179035,1285633
40,24,male,Belgian,2,78,ITC,loss,10,right,1,ITC_outcome,0,undefined,0,0,390,178029,1286639
40,24,male,Belgian,2,79,guess,loss,5,right,13,guess_start,657,space,0,0,390,177370,1287298
40,24,male,Belgian,2,79,guess,loss,5,right,13,guess_choice,1031,j,0,0,390,176338,1288330
40,24,male,Belgian,2,79,guess,loss,5,right,13,guess_outcome,0,undefined,0,0,375,174769,1289899
40,24,male,Belgian,2,79,ITC,loss,5,right,13,ITC_start,759,space,0,0,375,174010,1290658
40,24,male,Belgian,2,79,ITC,loss,5,right,13,ITC_wait,0,undefined,0,0,375,173040,1291628
40,24,male,Belgian,2,79,ITC,loss,5,right,13,ITC_choice,966,f,0,0,375,173042,1291626
40,24,male,Belgian,2,79,ITC,loss,5,right,13,ITC_collect,548,k,0,0,375,172490,1292178
40,24,male,Belgian,2,79,ITC,loss,5,right,13,ITC_outcome,0,undefined,0,0,388,171469,1293199
40,24,male,Belgian,2,80,guess,loss,5,right,8,guess_start,663,space,0,0,388,170803,1293865
40,24,male,Belgian,2,80,guess,loss,5,right,8,guess_choice,669,j,0,0,388,170131,1294537
40,24,male,Belgian,2,80,guess,loss,5,right,8,guess_outcome,0,undefined,0,0,373,168568,1296100
40,24,male,Belgian,2,80,ITC,loss,5,right,8,ITC_start,451,space,0,0,373,168115,1296553
40,24,male,Belgian,2,80,ITC,loss,5,right,8,ITC_wait,0,undefined,0,0,373,167200,1297468
40,24,male,Belgian,2,80,ITC,loss,5,right,8,ITC_choice,911,f,0,0,373,167202,1297466
40,24,male,Belgian,2,80,ITC,loss,5,right,8,ITC_collect,572,k,0,0,373,166627,1298041
40,24,male,Belgian,2,80,ITC,loss,5,right,8,ITC_outcome,0,undefined,0,0,381,165608,1299060
40,24,male,Belgian,2,81,guess,loss,5,left,14,guess_start,460,space,0,0,381,165146,1299522
40,24,male,Belgian,2,81,guess,loss,5,left,14,guess_choice,614,j,0,0,381,164530,1300138
40,24,male,Belgian,2,81,guess,loss,5,left,14,guess_outcome,0,undefined,0,0,366,162959,1301709
40,24,male,Belgian,2,81,ITC,loss,5,left,14,ITC_start,290,space,0,0,366,162667,1302001
40,24,male,Belgian,2,81,ITC,loss,5,left,14,ITC_choice,807,j,0,0,366,161857,1302811
40,24,male,Belgian,2,81,ITC,loss,5,left,14,ITC_wait,0,undefined,0,0,366,161855,1302813
40,24,male,Belgian,2,81,ITC,loss,5,left,14,ITC_collect,908,k,0,0,366,160946,1303722
40,24,male,Belgian,2,81,ITC,loss,5,left,14,ITC_outcome,0,undefined,0,0,380,159928,1304740
40,24,male,Belgian,2,82,guess,neutral,5,right,2,guess_start,749,space,0,0,380,159177,1305491
40,24,male,Belgian,2,82,guess,neutral,5,right,2,guess_choice,509,j,0,0,380,158667,1306001
40,24,male,Belgian,2,82,guess,neutral,5,right,2,guess_outcome,0,undefined,0,0,380,157108,1307560
40,24,male,Belgian,2,82,ITC,neutral,5,right,2,ITC_start,456,space,0,0,380,156650,1308018
40,24,male,Belgian,2,82,ITC,neutral,5,right,2,ITC_wait,0,undefined,0,0,380,155679,1308989
40,24,male,Belgian,2,82,ITC,neutral,5,right,2,ITC_choice,966,f,0,0,380,155681,1308987
40,24,male,Belgian,2,82,ITC,neutral,5,right,2,ITC_collect,500,k,0,0,380,155177,1309491
40,24,male,Belgian,2,82,ITC,neutral,5,right,2,ITC_outcome,0,undefined,0,0,382,154168,1310500
40,24,male,Belgian,2,83,guess,neutral,5,right,7,guess_start,652,space,0,0,382,153514,1311154
40,24,male,Belgian,2,83,guess,neutral,5,right,7,guess_choice,855,j,0,0,382,152658,1312010
40,24,male,Belgian,2,83,guess,neutral,5,right,7,guess_outcome,0,undefined,0,0,382,151089,1313579
40,24,male,Belgian,2,83,ITC,neutral,5,right,7,ITC_start,798,space,0,0,382,150290,1314378
40,24,male,Belgian,2,83,ITC,neutral,5,right,7,ITC_wait,0,undefined,0,0,382,149256,1315412
40,24,male,Belgian,2,83,ITC,neutral,5,right,7,ITC_choice,1030,f,0,0,382,149258,1315410
40,24,male,Belgian,2,83,ITC,neutral,5,right,7,ITC_collect,420,k,0,0,382,148835,1315833
40,24,male,Belgian,2,83,ITC,neutral,5,right,7,ITC_outcome,0,undefined,0,0,389,147828,1316840
40,24,male,Belgian,2,84,guess,neutral,5,right,3,guess_start,585,space,0,0,389,147242,1317426
40,24,male,Belgian,2,84,guess,neutral,5,right,3,guess_choice,701,j,0,0,389,146539,1318129
40,24,male,Belgian,2,84,guess,neutral,5,right,3,guess_outcome,0,undefined,0,0,389,144968,1319700
40,24,male,Belgian,2,84,ITC,neutral,5,right,3,ITC_start,260,space,0,0,389,144707,1319961
40,24,male,Belgian,2,84,ITC,neutral,5,right,3,ITC_choice,777,f,0,0,389,143930,1320738
40,24,male,Belgian,2,84,ITC,neutral,5,right,3,ITC_wait,0,undefined,0,0,389,143928,1320740
40,24,male,Belgian,2,84,ITC,neutral,5,right,3,ITC_collect,428,k,0,0,389,143498,1321170
40,24,male,Belgian,2,84,ITC,neutral,5,right,3,ITC_outcome,0,undefined,0,0,392,142489,1322179
40,24,male,Belgian,2,85,guess,neutral,5,right,4,guess_start,421,space,0,0,392,142067,1322601
40,24,male,Belgian,2,85,guess,neutral,5,right,4,guess_choice,887,f,0,0,392,141177,1323491
40,24,male,Belgian,2,85,guess,neutral,5,right,4,guess_outcome,0,undefined,0,0,392,139608,1325060
40,24,male,Belgian,2,85,ITC,neutral,5,right,4,ITC_start,596,space,0,0,392,139010,1325658
40,24,male,Belgian,2,85,ITC,neutral,5,right,4,ITC_choice,783,f,0,0,392,138227,1326441
40,24,male,Belgian,2,85,ITC,neutral,5,right,4,ITC_wait,0,undefined,0,0,392,138224,1326444
40,24,male,Belgian,2,85,ITC,neutral,5,right,4,ITC_collect,373,k,0,0,392,137850,1326818
40,24,male,Belgian,2,85,ITC,neutral,5,right,4,ITC_outcome,0,undefined,0,0,396,136829,1327839
40,24,male,Belgian,2,86,guess,neutral,10,left,2,guess_start,409,space,0,0,396,136418,1328250
40,24,male,Belgian,2,86,guess,neutral,10,left,2,guess_choice,878,f,0,0,396,135538,1329130
40,24,male,Belgian,2,86,guess,neutral,10,left,2,guess_outcome,0,undefined,0,0,396,133968,1330700
40,24,male,Belgian,2,86,ITC,neutral,10,left,2,ITC_start,677,space,0,0,396,133289,1331379
40,24,male,Belgian,2,86,ITC,neutral,10,left,2,ITC_choice,750,j,0,0,396,132538,1332130
40,24,male,Belgian,2,86,ITC,neutral,10,left,2,ITC_wait,0,undefined,0,0,396,132536,1332132
40,24,male,Belgian,2,86,ITC,neutral,10,left,2,ITC_collect,349,k,0,0,396,132186,1332482
40,24,male,Belgian,2,86,ITC,neutral,10,left,2,ITC_outcome,0,undefined,0,0,398,131169,1333499
40,24,male,Belgian,2,87,guess,neutral,5,left,15,guess_start,580,space,0,0,398,130587,1334081
40,24,male,Belgian,2,87,guess,neutral,5,left,15,guess_choice,606,j,0,0,398,129978,1334690
40,24,male,Belgian,2,87,guess,neutral,5,left,15,guess_outcome,0,undefined,0,0,398,128407,1336261
40,24,male,Belgian,2,87,ITC,neutral,5,left,15,ITC_start,708,space,0,0,398,127698,1336970
40,24,male,Belgian,2,87,ITC,neutral,5,left,15,ITC_choice,671,j,0,0,398,127027,1337641
40,24,male,Belgian,2,87,ITC,neutral,5,left,15,ITC_wait,0,undefined,0,0,398,127024,1337644
40,24,male,Belgian,2,87,ITC,neutral,5,left,15,ITC_collect,301,k,0,0,398,126721,1337947
40,24,male,Belgian,2,87,ITC,neutral,5,left,15,ITC_outcome,0,undefined,0,0,413,125709,1338959
40,24,male,Belgian,2,88,guess,neutral,5,left,6,guess_start,289,space,0,0,413,125418,1339250
40,24,male,Belgian,2,88,guess,neutral,5,left,6,guess_choice,677,j,0,0,413,124737,1339931
40,24,male,Belgian,2,88,guess,neutral,5,left,6,guess_outcome,0,undefined,0,0,413,123168,1341500
40,24,male,Belgian,2,88,ITC,neutral,5,left,6,ITC_start,894,space,0,0,413,122274,1342394
40,24,male,Belgian,2,88,ITC,neutral,5,left,6,ITC_choice,583,j,0,0,413,121690,1342978
40,24,male,Belgian,2,88,ITC,neutral,5,left,6,ITC_wait,0,undefined,0,0,413,121688,1342980
40,24,male,Belgian,2,88,ITC,neutral,5,left,6,ITC_collect,268,k,0,0,413,121418,1343250
40,24,male,Belgian,2,88,ITC,neutral,5,left,6,ITC_outcome,0,undefined,0,0,419,120408,1344260
40,24,male,Belgian,2,89,guess,loss,5,left,6,guess_start,92,space,0,0,419,120315,1344353
40,24,male,Belgian,2,89,guess,loss,5,left,6,guess_choice,606,j,0,0,419,119706,1344962
40,24,male,Belgian,2,89,guess,loss,5,left,6,guess_outcome,0,undefined,0,0,404,118149,1346519
40,24,male,Belgian,2,89,ITC,loss,5,left,6,ITC_start,777,space,0,0,404,117371,1347297
40,24,male,Belgian,2,89,ITC,loss,5,left,6,ITC_wait,0,undefined,0,0,404,116488,1348180
40,24,male,Belgian,2,89,ITC,loss,5,left,6,ITC_choice,878,j,0,0,404,116490,1348178
40,24,male,Belgian,2,89,ITC,loss,5,left,6,ITC_collect,388,k,0,0,404,116098,1348570
40,24,male,Belgian,2,89,ITC,loss,5,left,6,ITC_outcome,0,undefined,0,0,410,115089,1349579
40,24,male,Belgian,2,90,guess,neutral,10,left,7,guess_start,501,space,0,0,410,114587,1350081
40,24,male,Belgian,2,90,guess,neutral,10,left,7,guess_choice,1038,f,0,0,410,113546,1351122
40,24,male,Belgian,2,90,guess,neutral,10,left,7,guess_outcome,0,undefined,0,0,410,111989,1352679
40,24,male,Belgian,2,90,ITC,neutral,10,left,7,ITC_start,785,space,0,0,410,111203,1353465
40,24,male,Belgian,2,90,ITC,neutral,10,left,7,ITC_wait,0,undefined,0,0,410,110544,1354124
40,24,male,Belgian,2,90,ITC,neutral,10,left,7,ITC_choice,655,j,0,0,410,110546,1354122
40,24,male,Belgian,2,90,ITC,neutral,10,left,7,ITC_collect,252,k,0,0,410,110289,1354379
40,24,male,Belgian,2,90,ITC,neutral,10,left,7,ITC_outcome,0,undefined,0,0,417,109269,1355399
40,24,male,Belgian,2,91,guess,loss,10,right,3,guess_start,24,space,0,0,417,109242,1355426
40,24,male,Belgian,2,91,guess,loss,10,right,3,guess_choice,743,j,0,0,417,108497,1356171
40,24,male,Belgian,2,91,guess,loss,10,right,3,guess_outcome,0,undefined,0,0,402,106929,1357739
40,24,male,Belgian,2,91,ITC,loss,10,right,3,ITC_start,5,space,0,0,402,106923,1357745
40,24,male,Belgian,2,91,ITC,loss,10,right,3,ITC_wait,0,undefined,0,0,402,105855,1358813
40,24,male,Belgian,2,91,ITC,loss,10,right,3,ITC_choice,1064,f,0,0,402,105858,1358810
40,24,male,Belgian,2,91,ITC,loss,10,right,3,ITC_collect,291,k,0,0,402,105562,1359106
40,24,male,Belgian,2,91,ITC,loss,10,right,3,ITC_outcome,0,undefined,0,0,405,104558,1360110
40,24,male,Belgian,2,92,guess,win,5,right,16,guess_start,251,space,0,0,405,104306,1360362
40,24,male,Belgian,2,92,guess,win,5,right,16,guess_choice,894,j,0,0,405,103409,1361259
40,24,male,Belgian,2,92,guess,win,5,right,16,guess_outcome,0,undefined,0,0,425,101838,1362830
40,24,male,Belgian,2,92,ITC,win,5,right,16,ITC_start,233,space,0,0,425,101602,1363066
40,24,male,Belgian,2,92,ITC,win,5,right,16,ITC_choice,838,f,0,0,425,100763,1363905
40,24,male,Belgian,2,92,ITC,win,5,right,16,ITC_wait,0,undefined,0,0,425,100760,1363908
40,24,male,Belgian,2,92,ITC,win,5,right,16,ITC_collect,324,k,0,0,425,100434,1364234
40,24,male,Belgian,2,92,ITC,win,5,right,16,ITC_outcome,0,undefined,0,0,441,99428,1365240
40,24,male,Belgian,2,93,guess,neutral,10,right,3,guess_start,711,space,0,0,441,98715,1365953
40,24,male,Belgian,2,93,guess,neutral,10,right,3,guess_choice,830,f,0,0,441,97882,1366786
40,24,male,Belgian,2,93,guess,neutral,10,right,3,guess_outcome,0,undefined,0,0,441,96328,1368340
40,24,male,Belgian,2,93,ITC,neutral,10,right,3,ITC_start,404,space,0,0,441,95923,1368745
40,24,male,Belgian,2,93,ITC,neutral,10,right,3,ITC_choice,728,f,0,0,441,95193,1369475
40,24,male,Belgian,2,93,ITC,neutral,10,right,3,ITC_wait,0,undefined,0,0,441,95192,1369476
40,24,male,Belgian,2,93,ITC,neutral,10,right,3,ITC_collect,253,k,0,0,441,94937,1369731
40,24,male,Belgian,2,93,ITC,neutral,10,right,3,ITC_outcome,0,undefined,0,0,444,93929,1370739
40,24,male,Belgian,2,94,guess,neutral,10,right,1,guess_start,796,space,0,0,444,93130,1371538
40,24,male,Belgian,2,94,guess,neutral,10,right,1,guess_choice,779,j,0,0,444,92346,1372322
40,24,male,Belgian,2,94,guess,neutral,10,right,1,guess_outcome,0,undefined,0,0,444,90788,1373880
40,24,male,Belgian,2,94,ITC,neutral,10,right,1,ITC_start,698,space,0,0,444,90090,1374578
40,24,male,Belgian,2,94,ITC,neutral,10,right,1,ITC_choice,702,f,0,0,444,89386,1375282
40,24,male,Belgian,2,94,ITC,neutral,10,right,1,ITC_wait,0,undefined,0,0,444,89384,1375284
40,24,male,Belgian,2,94,ITC,neutral,10,right,1,ITC_collect,348,k,0,0,444,89034,1375634
40,24,male,Belgian,2,94,ITC,neutral,10,right,1,ITC_outcome,0,undefined,0,0,445,88028,1376640
40,24,male,Belgian,2,95,guess,win,10,left,6,guess_start,353,space,0,0,445,87675,1376993
40,24,male,Belgian,2,95,guess,win,10,left,6,guess_choice,582,j,0,0,445,87089,1377579
40,24,male,Belgian,2,95,guess,win,10,left,6,guess_outcome,0,undefined,0,0,465,85528,1379140
40,24,male,Belgian,2,95,ITC,win,10,left,6,ITC_start,717,space,0,0,465,84811,1379857
40,24,male,Belgian,2,95,ITC,win,10,left,6,ITC_wait,0,undefined,0,0,465,84168,1380500
40,24,male,Belgian,2,95,ITC,win,10,left,6,ITC_choice,639,j,0,0,465,84170,1380498
40,24,male,Belgian,2,95,ITC,win,10,left,6,ITC_collect,261,k,0,0,465,83906,1380762
40,24,male,Belgian,2,95,ITC,win,10,left,6,ITC_outcome,0,undefined,0,0,471,82888,1381780
40,24,male,Belgian,2,96,guess,win,5,right,2,guess_start,220,space,0,0,471,82666,1382002
40,24,male,Belgian,2,96,guess,win,5,right,2,guess_choice,661,j,0,0,471,82001,1382667
40,24,male,Belgian,2,96,guess,win,5,right,2,guess_outcome,0,undefined,0,0,491,80449,1384219
40,24,male,Belgian,2,96,ITC,win,5,right,2,ITC_start,838,space,0,0,491,79610,1385058
40,24,male,Belgian,2,96,ITC,win,5,right,2,ITC_choice,814,f,0,0,491,78795,1385873
40,24,male,Belgian,2,96,ITC,win,5,right,2,ITC_wait,0,undefined,0,0,491,78793,1385875
40,24,male,Belgian,2,96,ITC,win,5,right,2,ITC_collect,317,k,0,0,491,78475,1386193
40,24,male,Belgian,2,96,ITC,win,5,right,2,ITC_outcome,0,undefined,0,0,493,77468,1387200
40,24,male,Belgian,2,97,guess,loss,10,right,8,guess_start,73,space,0,0,493,77395,1387273
40,24,male,Belgian,2,97,guess,loss,10,right,8,guess_choice,903,j,0,0,493,76489,1388179
40,24,male,Belgian,2,97,guess,loss,10,right,8,guess_outcome,0,undefined,0,0,478,74928,1389740
40,24,male,Belgian,2,97,ITC,loss,10,right,8,ITC_start,309,space,0,0,478,74618,1390050
40,24,male,Belgian,2,97,ITC,loss,10,right,8,ITC_choice,703,f,0,0,478,73914,1390754
40,24,male,Belgian,2,97,ITC,loss,10,right,8,ITC_wait,0,undefined,0,0,478,73913,1390755
40,24,male,Belgian,2,97,ITC,loss,10,right,8,ITC_collect,245,k,0,0,478,73666,1391002
40,24,male,Belgian,2,97,ITC,loss,10,right,8,ITC_outcome,0,undefined,0,0,486,72648,1392020
40,24,male,Belgian,2,98,guess,neutral,10,left,5,guess_start,357,space,0,0,486,72290,1392378
40,24,male,Belgian,2,98,guess,neutral,10,left,5,guess_choice,732,f,0,0,486,71554,1393114
40,24,male,Belgian,2,98,guess,neutral,10,left,5,guess_outcome,0,undefined,0,0,486,69987,1394681
40,24,male,Belgian,2,98,ITC,neutral,10,left,5,ITC_start,289,space,0,0,486,69698,1394970
40,24,male,Belgian,2,98,ITC,neutral,10,left,5,ITC_choice,671,j,0,0,486,69026,1395642
40,24,male,Belgian,2,98,ITC,neutral,10,left,5,ITC_wait,0,undefined,0,0,486,69024,1395644
40,24,male,Belgian,2,98,ITC,neutral,10,left,5,ITC_collect,269,k,0,0,486,68753,1395915
40,24,male,Belgian,2,98,ITC,neutral,10,left,5,ITC_outcome,0,undefined,0,0,491,67738,1396930
40,24,male,Belgian,2,99,guess,neutral,10,right,6,guess_start,214,space,0,0,491,67522,1397146
40,24,male,Belgian,2,99,guess,neutral,10,right,6,guess_choice,765,f,0,0,491,66754,1397914
40,24,male,Belgian,2,99,guess,neutral,10,right,6,guess_outcome,0,undefined,0,0,491,65198,1399470
40,24,male,Belgian,2,99,ITC,neutral,10,right,6,ITC_start,259,space,0,0,491,64937,1399731
40,24,male,Belgian,2,99,ITC,neutral,10,right,6,ITC_choice,671,f,0,0,491,64266,1400402
40,24,male,Belgian,2,99,ITC,neutral,10,right,6,ITC_wait,0,undefined,0,0,491,64264,1400404
40,24,male,Belgian,2,99,ITC,neutral,10,right,6,ITC_collect,253,k,0,0,491,64009,1400659
40,24,male,Belgian,2,99,ITC,neutral,10,right,6,ITC_outcome,0,undefined,0,0,497,62998,1401670
40,24,male,Belgian,2,100,guess,win,5,left,14,guess_start,402,space,0,0,497,62594,1402074
40,24,male,Belgian,2,100,guess,win,5,left,14,guess_choice,1294,j,0,0,497,61297,1403371
40,24,male,Belgian,2,100,guess,win,5,left,14,guess_outcome,0,undefined,0,0,517,59738,1404930
40,24,male,Belgian,2,100,ITC,win,5,left,14,ITC_start,319,space,0,0,517,59417,1405251
40,24,male,Belgian,2,100,ITC,win,5,left,14,ITC_choice,710,j,0,0,517,58706,1405962
40,24,male,Belgian,2,100,ITC,win,5,left,14,ITC_wait,0,undefined,0,0,517,58704,1405964
40,24,male,Belgian,2,100,ITC,win,5,left,14,ITC_collect,308,k,0,0,517,58393,1406275
40,24,male,Belgian,2,100,ITC,win,5,left,14,ITC_outcome,0,undefined,0,0,531,57377,1407291
40,24,male,Belgian,2,101,guess,win,5,left,7,guess_start,390,space,0,0,531,56986,1407682
40,24,male,Belgian,2,101,guess,win,5,left,7,guess_choice,566,j,0,0,531,56417,1408251
40,24,male,Belgian,2,101,guess,win,5,left,7,guess_outcome,0,undefined,0,0,551,54857,1409811
40,24,male,Belgian,2,101,ITC,win,5,left,7,ITC_start,333,space,0,0,551,54522,1410146
40,24,male,Belgian,2,101,ITC,win,5,left,7,ITC_wait,0,undefined,0,0,551,53775,1410893
40,24,male,Belgian,2,101,ITC,win,5,left,7,ITC_choice,744,j,0,0,551,53777,1410891
40,24,male,Belgian,2,101,ITC,win,5,left,7,ITC_collect,308,k,0,0,551,53466,1411202
40,24,male,Belgian,2,101,ITC,win,5,left,7,ITC_outcome,0,undefined,0,0,558,52458,1412210
40,24,male,Belgian,2,102,guess,neutral,5,right,1,guess_start,344,space,0,0,558,52113,1412555
40,24,male,Belgian,2,102,guess,neutral,5,right,1,guess_choice,918,f,0,0,558,51194,1413474
40,24,male,Belgian,2,102,guess,neutral,5,right,1,guess_outcome,0,undefined,0,0,558,49638,1415030
40,24,male,Belgian,2,102,ITC,neutral,5,right,1,ITC_start,794,space,0,0,558,48842,1415826
40,24,male,Belgian,2,102,ITC,neutral,5,right,1,ITC_choice,774,f,0,0,558,48066,1416602
40,24,male,Belgian,2,102,ITC,neutral,5,right,1,ITC_wait,0,undefined,0,0,558,48064,1416604
40,24,male,Belgian,2,102,ITC,neutral,5,right,1,ITC_collect,318,k,0,0,558,47746,1416922
40,24,male,Belgian,2,102,ITC,neutral,5,right,1,ITC_outcome,0,undefined,0,0,559,46739,1417929
40,24,male,Belgian,2,103,guess,loss,5,right,9,guess_start,70,space,0,0,559,46666,1418002
40,24,male,Belgian,2,103,guess,loss,5,right,9,guess_choice,734,j,0,0,559,45929,1418739
40,24,male,Belgian,2,103,guess,loss,5,right,9,guess_outcome,0,undefined,0,0,544,44358,1420310
40,24,male,Belgian,2,103,ITC,loss,5,right,9,ITC_start,155,space,0,0,544,44201,1420467
40,24,male,Belgian,2,103,ITC,loss,5,right,9,ITC_choice,742,f,0,0,544,43458,1421210
40,24,male,Belgian,2,103,ITC,loss,5,right,9,ITC_wait,0,undefined,0,0,544,43455,1421213
40,24,male,Belgian,2,103,ITC,loss,5,right,9,ITC_collect,228,k,0,0,544,43226,1421442
40,24,male,Belgian,2,103,ITC,loss,5,right,9,ITC_outcome,0,undefined,0,0,553,42218,1422450
40,24,male,Belgian,2,104,guess,loss,10,right,2,guess_start,559,space,0,0,553,41657,1423011
40,24,male,Belgian,2,104,guess,loss,10,right,2,guess_choice,925,j,0,0,553,40729,1423939
40,24,male,Belgian,2,104,guess,loss,10,right,2,guess_outcome,0,undefined,0,0,538,39158,1425510
40,24,male,Belgian,2,104,ITC,loss,10,right,2,ITC_start,468,space,0,0,538,38689,1425979
40,24,male,Belgian,2,104,ITC,loss,10,right,2,ITC_choice,901,f,0,0,538,37786,1426882
40,24,male,Belgian,2,104,ITC,loss,10,right,2,ITC_wait,0,undefined,0,0,538,37784,1426884
40,24,male,Belgian,2,104,ITC,loss,10,right,2,ITC_collect,286,k,0,0,538,37497,1427171
40,24,male,Belgian,2,104,ITC,loss,10,right,2,ITC_outcome,0,undefined,0,0,540,36478,1428190
40,24,male,Belgian,2,105,guess,loss,5,right,10,guess_start,322,space,0,0,540,36155,1428513
40,24,male,Belgian,2,105,guess,loss,5,right,10,guess_choice,614,j,0,0,540,35537,1429131
40,24,male,Belgian,2,105,guess,loss,5,right,10,guess_outcome,0,undefined,0,0,525,33978,1430690
40,24,male,Belgian,2,105,ITC,loss,5,right,10,ITC_start,367,space,0,0,525,33609,1431059
40,24,male,Belgian,2,105,ITC,loss,5,right,10,ITC_choice,672,f,0,0,525,32938,1431730
40,24,male,Belgian,2,105,ITC,loss,5,right,10,ITC_wait,0,undefined,0,0,525,32935,1431733
40,24,male,Belgian,2,105,ITC,loss,5,right,10,ITC_collect,236,k,0,0,525,32697,1431971
40,24,male,Belgian,2,105,ITC,loss,5,right,10,ITC_outcome,0,undefined,0,0,535,31678,1432990
40,24,male,Belgian,2,106,guess,neutral,5,right,10,guess_start,722,space,0,0,535,30954,1433714
40,24,male,Belgian,2,106,guess,neutral,5,right,10,guess_choice,1006,f,0,0,535,29946,1434722
40,24,male,Belgian,2,106,guess,neutral,5,right,10,guess_outcome,0,undefined,0,0,535,28378,1436290
40,24,male,Belgian,2,106,ITC,neutral,5,right,10,ITC_start,327,space,0,0,535,28049,1436619
40,24,male,Belgian,2,106,ITC,neutral,5,right,10,ITC_choice,797,f,0,0,535,27249,1437419
40,24,male,Belgian,2,106,ITC,neutral,5,right,10,ITC_wait,0,undefined,0,0,535,27247,1437421
40,24,male,Belgian,2,106,ITC,neutral,5,right,10,ITC_collect,563,k,0,0,535,26681,1437987
40,24,male,Belgian,2,106,ITC,neutral,5,right,10,ITC_outcome,0,undefined,0,0,545,25663,1439005
40,24,male,Belgian,2,107,guess,win,5,left,5,guess_start,492,space,0,0,545,25169,1439499
40,24,male,Belgian,2,107,guess,win,5,left,5,guess_choice,941,j,0,0,545,24226,1440442
40,24,male,Belgian,2,107,guess,win,5,left,5,guess_outcome,0,undefined,0,0,565,22672,1441996
40,24,male,Belgian,2,107,ITC,win,5,left,5,ITC_start,374,space,0,0,565,22297,1442371
40,24,male,Belgian,2,107,ITC,win,5,left,5,ITC_choice,949,j,0,0,565,21346,1443322
40,24,male,Belgian,2,107,ITC,win,5,left,5,ITC_wait,0,undefined,0,0,565,21343,1443325
40,24,male,Belgian,2,107,ITC,win,5,left,5,ITC_collect,365,k,0,0,565,20977,1443691
40,24,male,Belgian,2,107,ITC,win,5,left,5,ITC_outcome,0,undefined,0,0,570,19971,1444697
40,24,male,Belgian,2,108,guess,loss,10,left,5,guess_start,313,space,0,0,570,19657,1445011
40,24,male,Belgian,2,108,guess,loss,10,left,5,guess_choice,653,j,0,0,570,19001,1445667
40,24,male,Belgian,2,108,guess,loss,10,left,5,guess_outcome,0,undefined,0,0,555,17442,1447226
40,24,male,Belgian,2,108,ITC,loss,10,left,5,ITC_start,320,space,0,0,555,17122,1447546
40,24,male,Belgian,2,108,ITC,loss,10,left,5,ITC_wait,0,undefined,0,0,555,16391,1448277
40,24,male,Belgian,2,108,ITC,loss,10,left,5,ITC_choice,726,j,0,0,555,16393,1448275
40,24,male,Belgian,2,108,ITC,loss,10,left,5,ITC_collect,269,k,0,0,555,16122,1448546
40,24,male,Belgian,2,108,ITC,loss,10,left,5,ITC_outcome,0,undefined,0,0,560,15107,1449561
40,24,male,Belgian,2,109,guess,win,10,left,7,guess_start,759,space,0,0,560,14346,1450322
40,24,male,Belgian,2,109,guess,win,10,left,7,guess_choice,687,f,0,0,560,13656,1451012
40,24,male,Belgian,2,109,guess,win,10,left,7,guess_outcome,0,undefined,0,0,580,12098,1452570
40,24,male,Belgian,2,109,ITC,win,10,left,7,ITC_start,78,space,0,0,580,12017,1452651
40,24,male,Belgian,2,109,ITC,win,10,left,7,ITC_wait,0,undefined,0,0,580,11344,1453324
40,24,male,Belgian,2,109,ITC,win,10,left,7,ITC_choice,670,j,0,0,580,11346,1453322
40,24,male,Belgian,2,109,ITC,win,10,left,7,ITC_collect,245,k,0,0,580,11097,1453571
40,24,male,Belgian,2,109,ITC,win,10,left,7,ITC_outcome,0,undefined,0,0,587,10077,1454591
40,24,male,Belgian,2,110,guess,loss,10,left,6,guess_start,194,space,0,0,587,9881,1454787
40,24,male,Belgian,2,110,guess,loss,10,left,6,guess_choice,1021,j,0,0,587,8856,1455812
40,24,male,Belgian,2,110,guess,loss,10,left,6,guess_outcome,0,undefined,0,0,572,7297,1457371
40,24,male,Belgian,2,110,ITC,loss,10,left,6,ITC_start,230,space,0,0,572,7066,1457602
40,24,male,Belgian,2,110,ITC,loss,10,left,6,ITC_choice,567,j,0,0,572,6496,1458172
40,24,male,Belgian,2,110,ITC,loss,10,left,6,ITC_wait,0,undefined,0,0,572,6495,1458173
40,24,male,Belgian,2,110,ITC,loss,10,left,6,ITC_collect,220,k,0,0,572,6273,1458395
40,24,male,Belgian,2,110,ITC,loss,10,left,6,ITC_outcome,0,undefined,0,0,578,5257,1459411
40,24,male,Belgian,2,111,guess,loss,10,right,4,guess_start,215,space,0,0,578,5041,1459627
40,24,male,Belgian,2,111,guess,loss,10,right,4,guess_choice,669,f,0,0,578,4369,1460299
40,24,male,Belgian,2,111,guess,loss,10,right,4,guess_outcome,0,undefined,0,0,563,2797,1461871
40,24,male,Belgian,2,111,ITC,loss,10,right,4,ITC_start,427,space,0,0,563,2369,1462299
40,24,male,Belgian,2,111,ITC,loss,10,right,4,ITC_wait,0,undefined,0,0,563,1135,1463533
40,24,male,Belgian,2,111,ITC,loss,10,right,4,ITC_choice,1231,f,0,0,563,1137,1463531
40,24,male,Belgian,2,111,ITC,loss,10,right,4,ITC_collect,220,k,0,0,563,913,1463755
40,24,male,Belgian,2,111,ITC,loss,10,right,4,ITC_outcome,0,undefined,0,0,567,-23,1464691
40,24,male,Belgian,3,112,guess,loss,5,left,12,guess_start,963,space,0,0,0,479035,1474676
40,24,male,Belgian,3,112,guess,loss,5,left,12,guess_choice,1684,j,0,0,0,477348,1476363
40,24,male,Belgian,3,112,guess,loss,5,left,12,guess_outcome,0,undefined,0,0,-15,475780,1477931
40,24,male,Belgian,3,112,ITC,loss,5,left,12,ITC_start,815,space,0,0,-15,474964,1478747
40,24,male,Belgian,3,112,ITC,loss,5,left,12,ITC_choice,1991,f,0,0,-15,472972,1480739
40,24,male,Belgian,3,112,ITC,loss,5,left,12,ITC_wait,0,undefined,0,0,-15,467961,1485750
40,24,male,Belgian,3,112,ITC,loss,5,left,12,ITC_collect,604,k,0,0,-15,467356,1486355
40,24,male,Belgian,3,112,ITC,loss,5,left,12,ITC_outcome,0,undefined,0,0,5,466340,1487371
40,24,male,Belgian,3,113,guess,neutral,5,left,5,guess_start,1143,space,0,0,5,465197,1488514
40,24,male,Belgian,3,113,guess,neutral,5,left,5,guess_choice,805,j,0,0,5,464388,1489323
40,24,male,Belgian,3,113,guess,neutral,5,left,5,guess_outcome,0,undefined,0,0,5,462820,1490891
40,24,male,Belgian,3,113,ITC,neutral,5,left,5,ITC_start,790,space,0,0,5,462028,1491683
40,24,male,Belgian,3,113,ITC,neutral,5,left,5,ITC_choice,1639,f,0,0,5,460388,1493323
40,24,male,Belgian,3,113,ITC,neutral,5,left,5,ITC_wait,0,undefined,0,0,5,455371,1498340
40,24,male,Belgian,3,113,ITC,neutral,5,left,5,ITC_collect,566,k,0,0,5,454804,1498907
40,24,male,Belgian,3,113,ITC,neutral,5,left,5,ITC_outcome,0,undefined,0,0,25,453789,1499922
40,24,male,Belgian,3,114,guess,neutral,5,right,13,guess_start,648,space,0,0,25,453139,1500572
40,24,male,Belgian,3,114,guess,neutral,5,right,13,guess_choice,877,f,0,0,25,452259,1501452
40,24,male,Belgian,3,114,guess,neutral,5,right,13,guess_outcome,0,undefined,0,0,25,450690,1503021
40,24,male,Belgian,3,114,ITC,neutral,5,right,13,ITC_start,732,space,0,0,25,449957,1503754
40,24,male,Belgian,3,114,ITC,neutral,5,right,13,ITC_choice,1456,j,0,0,25,448499,1505212
40,24,male,Belgian,3,114,ITC,neutral,5,right,13,ITC_wait,0,undefined,0,0,25,443491,1510220
40,24,male,Belgian,3,114,ITC,neutral,5,right,13,ITC_collect,1181,k,0,0,25,442308,1511403
40,24,male,Belgian,3,114,ITC,neutral,5,right,13,ITC_outcome,0,undefined,0,0,45,441290,1512421
40,24,male,Belgian,3,115,guess,win,5,left,15,guess_start,1053,space,0,0,45,440236,1513475
40,24,male,Belgian,3,115,guess,win,5,left,15,guess_choice,989,j,0,0,45,439244,1514467
40,24,male,Belgian,3,115,guess,win,5,left,15,guess_outcome,0,undefined,0,0,65,437690,1516021
40,24,male,Belgian,3,115,ITC,win,5,left,15,ITC_start,1036,space,0,0,65,436652,1517059
40,24,male,Belgian,3,115,ITC,win,5,left,15,ITC_choice,808,f,0,0,65,435843,1517868
40,24,male,Belgian,3,115,ITC,win,5,left,15,ITC_wait,0,undefined,0,0,65,430830,1522881
40,24,male,Belgian,3,115,ITC,win,5,left,15,ITC_collect,6720,k,0,0,65,424109,1529602
40,24,male,Belgian,3,115,ITC,win,5,left,15,ITC_outcome,0,undefined,0,0,85,423091,1530620
40,24,male,Belgian,3,116,guess,neutral,5,right,12,guess_start,348,space,0,0,85,422740,1530971
40,24,male,Belgian,3,116,guess,neutral,5,right,12,guess_choice,900,f,0,0,85,421836,1531875
40,24,male,Belgian,3,116,guess,neutral,5,right,12,guess_outcome,0,undefined,0,0,85,420270,1533441
40,24,male,Belgian,3,116,ITC,neutral,5,right,12,ITC_start,458,space,0,0,85,419812,1533899
40,24,male,Belgian,3,116,ITC,neutral,5,right,12,ITC_choice,991,j,0,0,85,418819,1534892
40,24,male,Belgian,3,116,ITC,neutral,5,right,12,ITC_wait,0,undefined,0,0,85,413811,1539900
40,24,male,Belgian,3,116,ITC,neutral,5,right,12,ITC_collect,710,k,0,0,85,413099,1540612
40,24,male,Belgian,3,116,ITC,neutral,5,right,12,ITC_outcome,0,undefined,0,0,105,412090,1541621
40,24,male,Belgian,3,117,guess,loss,10,left,7,guess_start,476,space,0,0,105,411612,1542099
40,24,male,Belgian,3,117,guess,loss,10,left,7,guess_choice,814,j,0,0,105,410795,1542916
40,24,male,Belgian,3,117,guess,loss,10,left,7,guess_outcome,0,undefined,0,0,90,409230,1544481
40,24,male,Belgian,3,117,ITC,loss,10,left,7,ITC_start,330,space,0,0,90,408899,1544812
40,24,male,Belgian,3,117,ITC,loss,10,left,7,ITC_choice,1015,f,0,0,90,407884,1545827
40,24,male,Belgian,3,117,ITC,loss,10,left,7,ITC_wait,0,undefined,0,0,90,397870,1555841
40,24,male,Belgian,3,117,ITC,loss,10,left,7,ITC_collect,704,k,0,0,90,397164,1556547
40,24,male,Belgian,3,117,ITC,loss,10,left,7,ITC_outcome,0,undefined,0,0,110,396160,1557551
40,24,male,Belgian,3,118,guess,win,10,right,8,guess_start,339,space,0,0,110,395819,1557892
40,24,male,Belgian,3,118,guess,win,10,right,8,guess_choice,1157,j,0,0,110,394659,1559052
40,24,male,Belgian,3,118,guess,win,10,right,8,guess_outcome,0,undefined,0,0,130,393099,1560612
40,24,male,Belgian,3,118,ITC,win,10,right,8,ITC_start,423,space,0,0,130,392676,1561035
40,24,male,Belgian,3,118,ITC,win,10,right,8,ITC_choice,2944,j,0,0,130,389731,1563980
40,24,male,Belgian,3,118,ITC,win,10,right,8,ITC_wait,0,undefined,0,0,130,379710,1574001
40,24,male,Belgian,3,118,ITC,win,10,right,8,ITC_collect,592,k,0,0,130,379116,1574595
40,24,male,Belgian,3,118,ITC,win,10,right,8,ITC_outcome,0,undefined,0,0,150,378109,1575602
40,24,male,Belgian,3,119,guess,win,5,right,9,guess_start,449,space,0,0,150,377659,1576052
40,24,male,Belgian,3,119,guess,win,5,right,9,guess_choice,838,j,0,0,150,376819,1576892
40,24,male,Belgian,3,119,guess,win,5,right,9,guess_outcome,0,undefined,0,0,170,375250,1578461
40,24,male,Belgian,3,119,ITC,win,5,right,9,ITC_start,397,space,0,0,170,374851,1578860
40,24,male,Belgian,3,119,ITC,win,5,right,9,ITC_choice,1246,j,0,0,170,373603,1580108
40,24,male,Belgian,3,119,ITC,win,5,right,9,ITC_wait,0,undefined,0,0,170,368600,1585111
40,24,male,Belgian,3,119,ITC,win,5,right,9,ITC_collect,1020,k,0,0,170,367579,1586132
40,24,male,Belgian,3,119,ITC,win,5,right,9,ITC_outcome,0,undefined,0,0,190,366560,1587151
40,24,male,Belgian,3,120,guess,loss,5,right,3,guess_start,483,space,0,0,190,366076,1587635
40,24,male,Belgian,3,120,guess,loss,5,right,3,guess_choice,807,j,0,0,190,365267,1588444
40,24,male,Belgian,3,120,guess,loss,5,right,3,guess_outcome,0,undefined,0,0,175,363699,1590012
40,24,male,Belgian,3,120,ITC,loss,5,right,3,ITC_start,310,space,0,0,175,363388,1590323
40,24,male,Belgian,3,120,ITC,loss,5,right,3,ITC_choice,1296,j,0,0,175,362091,1591620
40,24,male,Belgian,3,120,ITC,loss,5,right,3,ITC_wait,0,undefined,0,0,175,357080,1596631
40,24,male,Belgian,3,120,ITC,loss,5,right,3,ITC_collect,908,k,0,0,175,356171,1597540
40,24,male,Belgian,3,120,ITC,loss,5,right,3,ITC_outcome,0,undefined,0,0,195,355160,1598551
40,24,male,Belgian,3,121,guess,loss,5,left,11,guess_start,443,space,0,0,195,354715,1598996
40,24,male,Belgian,3,121,guess,loss,5,left,11,guess_choice,1037,f,0,0,195,353676,1600035
40,24,male,Belgian,3,121,guess,loss,5,left,11,guess_outcome,0,undefined,0,0,180,352120,1601591
40,24,male,Belgian,3,121,ITC,loss,5,left,11,ITC_start,290,space,0,0,180,351827,1601884
40,24,male,Belgian,3,121,ITC,loss,5,left,11,ITC_choice,2414,f,0,0,180,349411,1604300
40,24,male,Belgian,3,121,ITC,loss,5,left,11,ITC_wait,0,undefined,0,0,180,344410,1609301
40,24,male,Belgian,3,121,ITC,loss,5,left,11,ITC_collect,709,k,0,0,180,343699,1610012
40,24,male,Belgian,3,121,ITC,loss,5,left,11,ITC_outcome,0,undefined,0,0,200,342689,1611022
40,24,male,Belgian,3,122,guess,loss,5,right,16,guess_start,236,space,0,0,200,342451,1611260
40,24,male,Belgian,3,122,guess,loss,5,right,16,guess_choice,717,j,0,0,200,341731,1611980
40,24,male,Belgian,3,122,guess,loss,5,right,16,guess_outcome,0,undefined,0,0,185,340170,1613541
40,24,male,Belgian,3,122,ITC,loss,5,right,16,ITC_start,653,space,0,0,185,339516,1614195
40,24,male,Belgian,3,122,ITC,loss,5,right,16,ITC_choice,1230,j,0,0,185,338284,1615427
40,24,male,Belgian,3,122,ITC,loss,5,right,16,ITC_wait,0,undefined,0,0,185,333269,1620442
40,24,male,Belgian,3,122,ITC,loss,5,right,16,ITC_collect,720,k,0,0,185,332547,1621164
40,24,male,Belgian,3,122,ITC,loss,5,right,16,ITC_outcome,0,undefined,0,0,205,331530,1622181
40,24,male,Belgian,3,123,guess,win,10,left,1,guess_start,605,space,0,0,205,330923,1622788
40,24,male,Belgian,3,123,guess,win,10,left,1,guess_choice,742,j,0,0,205,330179,1623532
40,24,male,Belgian,3,123,guess,win,10,left,1,guess_outcome,0,undefined,0,0,225,328610,1625101
40,24,male,Belgian,3,123,ITC,win,10,left,1,ITC_start,340,space,0,0,225,328267,1625444
40,24,male,Belgian,3,123,ITC,win,10,left,1,ITC_choice,1855,f,0,0,225,326411,1627300
40,24,male,Belgian,3,123,ITC,win,10,left,1,ITC_wait,0,undefined,0,0,225,316410,1637301
40,24,male,Belgian,3,123,ITC,win,10,left,1,ITC_collect,398,k,0,0,225,316011,1637700
40,24,male,Belgian,3,123,ITC,win,10,left,1,ITC_outcome,0,undefined,0,0,245,314989,1638722
40,24,male,Belgian,3,124,guess,win,5,right,8,guess_start,321,space,0,0,245,314666,1639045
40,24,male,Belgian,3,124,guess,win,5,right,8,guess_choice,708,j,0,0,245,313955,1639756
40,24,male,Belgian,3,124,guess,win,5,right,8,guess_outcome,0,undefined,0,0,265,312389,1641322
40,24,male,Belgian,3,124,ITC,win,5,right,8,ITC_start,680,space,0,0,265,311708,1642003
40,24,male,Belgian,3,124,ITC,win,5,right,8,ITC_choice,2391,f,0,0,265,309315,1644396
40,24,male,Belgian,3,124,ITC,win,5,right,8,ITC_wait,0,undefined,0,0,265,309313,1644398
40,24,male,Belgian,3,124,ITC,win,5,right,8,ITC_collect,789,k,0,0,265,308523,1645188
40,24,male,Belgian,3,124,ITC,win,5,right,8,ITC_outcome,0,undefined,0,0,273,307519,1646192
40,24,male,Belgian,3,125,guess,win,5,left,13,guess_start,337,space,0,0,273,307180,1646531
40,24,male,Belgian,3,125,guess,win,5,left,13,guess_choice,757,j,0,0,273,306418,1647293
40,24,male,Belgian,3,125,guess,win,5,left,13,guess_outcome,0,undefined,0,0,293,304859,1648852
40,24,male,Belgian,3,125,ITC,win,5,left,13,ITC_start,534,space,0,0,293,304323,1649388
40,24,male,Belgian,3,125,ITC,win,5,left,13,ITC_choice,1104,j,0,0,293,303219,1650492
40,24,male,Belgian,3,125,ITC,win,5,left,13,ITC_wait,0,undefined,0,0,293,303217,1650494
40,24,male,Belgian,3,125,ITC,win,5,left,13,ITC_collect,964,k,0,0,293,302251,1651460
40,24,male,Belgian,3,125,ITC,win,5,left,13,ITC_outcome,0,undefined,0,0,306,301239,1652472
40,24,male,Belgian,3,126,guess,neutral,5,right,11,guess_start,321,space,0,0,306,300916,1652795
40,24,male,Belgian,3,126,guess,neutral,5,right,11,guess_choice,878,f,0,0,306,300034,1653677
40,24,male,Belgian,3,126,guess,neutral,5,right,11,guess_outcome,0,undefined,0,0,306,298480,1655231
40,24,male,Belgian,3,126,ITC,neutral,5,right,11,ITC_start,411,space,0,0,306,298067,1655644
40,24,male,Belgian,3,126,ITC,neutral,5,right,11,ITC_choice,1390,f,0,0,306,296676,1657035
40,24,male,Belgian,3,126,ITC,neutral,5,right,11,ITC_wait,0,undefined,0,0,306,296673,1657038
40,24,male,Belgian,3,126,ITC,neutral,5,right,11,ITC_collect,677,k,0,0,306,295996,1657715
40,24,male,Belgian,3,126,ITC,neutral,5,right,11,ITC_outcome,0,undefined,0,0,317,294979,1658732
40,24,male,Belgian,3,127,guess,win,5,right,12,guess_start,462,space,0,0,317,294515,1659196
40,24,male,Belgian,3,127,guess,win,5,right,12,guess_choice,764,j,0,0,317,293748,1659963
40,24,male,Belgian,3,127,guess,win,5,right,12,guess_outcome,0,undefined,0,0,337,292179,1661532
40,24,male,Belgian,3,127,ITC,win,5,right,12,ITC_start,375,space,0,0,337,291802,1661909
40,24,male,Belgian,3,127,ITC,win,5,right,12,ITC_choice,1720,f,0,0,337,290082,1663629
40,24,male,Belgian,3,127,ITC,win,5,right,12,ITC_wait,0,undefined,0,0,337,290080,1663631
40,24,male,Belgian,3,127,ITC,win,5,right,12,ITC_collect,852,k,0,0,337,289228,1664483
40,24,male,Belgian,3,127,ITC,win,5,right,12,ITC_outcome,0,undefined,0,0,349,288219,1665492
40,24,male,Belgian,3,128,guess,win,5,right,10,guess_start,319,space,0,0,349,287899,1665812
40,24,male,Belgian,3,128,guess,win,5,right,10,guess_choice,893,f,0,0,349,287002,1666709
40,24,male,Belgian,3,128,guess,win,5,right,10,guess_outcome,0,undefined,0,0,369,285439,1668272
40,24,male,Belgian,3,128,ITC,win,5,right,10,ITC_start,330,space,0,0,369,285107,1668604
40,24,male,Belgian,3,128,ITC,win,5,right,10,ITC_wait,0,undefined,0,0,369,283281,1670430
40,24,male,Belgian,3,128,ITC,win,5,right,10,ITC_choice,1823,f,0,0,369,283282,1670429
40,24,male,Belgian,3,128,ITC,win,5,right,10,ITC_collect,748,k,0,0,369,282531,1671180
40,24,male,Belgian,3,128,ITC,win,5,right,10,ITC_outcome,0,undefined,0,0,379,281519,1672192
40,24,male,Belgian,3,129,guess,win,5,right,1,guess_start,290,space,0,0,379,281227,1672484
40,24,male,Belgian,3,129,guess,win,5,right,1,guess_choice,775,j,0,0,379,280450,1673261
40,24,male,Belgian,3,129,guess,win,5,right,1,guess_outcome,0,undefined,0,0,399,278880,1674831
40,24,male,Belgian,3,129,ITC,win,5,right,1,ITC_start,284,space,0,0,399,278595,1675116
40,24,male,Belgian,3,129,ITC,win,5,right,1,ITC_choice,2143,j,0,0,399,276450,1677261
40,24,male,Belgian,3,129,ITC,win,5,right,1,ITC_wait,0,undefined,0,0,399,271430,1682281
40,24,male,Belgian,3,129,ITC,win,5,right,1,ITC_collect,626,k,0,0,399,270803,1682908
40,24,male,Belgian,3,129,ITC,win,5,right,1,ITC_outcome,0,undefined,0,0,419,269799,1683912
40,24,male,Belgian,3,130,guess,loss,5,left,7,guess_start,370,space,0,0,419,269427,1684284
40,24,male,Belgian,3,130,guess,loss,5,left,7,guess_choice,710,j,0,0,419,268716,1684995
40,24,male,Belgian,3,130,guess,loss,5,left,7,guess_outcome,0,undefined,0,0,404,267160,1686551
40,24,male,Belgian,3,130,ITC,loss,5,left,7,ITC_start,291,space,0,0,404,266867,1686844
40,24,male,Belgian,3,130,ITC,loss,5,left,7,ITC_choice,1784,j,0,0,404,265082,1688629
40,24,male,Belgian,3,130,ITC,loss,5,left,7,ITC_wait,0,undefined,0,0,404,265080,1688631
40,24,male,Belgian,3,130,ITC,loss,5,left,7,ITC_collect,763,k,0,0,404,264315,1689396
40,24,male,Belgian,3,130,ITC,loss,5,left,7,ITC_outcome,0,undefined,0,0,411,263310,1690401
40,24,male,Belgian,3,131,guess,neutral,5,right,14,guess_start,288,space,0,0,411,263018,1690693
40,24,male,Belgian,3,131,guess,neutral,5,right,14,guess_choice,685,j,0,0,411,262331,1691380
40,24,male,Belgian,3,131,guess,neutral,5,right,14,guess_outcome,0,undefined,0,0,411,260769,1692942
40,24,male,Belgian,3,131,ITC,neutral,5,right,14,ITC_start,269,space,0,0,411,260498,1693213
40,24,male,Belgian,3,131,ITC,neutral,5,right,14,ITC_choice,1518,f,0,0,411,258978,1694733
40,24,male,Belgian,3,131,ITC,neutral,5,right,14,ITC_wait,0,undefined,0,0,411,258977,1694734
40,24,male,Belgian,3,131,ITC,neutral,5,right,14,ITC_collect,548,k,0,0,411,258427,1695284
40,24,male,Belgian,3,131,ITC,neutral,5,right,14,ITC_outcome,0,undefined,0,0,425,257410,1696301
40,24,male,Belgian,3,132,guess,loss,5,left,5,guess_start,300,space,0,0,425,257107,1696604
40,24,male,Belgian,3,132,guess,loss,5,left,5,guess_choice,677,j,0,0,425,256427,1697284
40,24,male,Belgian,3,132,guess,loss,5,left,5,guess_outcome,0,undefined,0,0,410,254869,1698842
40,24,male,Belgian,3,132,ITC,loss,5,left,5,ITC_start,272,space,0,0,410,254595,1699116
40,24,male,Belgian,3,132,ITC,loss,5,left,5,ITC_choice,1479,f,0,0,410,253115,1700596
40,24,male,Belgian,3,132,ITC,loss,5,left,5,ITC_wait,0,undefined,0,0,410,248109,1705602
40,24,male,Belgian,3,132,ITC,loss,5,left,5,ITC_collect,737,k,0,0,410,247370,1706341
40,24,male,Belgian,3,132,ITC,loss,5,left,5,ITC_outcome,0,undefined,0,0,430,246349,1707362
40,24,male,Belgian,3,133,guess,win,10,right,5,guess_start,354,space,0,0,430,245994,1707717
40,24,male,Belgian,3,133,guess,win,10,right,5,guess_choice,597,j,0,0,430,245394,1708317
40,24,male,Belgian,3,133,guess,win,10,right,5,guess_outcome,0,undefined,0,0,450,243829,1709882
40,24,male,Belgian,3,133,ITC,win,10,right,5,ITC_start,296,space,0,0,450,243531,1710180
40,24,male,Belgian,3,133,ITC,win,10,right,5,ITC_choice,1903,f,0,0,450,241628,1712083
40,24,male,Belgian,3,133,ITC,win,10,right,5,ITC_wait,0,undefined,0,0,450,241626,1712085
40,24,male,Belgian,3,133,ITC,win,10,right,5,ITC_collect,493,k,0,0,450,241131,1712580
40,24,male,Belgian,3,133,ITC,win,10,right,5,ITC_outcome,0,undefined,0,0,455,240109,1713602
40,24,male,Belgian,3,134,guess,loss,5,left,15,guess_start,288,space,0,0,455,239818,1713893
40,24,male,Belgian,3,134,guess,loss,5,left,15,guess_choice,678,j,0,0,455,239138,1714573
40,24,male,Belgian,3,134,guess,loss,5,left,15,guess_outcome,0,undefined,0,0,440,237569,1716142
40,24,male,Belgian,3,134,ITC,loss,5,left,15,ITC_start,325,space,0,0,440,237243,1716468
40,24,male,Belgian,3,134,ITC,loss,5,left,15,ITC_wait,0,undefined,0,0,440,236136,1717575
40,24,male,Belgian,3,134,ITC,loss,5,left,15,ITC_choice,1103,j,0,0,440,236138,1717573
40,24,male,Belgian,3,134,ITC,loss,5,left,15,ITC_collect,654,k,0,0,440,235482,1718229
40,24,male,Belgian,3,134,ITC,loss,5,left,15,ITC_outcome,0,undefined,0,0,455,234469,1719242
40,24,male,Belgian,3,135,guess,loss,5,right,2,guess_start,280,space,0,0,455,234187,1719524
40,24,male,Belgian,3,135,guess,loss,5,right,2,guess_choice,623,j,0,0,455,233562,1720149
40,24,male,Belgian,3,135,guess,loss,5,right,2,guess_outcome,0,undefined,0,0,440,232009,1721702
40,24,male,Belgian,3,135,ITC,loss,5,right,2,ITC_start,340,space,0,0,440,231667,1722044
40,24,male,Belgian,3,135,ITC,loss,5,right,2,ITC_choice,1950,j,0,0,440,229716,1723995
40,24,male,Belgian,3,135,ITC,loss,5,right,2,ITC_wait,0,undefined,0,0,440,224710,1729001
40,24,male,Belgian,3,135,ITC,loss,5,right,2,ITC_collect,800,k,0,0,440,223907,1729804
40,24,male,Belgian,3,135,ITC,loss,5,right,2,ITC_outcome,0,undefined,0,0,460,222889,1730822
40,24,male,Belgian,3,136,guess,win,10,left,4,guess_start,325,space,0,0,460,222562,1731149
40,24,male,Belgian,3,136,guess,win,10,left,4,guess_choice,717,j,0,0,460,221842,1731869
40,24,male,Belgian,3,136,guess,win,10,left,4,guess_outcome,0,undefined,0,0,480,220288,1733423
40,24,male,Belgian,3,136,ITC,win,10,left,4,ITC_start,356,space,0,0,480,219931,1733780
40,24,male,Belgian,3,136,ITC,win,10,left,4,ITC_choice,1448,f,0,0,480,218481,1735230
40,24,male,Belgian,3,136,ITC,win,10,left,4,ITC_wait,0,undefined,0,0,480,208469,1745242
40,24,male,Belgian,3,136,ITC,win,10,left,4,ITC_collect,2178,k,0,0,480,206289,1747422
40,24,male,Belgian,3,136,ITC,win,10,left,4,ITC_outcome,0,undefined,0,0,500,205269,1748442
40,24,male,Belgian,3,137,guess,loss,5,left,1,guess_start,2417,space,0,0,500,202851,1750860
40,24,male,Belgian,3,137,guess,loss,5,left,1,guess_choice,1654,j,0,0,500,201194,1752517
40,24,male,Belgian,3,137,guess,loss,5,left,1,guess_outcome,0,undefined,0,0,485,199639,1754072
40,24,male,Belgian,3,137,ITC,loss,5,left,1,ITC_start,16723,space,0,0,485,182914,1770797
40,24,male,Belgian,3,137,ITC,loss,5,left,1,ITC_choice,2118,f,0,0,485,180795,1772916
40,24,male,Belgian,3,137,ITC,loss,5,left,1,ITC_wait,0,undefined,0,0,485,175778,1777933
40,24,male,Belgian,3,137,ITC,loss,5,left,1,ITC_collect,1070,k,0,0,485,174706,1779005
40,24,male,Belgian,3,137,ITC,loss,5,left,1,ITC_outcome,0,undefined,0,0,505,173698,1780013
40,24,male,Belgian,3,138,guess,win,5,right,4,guess_start,415,space,0,0,505,173282,1780429
40,24,male,Belgian,3,138,guess,win,5,right,4,guess_choice,636,j,0,0,505,172643,1781068
40,24,male,Belgian,3,138,guess,win,5,right,4,guess_outcome,0,undefined,0,0,525,171078,1782633
40,24,male,Belgian,3,138,ITC,win,5,right,4,ITC_start,299,space,0,0,525,170779,1782932
40,24,male,Belgian,3,138,ITC,win,5,right,4,ITC_choice,1584,f,0,0,525,169194,1784517
40,24,male,Belgian,3,138,ITC,win,5,right,4,ITC_wait,0,undefined,0,0,525,169192,1784519
40,24,male,Belgian,3,138,ITC,win,5,right,4,ITC_collect,395,k,0,0,525,168795,1784916
40,24,male,Belgian,3,138,ITC,win,5,right,4,ITC_outcome,0,undefined,0,0,529,167779,1785932
40,24,male,Belgian,3,139,guess,neutral,5,left,8,guess_start,247,space,0,0,529,167531,1786180
40,24,male,Belgian,3,139,guess,neutral,5,left,8,guess_choice,630,j,0,0,529,166898,1786813
40,24,male,Belgian,3,139,guess,neutral,5,left,8,guess_outcome,0,undefined,0,0,529,165338,1788373
40,24,male,Belgian,3,139,ITC,neutral,5,left,8,ITC_start,294,space,0,0,529,165042,1788669
40,24,male,Belgian,3,139,ITC,neutral,5,left,8,ITC_wait,0,undefined,0,0,529,164120,1789591
40,24,male,Belgian,3,139,ITC,neutral,5,left,8,ITC_choice,919,j,0,0,529,164121,1789590
40,24,male,Belgian,3,139,ITC,neutral,5,left,8,ITC_collect,356,k,0,0,529,163763,1789948
40,24,male,Belgian,3,139,ITC,neutral,5,left,8,ITC_outcome,0,undefined,0,0,537,162758,1790953
40,24,male,Belgian,3,140,guess,loss,5,left,4,guess_start,275,space,0,0,537,162482,1791229
40,24,male,Belgian,3,140,guess,loss,5,left,4,guess_choice,828,f,0,0,537,161649,1792062
40,24,male,Belgian,3,140,guess,loss,5,left,4,guess_outcome,0,undefined,0,0,522,160079,1793632
40,24,male,Belgian,3,140,ITC,loss,5,left,4,ITC_start,291,space,0,0,522,159787,1793924
40,24,male,Belgian,3,140,ITC,loss,5,left,4,ITC_choice,2536,f,0,0,522,157250,1796461
40,24,male,Belgian,3,140,ITC,loss,5,left,4,ITC_wait,0,undefined,0,0,522,152238,1801473
40,24,male,Belgian,3,140,ITC,loss,5,left,4,ITC_collect,716,k,0,0,522,151521,1802190
40,24,male,Belgian,3,140,ITC,loss,5,left,4,ITC_outcome,0,undefined,0,0,542,150518,1803193
40,24,male,Belgian,3,141,guess,neutral,5,left,9,guess_start,275,space,0,0,542,150241,1803470
40,24,male,Belgian,3,141,guess,neutral,5,left,9,guess_choice,908,f,0,0,542,149331,1804380
40,24,male,Belgian,3,141,guess,neutral,5,left,9,guess_outcome,0,undefined,0,0,542,147758,1805953
40,24,male,Belgian,3,141,ITC,neutral,5,left,9,ITC_start,363,space,0,0,542,147394,1806317
40,24,male,Belgian,3,141,ITC,neutral,5,left,9,ITC_choice,887,j,0,0,542,146506,1807205
40,24,male,Belgian,3,141,ITC,neutral,5,left,9,ITC_wait,0,undefined,0,0,542,146504,1807207
40,24,male,Belgian,3,141,ITC,neutral,5,left,9,ITC_collect,285,k,0,0,542,146218,1807493
40,24,male,Belgian,3,141,ITC,neutral,5,left,9,ITC_outcome,0,undefined,0,0,551,145198,1808513
40,24,male,Belgian,3,142,guess,neutral,10,right,4,guess_start,260,space,0,0,551,144938,1808773
40,24,male,Belgian,3,142,guess,neutral,10,right,4,guess_choice,821,f,0,0,551,144115,1809596
40,24,male,Belgian,3,142,guess,neutral,10,right,4,guess_outcome,0,undefined,0,0,551,142558,1811153
40,24,male,Belgian,3,142,ITC,neutral,10,right,4,ITC_start,275,space,0,0,551,142282,1811429
40,24,male,Belgian,3,142,ITC,neutral,10,right,4,ITC_choice,1542,f,0,0,551,140737,1812974
40,24,male,Belgian,3,142,ITC,neutral,10,right,4,ITC_wait,0,undefined,0,0,551,140735,1812976
40,24,male,Belgian,3,142,ITC,neutral,10,right,4,ITC_collect,379,k,0,0,551,140354,1813357
40,24,male,Belgian,3,142,ITC,neutral,10,right,4,ITC_outcome,0,undefined,0,0,555,139339,1814372
40,24,male,Belgian,3,143,guess,neutral,10,right,8,guess_start,288,space,0,0,555,139049,1814662
