subjectID,age,gender,nationality,block_number,trial_number,trial_type,guess_outcome,delay_time,delay_pos,immediate_amount,stage,respRT,respKey,blur_count,focus_count,total_points,remaining_duration,time_elapsed
42,18,male,Belg,1,1,guess,neutral,10,right,2,guess_start,2322,space,0,0,0,477676,277486
42,18,male,Belg,1,1,guess,neutral,10,right,2,guess_choice,2601,j,0,0,0,475069,280093
42,18,male,Belg,1,1,guess,neutral,10,right,2,guess_outcome,0,undefined,0,0,0,473502,281660
42,18,male,Belg,1,1,ITC,neutral,10,right,2,ITC_start,4698,space,0,0,0,468800,286362
42,18,male,Belg,1,1,ITC,neutral,10,right,2,ITC_choice,4497,j,0,0,0,464300,290862
42,18,male,Belg,1,1,ITC,neutral,10,right,2,ITC_wait,0,undefined,0,0,0,454296,300866
42,18,male,Belg,1,1,ITC,neutral,10,right,2,ITC_collect,1413,k,0,0,0,452881,302281
42,18,male,Belg,1,1,ITC,neutral,10,right,2,ITC_outcome,0,undefined,0,0,20,451866,303296
42,18,male,Belg,1,2,guess,win,5,left,1,guess_start,3513,space,0,0,20,448348,306814
42,18,male,Belg,1,2,guess,win,5,left,1,guess_choice,2235,f,0,0,20,446108,309054
42,18,male,Belg,1,2,guess,win,5,left,1,guess_outcome,0,undefined,0,0,40,444549,310613
42,18,male,Belg,1,2,ITC,win,5,left,1,ITC_start,2330,space,0,0,40,442217,312945
42,18,male,Belg,1,2,ITC,win,5,left,1,ITC_choice,3948,f,0,0,40,438267,316895
42,18,male,Belg,1,2,ITC,win,5,left,1,ITC_wait,0,undefined,0,0,40,433258,321904
42,18,male,Belg,1,2,ITC,win,5,left,1,ITC_collect,2850,k,0,0,40,430405,324757
42,18,male,Belg,1,2,ITC,win,5,left,1,ITC_outcome,0,undefined,0,0,60,429397,325765
42,18,male,Belg,1,3,guess,loss,5,left,2,guess_start,3687,space,0,0,60,425707,329455
42,18,male,Belg,1,3,guess,loss,5,left,2,guess_choice,1232,j,0,0,60,424470,330692
42,18,male,Belg,1,3,guess,loss,5,left,2,guess_outcome,0,undefined,0,0,45,422909,332253
42,18,male,Belg,1,3,ITC,loss,5,left,2,ITC_start,1128,space,0,0,45,421779,333383
42,18,male,Belg,1,3,ITC,loss,5,left,2,ITC_choice,2678,f,0,0,45,419099,336063
42,18,male,Belg,1,3,ITC,loss,5,left,2,ITC_wait,0,undefined,0,0,45,414087,341075
42,18,male,Belg,1,3,ITC,loss,5,left,2,ITC_collect,563,k,0,0,45,413522,341640
42,18,male,Belg,1,3,ITC,loss,5,left,2,ITC_outcome,0,undefined,0,0,65,412513,342649
42,18,male,Belg,1,4,guess,loss,10,left,6,guess_start,1300,space,0,0,65,411210,343952
42,18,male,Belg,1,4,guess,loss,10,left,6,guess_choice,1227,j,0,0,65,409979,345183
42,18,male,Belg,1,4,guess,loss,10,left,6,guess_outcome,0,undefined,0,0,50,408422,346740
42,18,male,Belg,1,4,ITC,loss,10,left,6,ITC_start,1380,space,0,0,50,407039,348123
42,18,male,Belg,1,4,ITC,loss,10,left,6,ITC_choice,2635,j,0,0,50,404402,350760
42,18,male,Belg,1,4,ITC,loss,10,left,6,ITC_wait,0,undefined,0,0,50,404399,350763
42,18,male,Belg,1,4,ITC,loss,10,left,6,ITC_collect,657,k,0,0,50,403738,351424
42,18,male,Belg,1,4,ITC,loss,10,left,6,ITC_outcome,0,undefined,0,0,56,402731,352431
42,18,male,Belg,1,5,guess,loss,10,right,7,guess_start,715,space,0,0,56,402014,353148
42,18,male,Belg,1,5,guess,loss,10,right,7,guess_choice,1068,f,0,0,56,400942,354220
42,18,male,Belg,1,5,guess,loss,10,right,7,guess_outcome,0,undefined,0,0,41,399376,355786
42,18,male,Belg,1,5,ITC,loss,10,right,7,ITC_start,731,space,0,0,41,398636,356526
42,18,male,Belg,1,5,ITC,loss,10,right,7,ITC_choice,2558,f,0,0,41,396076,359086
42,18,male,Belg,1,5,ITC,loss,10,right,7,ITC_wait,0,undefined,0,0,41,396072,359090
42,18,male,Belg,1,5,ITC,loss,10,right,7,ITC_collect,752,k,0,0,41,395318,359844
42,18,male,Belg,1,5,ITC,loss,10,right,7,ITC_outcome,0,undefined,0,0,48,394304,360858
42,18,male,Belg,1,6,guess,win,5,left,14,guess_start,633,space,0,0,48,393668,361494
42,18,male,Belg,1,6,guess,win,5,left,14,guess_choice,1601,j,0,0,48,392063,363099
42,18,male,Belg,1,6,guess,win,5,left,14,guess_outcome,0,undefined,0,0,68,390497,364665
42,18,male,Belg,1,6,ITC,win,5,left,14,ITC_start,1201,space,0,0,68,389293,365869
42,18,male,Belg,1,6,ITC,win,5,left,14,ITC_choice,2351,j,0,0,68,386939,368223
42,18,male,Belg,1,6,ITC,win,5,left,14,ITC_wait,0,undefined,0,0,68,386936,368226
42,18,male,Belg,1,6,ITC,win,5,left,14,ITC_collect,468,k,0,0,68,386463,368699
42,18,male,Belg,1,6,ITC,win,5,left,14,ITC_outcome,0,undefined,0,0,82,385448,369714
42,18,male,Belg,1,7,guess,neutral,5,left,13,guess_start,587,space,0,0,82,384859,370303
42,18,male,Belg,1,7,guess,neutral,5,left,13,guess_choice,1921,f,0,0,82,382934,372228
42,18,male,Belg,1,7,guess,neutral,5,left,13,guess_outcome,0,undefined,0,0,82,381374,373788
42,18,male,Belg,1,7,ITC,neutral,5,left,13,ITC_start,812,space,0,0,82,380560,374602
42,18,male,Belg,1,7,ITC,neutral,5,left,13,ITC_choice,2798,j,0,0,82,377760,377402
42,18,male,Belg,1,7,ITC,neutral,5,left,13,ITC_wait,0,undefined,0,0,82,377755,377407
42,18,male,Belg,1,7,ITC,neutral,5,left,13,ITC_collect,883,k,0,0,82,376867,378295
42,18,male,Belg,1,7,ITC,neutral,5,left,13,ITC_outcome,0,undefined,0,0,95,375860,379302
42,18,male,Belg,1,8,guess,win,10,left,7,guess_start,3649,space,0,0,95,372209,382953
42,18,male,Belg,1,8,guess,win,10,left,7,guess_choice,1569,f,0,0,95,370636,384526
42,18,male,Belg,1,8,guess,win,10,left,7,guess_outcome,0,undefined,0,0,115,369073,386089
42,18,male,Belg,1,8,ITC,win,10,left,7,ITC_start,3634,space,0,0,115,365437,389725
42,18,male,Belg,1,8,ITC,win,10,left,7,ITC_choice,2475,f,0,0,115,362960,392202
42,18,male,Belg,1,8,ITC,win,10,left,7,ITC_wait,0,undefined,0,0,115,352945,402217
42,18,male,Belg,1,8,ITC,win,10,left,7,ITC_collect,2131,k,0,0,115,350812,404350
42,18,male,Belg,1,8,ITC,win,10,left,7,ITC_outcome,0,undefined,0,0,135,349806,405356
42,18,male,Belg,1,9,guess,neutral,5,right,11,guess_start,6710,space,0,0,135,343094,412068
42,18,male,Belg,1,9,guess,neutral,5,right,11,guess_choice,1157,f,0,0,135,341933,413229
42,18,male,Belg,1,9,guess,neutral,5,right,11,guess_outcome,0,undefined,0,0,135,340368,414794
42,18,male,Belg,1,9,ITC,neutral,5,right,11,ITC_start,413,space,0,0,135,339953,415209
42,18,male,Belg,1,9,ITC,neutral,5,right,11,ITC_choice,4169,j,0,0,135,335782,419380
42,18,male,Belg,1,9,ITC,neutral,5,right,11,ITC_wait,0,undefined,0,0,135,330775,424387
42,18,male,Belg,1,9,ITC,neutral,5,right,11,ITC_collect,1772,k,0,0,135,329001,426161
42,18,male,Belg,1,9,ITC,neutral,5,right,11,ITC_outcome,0,undefined,0,0,155,327997,427165
42,18,male,Belg,1,10,guess,win,10,right,2,guess_start,961,space,0,0,155,327035,428127
42,18,male,Belg,1,10,guess,win,10,right,2,guess_choice,1058,f,0,0,155,325972,429190
42,18,male,Belg,1,10,guess,win,10,right,2,guess_outcome,0,undefined,0,0,175,324410,430752
42,18,male,Belg,1,10,ITC,win,10,right,2,ITC_start,699,space,0,0,175,323710,431452
42,18,male,Belg,1,10,ITC,win,10,right,2,ITC_choice,3604,j,0,0,175,320103,435059
42,18,male,Belg,1,10,ITC,win,10,right,2,ITC_wait,0,undefined,0,0,175,310088,445074
42,18,male,Belg,1,10,ITC,win,10,right,2,ITC_collect,13953,k,0,0,175,296133,459029
42,18,male,Belg,1,10,ITC,win,10,right,2,ITC_outcome,0,undefined,0,0,195,295120,460042
42,18,male,Belg,1,11,guess,neutral,5,left,10,guess_start,2886,space,0,0,195,292231,462931
42,18,male,Belg,1,11,guess,neutral,5,left,10,guess_choice,1086,f,0,0,195,291140,464022
42,18,male,Belg,1,11,guess,neutral,5,left,10,guess_outcome,0,undefined,0,0,195,289575,465587
42,18,male,Belg,1,11,ITC,neutral,5,left,10,ITC_start,775,space,0,0,195,288790,466372
42,18,male,Belg,1,11,ITC,neutral,5,left,10,ITC_choice,1707,j,0,0,195,287081,468081
42,18,male,Belg,1,11,ITC,neutral,5,left,10,ITC_wait,0,undefined,0,0,195,287078,468084
42,18,male,Belg,1,11,ITC,neutral,5,left,10,ITC_collect,762,k,0,0,195,286312,468850
42,18,male,Belg,1,11,ITC,neutral,5,left,10,ITC_outcome,0,undefined,0,0,205,285297,469865
42,18,male,Belg,1,12,guess,neutral,10,right,8,guess_start,595,space,0,0,205,284699,470463
42,18,male,Belg,1,12,guess,neutral,10,right,8,guess_choice,706,f,0,0,205,283988,471174
42,18,male,Belg,1,12,guess,neutral,10,right,8,guess_outcome,0,undefined,0,0,205,282432,472730
42,18,male,Belg,1,12,ITC,neutral,10,right,8,ITC_start,794,space,0,0,205,281636,473526
42,18,male,Belg,1,12,ITC,neutral,10,right,8,ITC_choice,2365,f,0,0,205,279269,475893
42,18,male,Belg,1,12,ITC,neutral,10,right,8,ITC_wait,0,undefined,0,0,205,279265,475897
42,18,male,Belg,1,12,ITC,neutral,10,right,8,ITC_collect,767,k,0,0,205,278494,476668
42,18,male,Belg,1,12,ITC,neutral,10,right,8,ITC_outcome,0,undefined,0,0,213,277485,477677
42,18,male,Belg,1,13,guess,neutral,10,right,3,guess_start,580,space,0,0,213,276903,478259
42,18,male,Belg,1,13,guess,neutral,10,right,3,guess_choice,785,j,0,0,213,276114,479048
42,18,male,Belg,1,13,guess,neutral,10,right,3,guess_outcome,0,undefined,0,0,213,274545,480617
42,18,male,Belg,1,13,ITC,neutral,10,right,3,ITC_start,942,space,0,0,213,273602,481560
42,18,male,Belg,1,13,ITC,neutral,10,right,3,ITC_choice,2396,j,0,0,213,271204,483958
42,18,male,Belg,1,13,ITC,neutral,10,right,3,ITC_wait,0,undefined,0,0,213,261189,493973
42,18,male,Belg,1,13,ITC,neutral,10,right,3,ITC_collect,2572,k,0,0,213,258615,496547
42,18,male,Belg,1,13,ITC,neutral,10,right,3,ITC_outcome,0,undefined,0,0,233,257608,497554
42,18,male,Belg,1,14,guess,loss,5,right,13,guess_start,716,space,0,0,233,256889,498273
42,18,male,Belg,1,14,guess,loss,5,right,13,guess_choice,1184,f,0,0,233,255700,499462
42,18,male,Belg,1,14,guess,loss,5,right,13,guess_outcome,0,undefined,0,0,218,254129,501033
42,18,male,Belg,1,14,ITC,loss,5,right,13,ITC_start,565,space,0,0,218,253563,501599
42,18,male,Belg,1,14,ITC,loss,5,right,13,ITC_wait,0,undefined,0,0,218,252138,503024
42,18,male,Belg,1,14,ITC,loss,5,right,13,ITC_choice,1420,f,0,0,218,252142,503020
42,18,male,Belg,1,14,ITC,loss,5,right,13,ITC_collect,330,k,0,0,218,251805,503357
42,18,male,Belg,1,14,ITC,loss,5,right,13,ITC_outcome,0,undefined,0,0,231,250801,504361
42,18,male,Belg,1,15,guess,loss,5,right,1,guess_start,635,space,0,0,231,250164,504998
42,18,male,Belg,1,15,guess,loss,5,right,1,guess_choice,680,j,0,0,231,249480,505682
42,18,male,Belg,1,15,guess,loss,5,right,1,guess_outcome,0,undefined,0,0,216,247920,507242
42,18,male,Belg,1,15,ITC,loss,5,right,1,ITC_start,894,space,0,0,216,247023,508139
42,18,male,Belg,1,15,ITC,loss,5,right,1,ITC_choice,2613,j,0,0,216,244408,510754
42,18,male,Belg,1,15,ITC,loss,5,right,1,ITC_wait,0,undefined,0,0,216,239393,515769
42,18,male,Belg,1,15,ITC,loss,5,right,1,ITC_collect,376,k,0,0,216,239013,516149
42,18,male,Belg,1,15,ITC,loss,5,right,1,ITC_outcome,0,undefined,0,0,236,237996,517166
42,18,male,Belg,1,16,guess,neutral,10,left,4,guess_start,682,space,0,0,236,237312,517850
42,18,male,Belg,1,16,guess,neutral,10,left,4,guess_choice,707,f,0,0,236,236601,518561
42,18,male,Belg,1,16,guess,neutral,10,left,4,guess_outcome,0,undefined,0,0,236,235045,520117
42,18,male,Belg,1,16,ITC,neutral,10,left,4,ITC_start,551,space,0,0,236,234492,520670
42,18,male,Belg,1,16,ITC,neutral,10,left,4,ITC_choice,2301,f,0,0,236,232189,522973
42,18,male,Belg,1,16,ITC,neutral,10,left,4,ITC_wait,0,undefined,0,0,236,222182,532980
42,18,male,Belg,1,16,ITC,neutral,10,left,4,ITC_collect,1271,k,0,0,236,220908,534254
42,18,male,Belg,1,16,ITC,neutral,10,left,4,ITC_outcome,0,undefined,0,0,256,219904,535258
42,18,male,Belg,1,17,guess,loss,5,right,9,guess_start,2645,space,0,0,256,217257,537905
42,18,male,Belg,1,17,guess,loss,5,right,9,guess_choice,1659,j,0,0,256,215591,539571
42,18,male,Belg,1,17,guess,loss,5,right,9,guess_outcome,0,undefined,0,0,241,214033,541129
42,18,male,Belg,1,17,ITC,loss,5,right,9,ITC_start,991,space,0,0,241,213040,542122
42,18,male,Belg,1,17,ITC,loss,5,right,9,ITC_choice,1937,j,0,0,241,211101,544061
42,18,male,Belg,1,17,ITC,loss,5,right,9,ITC_wait,0,undefined,0,0,241,206087,549075
42,18,male,Belg,1,17,ITC,loss,5,right,9,ITC_collect,921,k,0,0,241,205164,549998
42,18,male,Belg,1,17,ITC,loss,5,right,9,ITC_outcome,0,undefined,0,0,261,204151,551011
42,18,male,Belg,1,18,guess,neutral,5,right,5,guess_start,2034,space,0,0,261,202114,553048
42,18,male,Belg,1,18,guess,neutral,5,right,5,guess_choice,1136,j,0,0,261,200974,554188
42,18,male,Belg,1,18,guess,neutral,5,right,5,guess_outcome,0,undefined,0,0,261,199412,555750
42,18,male,Belg,1,18,ITC,neutral,5,right,5,ITC_start,937,space,0,0,261,198474,556688
42,18,male,Belg,1,18,ITC,neutral,5,right,5,ITC_choice,2284,j,0,0,261,196188,558974
42,18,male,Belg,1,18,ITC,neutral,5,right,5,ITC_wait,0,undefined,0,0,261,191174,563988
42,18,male,Belg,1,18,ITC,neutral,5,right,5,ITC_collect,4114,k,0,0,261,187058,568104
42,18,male,Belg,1,18,ITC,neutral,5,right,5,ITC_outcome,0,undefined,0,0,281,186053,569109
42,18,male,Belg,1,19,guess,neutral,5,right,14,guess_start,1054,space,0,0,281,184997,570165
42,18,male,Belg,1,19,guess,neutral,5,right,14,guess_choice,804,j,0,0,281,184189,570973
42,18,male,Belg,1,19,guess,neutral,5,right,14,guess_outcome,0,undefined,0,0,281,182619,572543
42,18,male,Belg,1,19,ITC,neutral,5,right,14,ITC_start,742,space,0,0,281,181875,573287
42,18,male,Belg,1,19,ITC,neutral,5,right,14,ITC_choice,2076,j,0,0,281,179798,575364
42,18,male,Belg,1,19,ITC,neutral,5,right,14,ITC_wait,0,undefined,0,0,281,174787,580375
42,18,male,Belg,1,19,ITC,neutral,5,right,14,ITC_collect,328,k,0,0,281,174457,580705
42,18,male,Belg,1,19,ITC,neutral,5,right,14,ITC_outcome,0,undefined,0,0,301,173440,581722
42,18,male,Belg,1,20,guess,win,5,left,9,guess_start,702,space,0,0,301,172736,582426
42,18,male,Belg,1,20,guess,win,5,left,9,guess_choice,1519,f,0,0,301,171213,583949
42,18,male,Belg,1,20,guess,win,5,left,9,guess_outcome,0,undefined,0,0,321,169657,585505
42,18,male,Belg,1,20,ITC,win,5,left,9,ITC_start,910,space,0,0,321,168745,586417
42,18,male,Belg,1,20,ITC,win,5,left,9,ITC_choice,1435,f,0,0,321,167308,587854
42,18,male,Belg,1,20,ITC,win,5,left,9,ITC_wait,0,undefined,0,0,321,162301,592861
42,18,male,Belg,1,20,ITC,win,5,left,9,ITC_collect,892,k,0,0,321,161405,593757
42,18,male,Belg,1,20,ITC,win,5,left,9,ITC_outcome,0,undefined,0,0,341,160392,594770
42,18,male,Belg,1,21,guess,loss,5,right,10,guess_start,1345,space,0,0,341,159046,596116
42,18,male,Belg,1,21,guess,loss,5,right,10,guess_choice,867,j,0,0,341,158174,596988
42,18,male,Belg,1,21,guess,loss,5,right,10,guess_outcome,0,undefined,0,0,326,156609,598553
42,18,male,Belg,1,21,ITC,loss,5,right,10,ITC_start,912,space,0,0,326,155695,599467
42,18,male,Belg,1,21,ITC,loss,5,right,10,ITC_choice,1624,j,0,0,326,154068,601094
42,18,male,Belg,1,21,ITC,loss,5,right,10,ITC_wait,0,undefined,0,0,326,149050,606112
42,18,male,Belg,1,21,ITC,loss,5,right,10,ITC_collect,357,k,0,0,326,148691,606471
42,18,male,Belg,1,21,ITC,loss,5,right,10,ITC_outcome,0,undefined,0,0,346,147680,607482
42,18,male,Belg,1,22,guess,loss,5,right,11,guess_start,2308,space,0,0,346,145370,609792
42,18,male,Belg,1,22,guess,loss,5,right,11,guess_choice,1728,j,0,0,346,143637,611525
42,18,male,Belg,1,22,guess,loss,5,right,11,guess_outcome,0,undefined,0,0,331,142074,613088
42,18,male,Belg,1,22,ITC,loss,5,right,11,ITC_start,585,space,0,0,331,141488,613674
42,18,male,Belg,1,22,ITC,loss,5,right,11,ITC_choice,6565,j,0,0,331,134921,620241
42,18,male,Belg,1,22,ITC,loss,5,right,11,ITC_wait,0,undefined,0,0,331,129916,625246
42,18,male,Belg,1,22,ITC,loss,5,right,11,ITC_collect,532,k,0,0,331,129383,625779
42,18,male,Belg,1,22,ITC,loss,5,right,11,ITC_outcome,0,undefined,0,0,351,128376,626786
42,18,male,Belg,1,23,guess,loss,10,left,1,guess_start,665,space,0,0,351,127710,627452
42,18,male,Belg,1,23,guess,loss,10,left,1,guess_choice,458,f,0,0,351,127248,627914
42,18,male,Belg,1,23,guess,loss,10,left,1,guess_outcome,0,undefined,0,0,336,125681,629481
42,18,male,Belg,1,23,ITC,loss,10,left,1,ITC_start,781,space,0,0,336,124898,630264
42,18,male,Belg,1,23,ITC,loss,10,left,1,ITC_choice,3341,f,0,0,336,121555,633607
42,18,male,Belg,1,23,ITC,loss,10,left,1,ITC_wait,0,undefined,0,0,336,111543,643619
42,18,male,Belg,1,23,ITC,loss,10,left,1,ITC_collect,6115,k,0,0,336,105426,649736
42,18,male,Belg,1,23,ITC,loss,10,left,1,ITC_outcome,0,undefined,0,0,356,104413,650749
42,18,male,Belg,1,24,guess,win,10,right,1,guess_start,994,space,0,0,356,103415,651747
42,18,male,Belg,1,24,guess,win,10,right,1,guess_choice,1073,f,0,0,356,102338,652824
42,18,male,Belg,1,24,guess,win,10,right,1,guess_outcome,0,undefined,0,0,376,100773,654389
42,18,male,Belg,1,24,ITC,win,10,right,1,ITC_start,602,space,0,0,376,100169,654993
42,18,male,Belg,1,24,ITC,win,10,right,1,ITC_choice,1525,j,0,0,376,98642,656520
42,18,male,Belg,1,24,ITC,win,10,right,1,ITC_wait,0,undefined,0,0,376,88639,666523
42,18,male,Belg,1,24,ITC,win,10,right,1,ITC_collect,414,k,0,0,376,88223,666939
42,18,male,Belg,1,24,ITC,win,10,right,1,ITC_outcome,0,undefined,0,0,396,87206,667956
42,18,male,Belg,1,25,guess,win,5,left,3,guess_start,843,space,0,0,396,86361,668801
42,18,male,Belg,1,25,guess,win,5,left,3,guess_choice,1285,j,0,0,396,85070,670092
42,18,male,Belg,1,25,guess,win,5,left,3,guess_outcome,0,undefined,0,0,416,83503,671659
42,18,male,Belg,1,25,ITC,win,5,left,3,ITC_start,1432,space,0,0,416,82069,673093
42,18,male,Belg,1,25,ITC,win,5,left,3,ITC_choice,3611,f,0,0,416,78456,676706
42,18,male,Belg,1,25,ITC,win,5,left,3,ITC_wait,0,undefined,0,0,416,73453,681709
42,18,male,Belg,1,25,ITC,win,5,left,3,ITC_collect,1896,k,0,0,416,71555,683607
42,18,male,Belg,1,25,ITC,win,5,left,3,ITC_outcome,0,undefined,0,0,436,70550,684612
42,18,male,Belg,1,26,guess,win,10,left,8,guess_start,3066,space,0,0,436,67482,687680
42,18,male,Belg,1,26,guess,win,10,left,8,guess_choice,1480,f,0,0,436,65998,689164
42,18,male,Belg,1,26,guess,win,10,left,8,guess_outcome,0,undefined,0,0,456,64441,690721
42,18,male,Belg,1,26,ITC,win,10,left,8,ITC_start,3079,space,0,0,456,61359,693803
42,18,male,Belg,1,26,ITC,win,10,left,8,ITC_choice,1839,f,0,0,456,59518,695644
42,18,male,Belg,1,26,ITC,win,10,left,8,ITC_wait,0,undefined,0,0,456,49501,705661
42,18,male,Belg,1,26,ITC,win,10,left,8,ITC_collect,10187,k,0,0,456,39313,715849
42,18,male,Belg,1,26,ITC,win,10,left,8,ITC_outcome,0,undefined,0,0,476,38297,716865
42,18,male,Belg,1,27,guess,win,10,right,3,guess_start,13262,space,0,0,476,25032,730130
42,18,male,Belg,1,27,guess,win,10,right,3,guess_choice,1028,f,0,0,476,24001,731161
42,18,male,Belg,1,27,guess,win,10,right,3,guess_outcome,0,undefined,0,0,496,22432,732730
42,18,male,Belg,1,27,ITC,win,10,right,3,ITC_start,342,space,0,0,496,22088,733074
42,18,male,Belg,1,27,ITC,win,10,right,3,ITC_choice,1485,j,0,0,496,20602,734560
42,18,male,Belg,1,27,ITC,win,10,right,3,ITC_wait,0,undefined,0,0,496,10586,744576
42,18,male,Belg,1,27,ITC,win,10,right,3,ITC_collect,4018,k,0,0,496,6566,748596
42,18,male,Belg,1,27,ITC,win,10,right,3,ITC_outcome,0,undefined,0,0,516,5561,749601
42,18,male,Belg,1,28,guess,neutral,5,right,7,guess_start,1048,space,0,0,516,4510,750652
42,18,male,Belg,1,28,guess,neutral,5,right,7,guess_choice,858,f,0,0,516,3648,751514
42,18,male,Belg,1,28,guess,neutral,5,right,7,guess_outcome,0,undefined,0,0,516,2080,753082
42,18,male,Belg,1,28,ITC,neutral,5,right,7,ITC_start,357,space,0,0,516,1722,753440
42,18,male,Belg,1,28,ITC,neutral,5,right,7,ITC_choice,1420,j,0,0,516,300,754862
42,18,male,Belg,1,28,ITC,neutral,5,right,7,ITC_wait,0,undefined,0,0,516,-4,755166
42,18,male,Belg,2,29,guess,win,10,left,5,guess_start,3225,space,0,0,0,476774,772548
42,18,male,Belg,2,29,guess,win,10,left,5,guess_choice,909,f,0,0,0,475862,773460
42,18,male,Belg,2,29,guess,win,10,left,5,guess_outcome,0,undefined,0,0,20,474300,775022
42,18,male,Belg,2,29,ITC,win,10,left,5,ITC_start,1553,space,0,0,20,472745,776577
42,18,male,Belg,2,29,ITC,win,10,left,5,ITC_choice,1206,f,0,0,20,471537,777785
42,18,male,Belg,2,29,ITC,win,10,left,5,ITC_wait,0,undefined,0,0,20,461520,787802
42,18,male,Belg,2,29,ITC,win,10,left,5,ITC_collect,710,k,0,0,20,460808,788514
42,18,male,Belg,2,29,ITC,win,10,left,5,ITC_outcome,0,undefined,0,0,40,459792,789530
42,18,male,Belg,2,30,guess,loss,10,left,4,guess_start,678,space,0,0,40,459112,790210
42,18,male,Belg,2,30,guess,loss,10,left,4,guess_choice,657,j,0,0,40,458451,790871
42,18,male,Belg,2,30,guess,loss,10,left,4,guess_outcome,0,undefined,0,0,25,456893,792429
42,18,male,Belg,2,30,ITC,loss,10,left,4,ITC_start,527,space,0,0,25,456364,792958
42,18,male,Belg,2,30,ITC,loss,10,left,4,ITC_choice,1264,f,0,0,25,455098,794224
42,18,male,Belg,2,30,ITC,loss,10,left,4,ITC_wait,0,undefined,0,0,25,445086,804236
42,18,male,Belg,2,30,ITC,loss,10,left,4,ITC_collect,10518,k,0,0,25,434566,814756
42,18,male,Belg,2,30,ITC,loss,10,left,4,ITC_outcome,0,undefined,0,0,45,433552,815770
42,18,male,Belg,2,31,guess,neutral,5,right,6,guess_start,749,space,0,0,45,432788,816534
42,18,male,Belg,2,31,guess,neutral,5,right,6,guess_choice,760,j,0,0,45,432021,817301
42,18,male,Belg,2,31,guess,neutral,5,right,6,guess_outcome,0,undefined,0,0,45,430459,818863
42,18,male,Belg,2,31,ITC,neutral,5,right,6,ITC_start,885,space,0,0,45,429572,819750
42,18,male,Belg,2,31,ITC,neutral,5,right,6,ITC_choice,2124,j,0,0,45,427447,821875
42,18,male,Belg,2,31,ITC,neutral,5,right,6,ITC_wait,0,undefined,0,0,45,422437,826885
42,18,male,Belg,2,31,ITC,neutral,5,right,6,ITC_collect,593,k,0,0,45,421839,827483
42,18,male,Belg,2,31,ITC,neutral,5,right,6,ITC_outcome,0,undefined,0,0,65,420831,828491
42,18,male,Belg,2,32,guess,win,5,right,7,guess_start,1308,space,0,0,65,419521,829801
42,18,male,Belg,2,32,guess,win,5,right,7,guess_choice,813,f,0,0,65,418704,830618
42,18,male,Belg,2,32,guess,win,5,right,7,guess_outcome,0,undefined,0,0,85,417139,832183
42,18,male,Belg,2,32,ITC,win,5,right,7,ITC_start,1327,space,0,0,85,415811,833511
42,18,male,Belg,2,32,ITC,win,5,right,7,ITC_choice,1471,j,0,0,85,414339,834983
42,18,male,Belg,2,32,ITC,win,5,right,7,ITC_wait,0,undefined,0,0,85,409320,840002
42,18,male,Belg,2,32,ITC,win,5,right,7,ITC_collect,352,k,0,0,85,408966,840356
42,18,male,Belg,2,32,ITC,win,5,right,7,ITC_outcome,0,undefined,0,0,105,407949,841373
42,18,male,Belg,2,33,guess,neutral,5,right,16,guess_start,589,space,0,0,105,407357,841965
42,18,male,Belg,2,33,guess,neutral,5,right,16,guess_choice,561,j,0,0,105,406791,842531
42,18,male,Belg,2,33,guess,neutral,5,right,16,guess_outcome,0,undefined,0,0,105,405232,844090
42,18,male,Belg,2,33,ITC,neutral,5,right,16,ITC_start,489,space,0,0,105,404742,844580
42,18,male,Belg,2,33,ITC,neutral,5,right,16,ITC_choice,1494,f,0,0,105,403246,846076
42,18,male,Belg,2,33,ITC,neutral,5,right,16,ITC_wait,0,undefined,0,0,105,403243,846079
42,18,male,Belg,2,33,ITC,neutral,5,right,16,ITC_collect,567,k,0,0,105,402675,846647
42,18,male,Belg,2,33,ITC,neutral,5,right,16,ITC_outcome,0,undefined,0,0,121,401670,847652
42,18,male,Belg,2,34,guess,neutral,10,left,5,guess_start,648,space,0,0,121,401021,848301
42,18,male,Belg,2,34,guess,neutral,10,left,5,guess_choice,598,f,0,0,121,400416,848906
42,18,male,Belg,2,34,guess,neutral,10,left,5,guess_outcome,0,undefined,0,0,121,398852,850470
42,18,male,Belg,2,34,ITC,neutral,10,left,5,ITC_start,964,space,0,0,121,397887,851435
42,18,male,Belg,2,34,ITC,neutral,10,left,5,ITC_choice,1315,f,0,0,121,396570,852752
42,18,male,Belg,2,34,ITC,neutral,10,left,5,ITC_wait,0,undefined,0,0,121,386566,862756
42,18,male,Belg,2,34,ITC,neutral,10,left,5,ITC_collect,445,k,0,0,121,386119,863203
42,18,male,Belg,2,34,ITC,neutral,10,left,5,ITC_outcome,0,undefined,0,0,141,385112,864210
42,18,male,Belg,2,35,guess,loss,10,left,8,guess_start,1339,space,0,0,141,383771,865551
42,18,male,Belg,2,35,guess,loss,10,left,8,guess_choice,1077,j,0,0,141,382690,866632
42,18,male,Belg,2,35,guess,loss,10,left,8,guess_outcome,0,undefined,0,0,126,381126,868196
42,18,male,Belg,2,35,ITC,loss,10,left,8,ITC_start,2357,space,0,0,126,378767,870555
42,18,male,Belg,2,35,ITC,loss,10,left,8,ITC_choice,1314,f,0,0,126,377451,871871
42,18,male,Belg,2,35,ITC,loss,10,left,8,ITC_wait,0,undefined,0,0,126,367441,881881
42,18,male,Belg,2,35,ITC,loss,10,left,8,ITC_collect,578,k,0,0,126,366861,882461
42,18,male,Belg,2,35,ITC,loss,10,left,8,ITC_outcome,0,undefined,0,0,146,365846,883476
42,18,male,Belg,2,36,guess,neutral,5,right,12,guess_start,1168,space,0,0,146,364676,884646
42,18,male,Belg,2,36,guess,neutral,5,right,12,guess_choice,587,f,0,0,146,364085,885237
42,18,male,Belg,2,36,guess,neutral,5,right,12,guess_outcome,0,undefined,0,0,146,362528,886794
42,18,male,Belg,2,36,ITC,neutral,5,right,12,ITC_start,2165,space,0,0,146,360362,888960
42,18,male,Belg,2,36,ITC,neutral,5,right,12,ITC_choice,1559,j,0,0,146,358801,890521
42,18,male,Belg,2,36,ITC,neutral,5,right,12,ITC_wait,0,undefined,0,0,146,353793,895529
42,18,male,Belg,2,36,ITC,neutral,5,right,12,ITC_collect,447,k,0,0,146,353343,895979
42,18,male,Belg,2,36,ITC,neutral,5,right,12,ITC_outcome,0,undefined,0,0,166,352330,896992
42,18,male,Belg,2,37,guess,loss,5,left,4,guess_start,856,space,0,0,166,351473,897849
42,18,male,Belg,2,37,guess,loss,5,left,4,guess_choice,1112,f,0,0,166,350355,898967
42,18,male,Belg,2,37,guess,loss,5,left,4,guess_outcome,0,undefined,0,0,151,348795,900527
42,18,male,Belg,2,37,ITC,loss,5,left,4,ITC_start,772,space,0,0,151,348020,901302
42,18,male,Belg,2,37,ITC,loss,5,left,4,ITC_choice,1446,f,0,0,151,346572,902750
42,18,male,Belg,2,37,ITC,loss,5,left,4,ITC_wait,0,undefined,0,0,151,341566,907756
42,18,male,Belg,2,37,ITC,loss,5,left,4,ITC_collect,392,k,0,0,151,341173,908149
42,18,male,Belg,2,37,ITC,loss,5,left,4,ITC_outcome,0,undefined,0,0,171,340164,909158
42,18,male,Belg,2,38,guess,win,5,right,13,guess_start,418,space,0,0,171,339744,909578
42,18,male,Belg,2,38,guess,win,5,right,13,guess_choice,1187,f,0,0,171,338553,910769
42,18,male,Belg,2,38,guess,win,5,right,13,guess_outcome,0,undefined,0,0,191,336995,912327
42,18,male,Belg,2,38,ITC,win,5,right,13,ITC_start,474,space,0,0,191,336519,912803
42,18,male,Belg,2,38,ITC,win,5,right,13,ITC_choice,1985,j,0,0,191,334532,914790
42,18,male,Belg,2,38,ITC,win,5,right,13,ITC_wait,0,undefined,0,0,191,329523,919799
42,18,male,Belg,2,38,ITC,win,5,right,13,ITC_collect,304,k,0,0,191,329217,920105
42,18,male,Belg,2,38,ITC,win,5,right,13,ITC_outcome,0,undefined,0,0,211,328211,921111
42,18,male,Belg,2,39,guess,neutral,5,left,3,guess_start,836,space,0,0,211,327372,921950
42,18,male,Belg,2,39,guess,neutral,5,left,3,guess_choice,742,j,0,0,211,326626,922696
42,18,male,Belg,2,39,guess,neutral,5,left,3,guess_outcome,0,undefined,0,0,211,325062,924260
42,18,male,Belg,2,39,ITC,neutral,5,left,3,ITC_start,387,space,0,0,211,324674,924648
42,18,male,Belg,2,39,ITC,neutral,5,left,3,ITC_choice,1166,f,0,0,211,323506,925816
42,18,male,Belg,2,39,ITC,neutral,5,left,3,ITC_wait,0,undefined,0,0,211,318499,930823
42,18,male,Belg,2,39,ITC,neutral,5,left,3,ITC_collect,570,k,0,0,211,317918,931404
42,18,male,Belg,2,39,ITC,neutral,5,left,3,ITC_outcome,0,undefined,0,0,231,316908,932414
42,18,male,Belg,2,40,guess,loss,5,right,6,guess_start,562,space,0,0,231,316345,932977
42,18,male,Belg,2,40,guess,loss,5,right,6,guess_choice,592,j,0,0,231,315749,933573
42,18,male,Belg,2,40,guess,loss,5,right,6,guess_outcome,0,undefined,0,0,216,314182,935140
42,18,male,Belg,2,40,ITC,loss,5,right,6,ITC_start,525,space,0,0,216,313656,935666
42,18,male,Belg,2,40,ITC,loss,5,right,6,ITC_choice,1122,j,0,0,216,312532,936790
42,18,male,Belg,2,40,ITC,loss,5,right,6,ITC_wait,0,undefined,0,0,216,307511,941811
42,18,male,Belg,2,40,ITC,loss,5,right,6,ITC_collect,288,k,0,0,216,307221,942101
42,18,male,Belg,2,40,ITC,loss,5,right,6,ITC_outcome,0,undefined,0,0,236,306218,943104
42,18,male,Belg,2,41,guess,loss,10,left,2,guess_start,295,space,0,0,236,305921,943401
42,18,male,Belg,2,41,guess,loss,10,left,2,guess_choice,684,f,0,0,236,305233,944089
42,18,male,Belg,2,41,guess,loss,10,left,2,guess_outcome,0,undefined,0,0,221,303664,945658
42,18,male,Belg,2,41,ITC,loss,10,left,2,ITC_start,917,space,0,0,221,302745,946577
42,18,male,Belg,2,41,ITC,loss,10,left,2,ITC_choice,1645,f,0,0,221,301097,948225
42,18,male,Belg,2,41,ITC,loss,10,left,2,ITC_wait,0,undefined,0,0,221,291081,958241
42,18,male,Belg,2,41,ITC,loss,10,left,2,ITC_collect,880,k,0,0,221,290199,959123
42,18,male,Belg,2,41,ITC,loss,10,left,2,ITC_outcome,0,undefined,0,0,241,289182,960140
42,18,male,Belg,2,42,guess,neutral,5,left,9,guess_start,682,space,0,0,241,288498,960824
42,18,male,Belg,2,42,guess,neutral,5,left,9,guess_choice,559,j,0,0,241,287935,961387
42,18,male,Belg,2,42,guess,neutral,5,left,9,guess_outcome,0,undefined,0,0,241,286365,962957
42,18,male,Belg,2,42,ITC,neutral,5,left,9,ITC_start,381,space,0,0,241,285977,963345
42,18,male,Belg,2,42,ITC,neutral,5,left,9,ITC_choice,1312,f,0,0,241,284663,964659
42,18,male,Belg,2,42,ITC,neutral,5,left,9,ITC_wait,0,undefined,0,0,241,279652,969670
42,18,male,Belg,2,42,ITC,neutral,5,left,9,ITC_collect,597,k,0,0,241,279043,970279
42,18,male,Belg,2,42,ITC,neutral,5,left,9,ITC_outcome,0,undefined,0,0,261,278039,971283
42,18,male,Belg,2,43,guess,neutral,5,right,2,guess_start,746,space,0,0,261,277288,972034
42,18,male,Belg,2,43,guess,neutral,5,right,2,guess_choice,622,j,0,0,261,276661,972661
42,18,male,Belg,2,43,guess,neutral,5,right,2,guess_outcome,0,undefined,0,0,261,275101,974221
42,18,male,Belg,2,43,ITC,neutral,5,right,2,ITC_start,454,space,0,0,261,274645,974677
42,18,male,Belg,2,43,ITC,neutral,5,right,2,ITC_choice,981,j,0,0,261,273661,975661
42,18,male,Belg,2,43,ITC,neutral,5,right,2,ITC_wait,0,undefined,0,0,261,268651,980671
42,18,male,Belg,2,43,ITC,neutral,5,right,2,ITC_collect,532,k,0,0,261,268115,981207
42,18,male,Belg,2,43,ITC,neutral,5,right,2,ITC_outcome,0,undefined,0,0,281,267097,982225
42,18,male,Belg,2,44,guess,neutral,5,left,15,guess_start,956,space,0,0,281,266139,983183
42,18,male,Belg,2,44,guess,neutral,5,left,15,guess_choice,560,j,0,0,281,265575,983747
42,18,male,Belg,2,44,guess,neutral,5,left,15,guess_outcome,0,undefined,0,0,281,264013,985309
42,18,male,Belg,2,44,ITC,neutral,5,left,15,ITC_start,964,space,0,0,281,263048,986274
42,18,male,Belg,2,44,ITC,neutral,5,left,15,ITC_choice,1897,f,0,0,281,261148,988174
42,18,male,Belg,2,44,ITC,neutral,5,left,15,ITC_wait,0,undefined,0,0,281,256134,993188
42,18,male,Belg,2,44,ITC,neutral,5,left,15,ITC_collect,412,k,0,0,281,255720,993602
42,18,male,Belg,2,44,ITC,neutral,5,left,15,ITC_outcome,0,undefined,0,0,301,254702,994620
42,18,male,Belg,2,45,guess,win,5,left,6,guess_start,797,space,0,0,301,253903,995419
42,18,male,Belg,2,45,guess,win,5,left,6,guess_choice,1443,f,0,0,301,252456,996866
42,18,male,Belg,2,45,guess,win,5,left,6,guess_outcome,0,undefined,0,0,321,250900,998422
42,18,male,Belg,2,45,ITC,win,5,left,6,ITC_start,692,space,0,0,321,250207,999115
42,18,male,Belg,2,45,ITC,win,5,left,6,ITC_choice,1135,f,0,0,321,249070,1000252
42,18,male,Belg,2,45,ITC,win,5,left,6,ITC_wait,0,undefined,0,0,321,244053,1005269
42,18,male,Belg,2,45,ITC,win,5,left,6,ITC_collect,686,k,0,0,321,243365,1005957
42,18,male,Belg,2,45,ITC,win,5,left,6,ITC_outcome,0,undefined,0,0,341,242347,1006975
42,18,male,Belg,2,46,guess,win,5,left,5,guess_start,706,space,0,0,341,241639,1007683
42,18,male,Belg,2,46,guess,win,5,left,5,guess_choice,741,j,0,0,341,240894,1008428
42,18,male,Belg,2,46,guess,win,5,left,5,guess_outcome,0,undefined,0,0,361,239327,1009995
42,18,male,Belg,2,46,ITC,win,5,left,5,ITC_start,1027,space,0,0,361,238291,1011031
42,18,male,Belg,2,46,ITC,win,5,left,5,ITC_choice,871,f,0,0,361,237418,1011904
42,18,male,Belg,2,46,ITC,win,5,left,5,ITC_wait,0,undefined,0,0,361,232320,1017002
42,18,male,Belg,2,46,ITC,win,5,left,5,ITC_collect,567,k,0,0,361,231742,1017580
42,18,male,Belg,2,46,ITC,win,5,left,5,ITC_outcome,0,undefined,0,0,381,230696,1018626
42,18,male,Belg,2,47,guess,win,5,left,15,guess_start,802,space,0,0,381,229886,1019436
42,18,male,Belg,2,47,guess,win,5,left,15,guess_choice,1061,j,0,0,381,228820,1020502
42,18,male,Belg,2,47,guess,win,5,left,15,guess_outcome,0,undefined,0,0,401,227252,1022070
42,18,male,Belg,2,47,ITC,win,5,left,15,ITC_start,1422,space,0,0,401,225828,1023494
42,18,male,Belg,2,47,ITC,win,5,left,15,ITC_choice,792,f,0,0,401,225035,1024287
42,18,male,Belg,2,47,ITC,win,5,left,15,ITC_wait,0,undefined,0,0,401,220025,1029297
42,18,male,Belg,2,47,ITC,win,5,left,15,ITC_collect,532,k,0,0,401,219491,1029831
42,18,male,Belg,2,47,ITC,win,5,left,15,ITC_outcome,0,undefined,0,0,421,218487,1030835
42,18,male,Belg,2,48,guess,neutral,5,right,1,guess_start,406,space,0,0,421,218078,1031244
42,18,male,Belg,2,48,guess,neutral,5,right,1,guess_choice,684,j,0,0,421,217391,1031931
42,18,male,Belg,2,48,guess,neutral,5,right,1,guess_outcome,0,undefined,0,0,421,215835,1033487
42,18,male,Belg,2,48,ITC,neutral,5,right,1,ITC_start,349,space,0,0,421,215484,1033838
42,18,male,Belg,2,48,ITC,neutral,5,right,1,ITC_choice,1088,j,0,0,421,214394,1034928
42,18,male,Belg,2,48,ITC,neutral,5,right,1,ITC_wait,0,undefined,0,0,421,209384,1039938
42,18,male,Belg,2,48,ITC,neutral,5,right,1,ITC_collect,580,k,0,0,421,208802,1040520
42,18,male,Belg,2,48,ITC,neutral,5,right,1,ITC_outcome,0,undefined,0,0,441,207798,1041524
42,18,male,Belg,2,49,guess,loss,5,left,15,guess_start,1445,space,0,0,441,206351,1042971
42,18,male,Belg,2,49,guess,loss,5,left,15,guess_choice,763,f,0,0,441,205584,1043738
42,18,male,Belg,2,49,guess,loss,5,left,15,guess_outcome,0,undefined,0,0,426,204019,1045303
42,18,male,Belg,2,49,ITC,loss,5,left,15,ITC_start,1177,space,0,0,426,202840,1046482
42,18,male,Belg,2,49,ITC,loss,5,left,15,ITC_choice,1122,f,0,0,426,201716,1047606
42,18,male,Belg,2,49,ITC,loss,5,left,15,ITC_wait,0,undefined,0,0,426,196704,1052618
42,18,male,Belg,2,49,ITC,loss,5,left,15,ITC_collect,821,k,0,0,426,195881,1053441
42,18,male,Belg,2,49,ITC,loss,5,left,15,ITC_outcome,0,undefined,0,0,446,194867,1054455
42,18,male,Belg,2,50,guess,win,10,right,4,guess_start,369,space,0,0,446,194496,1054826
42,18,male,Belg,2,50,guess,win,10,right,4,guess_choice,962,f,0,0,446,193530,1055792
42,18,male,Belg,2,50,guess,win,10,right,4,guess_outcome,0,undefined,0,0,466,191962,1057360
42,18,male,Belg,2,50,ITC,win,10,right,4,ITC_start,702,space,0,0,466,191259,1058063
42,18,male,Belg,2,50,ITC,win,10,right,4,ITC_choice,997,j,0,0,466,190261,1059061
42,18,male,Belg,2,50,ITC,win,10,right,4,ITC_wait,0,undefined,0,0,466,180256,1069066
42,18,male,Belg,2,50,ITC,win,10,right,4,ITC_collect,634,k,0,0,466,179620,1069702
42,18,male,Belg,2,50,ITC,win,10,right,4,ITC_outcome,0,undefined,0,0,486,178605,1070717
42,18,male,Belg,2,51,guess,loss,5,left,3,guess_start,1091,space,0,0,486,177505,1071817
42,18,male,Belg,2,51,guess,loss,5,left,3,guess_choice,965,f,0,0,486,176535,1072787
42,18,male,Belg,2,51,guess,loss,5,left,3,guess_outcome,0,undefined,0,0,471,174967,1074355
42,18,male,Belg,2,51,ITC,loss,5,left,3,ITC_start,1178,space,0,0,471,173788,1075534
42,18,male,Belg,2,51,ITC,loss,5,left,3,ITC_choice,1035,f,0,0,471,172751,1076571
42,18,male,Belg,2,51,ITC,loss,5,left,3,ITC_wait,0,undefined,0,0,471,167745,1081577
42,18,male,Belg,2,51,ITC,loss,5,left,3,ITC_collect,409,k,0,0,471,167334,1081988
42,18,male,Belg,2,51,ITC,loss,5,left,3,ITC_outcome,0,undefined,0,0,491,166322,1083000
42,18,male,Belg,2,52,guess,win,5,right,4,guess_start,783,space,0,0,491,165536,1083786
42,18,male,Belg,2,52,guess,win,5,right,4,guess_choice,825,f,0,0,491,164706,1084616
42,18,male,Belg,2,52,guess,win,5,right,4,guess_outcome,0,undefined,0,0,511,163136,1086186
42,18,male,Belg,2,52,ITC,win,5,right,4,ITC_start,902,space,0,0,511,162233,1087089
42,18,male,Belg,2,52,ITC,win,5,right,4,ITC_choice,799,j,0,0,511,161432,1087890
42,18,male,Belg,2,52,ITC,win,5,right,4,ITC_wait,0,undefined,0,0,511,156429,1092893
42,18,male,Belg,2,52,ITC,win,5,right,4,ITC_collect,329,k,0,0,511,156098,1093224
42,18,male,Belg,2,52,ITC,win,5,right,4,ITC_outcome,0,undefined,0,0,531,155088,1094234
42,18,male,Belg,2,53,guess,neutral,10,right,6,guess_start,823,space,0,0,531,154262,1095060
42,18,male,Belg,2,53,guess,neutral,10,right,6,guess_choice,802,j,0,0,531,153455,1095867
42,18,male,Belg,2,53,guess,neutral,10,right,6,guess_outcome,0,undefined,0,0,531,151892,1097430
42,18,male,Belg,2,53,ITC,neutral,10,right,6,ITC_start,1269,space,0,0,531,150620,1098702
42,18,male,Belg,2,53,ITC,neutral,10,right,6,ITC_choice,1211,j,0,0,531,149408,1099914
42,18,male,Belg,2,53,ITC,neutral,10,right,6,ITC_wait,0,undefined,0,0,531,139393,1109929
42,18,male,Belg,2,53,ITC,neutral,10,right,6,ITC_collect,405,k,0,0,531,138986,1110336
42,18,male,Belg,2,53,ITC,neutral,10,right,6,ITC_outcome,0,undefined,0,0,551,137969,1111353
42,18,male,Belg,2,54,guess,loss,10,left,5,guess_start,431,space,0,0,551,137536,1111786
42,18,male,Belg,2,54,guess,loss,10,left,5,guess_choice,762,j,0,0,551,136770,1112552
42,18,male,Belg,2,54,guess,loss,10,left,5,guess_outcome,0,undefined,0,0,536,135210,1114112
42,18,male,Belg,2,54,ITC,loss,10,left,5,ITC_start,514,space,0,0,536,134695,1114627
42,18,male,Belg,2,54,ITC,loss,10,left,5,ITC_choice,790,f,0,0,536,133903,1115419
42,18,male,Belg,2,54,ITC,loss,10,left,5,ITC_wait,0,undefined,0,0,536,123900,1125422
42,18,male,Belg,2,54,ITC,loss,10,left,5,ITC_collect,386,k,0,0,536,123512,1125810
42,18,male,Belg,2,54,ITC,loss,10,left,5,ITC_outcome,0,undefined,0,0,556,122501,1126821
42,18,male,Belg,2,55,guess,neutral,5,right,8,guess_start,600,space,0,0,556,121899,1127423
42,18,male,Belg,2,55,guess,neutral,5,right,8,guess_choice,596,j,0,0,556,121298,1128024
42,18,male,Belg,2,55,guess,neutral,5,right,8,guess_outcome,0,undefined,0,0,556,119733,1129589
42,18,male,Belg,2,55,ITC,neutral,5,right,8,ITC_start,1728,space,0,0,556,118003,1131319
42,18,male,Belg,2,55,ITC,neutral,5,right,8,ITC_choice,1362,j,0,0,556,116639,1132683
42,18,male,Belg,2,55,ITC,neutral,5,right,8,ITC_wait,0,undefined,0,0,556,111630,1137692
42,18,male,Belg,2,55,ITC,neutral,5,right,8,ITC_collect,4380,k,0,0,556,107248,1142074
42,18,male,Belg,2,55,ITC,neutral,5,right,8,ITC_outcome,0,undefined,0,0,576,106243,1143079
42,18,male,Belg,2,56,guess,neutral,10,right,7,guess_start,703,space,0,0,576,105535,1143787
42,18,male,Belg,2,56,guess,neutral,10,right,7,guess_choice,609,j,0,0,576,104922,1144400
42,18,male,Belg,2,56,guess,neutral,10,right,7,guess_outcome,0,undefined,0,0,576,103362,1145960
42,18,male,Belg,2,56,ITC,neutral,10,right,7,ITC_start,733,space,0,0,576,102623,1146699
42,18,male,Belg,2,56,ITC,neutral,10,right,7,ITC_choice,772,j,0,0,576,101849,1147473
42,18,male,Belg,2,56,ITC,neutral,10,right,7,ITC_wait,0,undefined,0,0,576,91837,1157485
42,18,male,Belg,2,56,ITC,neutral,10,right,7,ITC_collect,488,k,0,0,576,91347,1157975
42,18,male,Belg,2,56,ITC,neutral,10,right,7,ITC_outcome,0,undefined,0,0,596,90343,1158979
42,18,male,Belg,2,57,guess,loss,5,right,5,guess_start,565,space,0,0,596,89776,1159546
42,18,male,Belg,2,57,guess,loss,5,right,5,guess_choice,1232,f,0,0,596,88540,1160782
42,18,male,Belg,2,57,guess,loss,5,right,5,guess_outcome,0,undefined,0,0,581,86978,1162344
42,18,male,Belg,2,57,ITC,loss,5,right,5,ITC_start,579,space,0,0,581,86398,1162924
42,18,male,Belg,2,57,ITC,loss,5,right,5,ITC_choice,728,j,0,0,581,85668,1163654
42,18,male,Belg,2,57,ITC,loss,5,right,5,ITC_wait,0,undefined,0,0,581,80652,1168670
42,18,male,Belg,2,57,ITC,loss,5,right,5,ITC_collect,1087,k,0,0,581,79563,1169759
42,18,male,Belg,2,57,ITC,loss,5,right,5,ITC_outcome,0,undefined,0,0,601,78551,1170771
42,18,male,Belg,2,58,guess,loss,5,left,14,guess_start,595,space,0,0,601,77955,1171367
42,18,male,Belg,2,58,guess,loss,5,left,14,guess_choice,1173,f,0,0,601,76777,1172545
42,18,male,Belg,2,58,guess,loss,5,left,14,guess_outcome,0,undefined,0,0,586,75217,1174105
42,18,male,Belg,2,58,ITC,loss,5,left,14,ITC_start,772,space,0,0,586,74441,1174881
42,18,male,Belg,2,58,ITC,loss,5,left,14,ITC_choice,1401,f,0,0,586,73038,1176284
42,18,male,Belg,2,58,ITC,loss,5,left,14,ITC_wait,0,undefined,0,0,586,68021,1181301
42,18,male,Belg,2,58,ITC,loss,5,left,14,ITC_collect,803,k,0,0,586,67216,1182106
42,18,male,Belg,2,58,ITC,loss,5,left,14,ITC_outcome,0,undefined,0,0,606,66209,1183113
42,18,male,Belg,2,59,guess,loss,10,right,3,guess_start,726,space,0,0,606,65481,1183841
42,18,male,Belg,2,59,guess,loss,10,right,3,guess_choice,511,j,0,0,606,64966,1184356
42,18,male,Belg,2,59,guess,loss,10,right,3,guess_outcome,0,undefined,0,0,591,63411,1185911
42,18,male,Belg,2,59,ITC,loss,10,right,3,ITC_start,1162,space,0,0,591,62247,1187075
42,18,male,Belg,2,59,ITC,loss,10,right,3,ITC_choice,1204,j,0,0,591,61041,1188281
42,18,male,Belg,2,59,ITC,loss,10,right,3,ITC_wait,0,undefined,0,0,591,51027,1198295
42,18,male,Belg,2,59,ITC,loss,10,right,3,ITC_collect,339,k,0,0,591,50686,1198636
42,18,male,Belg,2,59,ITC,loss,10,right,3,ITC_outcome,0,undefined,0,0,611,49676,1199646
42,18,male,Belg,2,60,guess,loss,5,left,16,guess_start,407,space,0,0,611,49267,1200055
42,18,male,Belg,2,60,guess,loss,5,left,16,guess_choice,1105,f,0,0,611,48158,1201164
42,18,male,Belg,2,60,guess,loss,5,left,16,guess_outcome,0,undefined,0,0,596,46595,1202727
42,18,male,Belg,2,60,ITC,loss,5,left,16,ITC_start,712,space,0,0,596,45882,1203440
42,18,male,Belg,2,60,ITC,loss,5,left,16,ITC_choice,762,f,0,0,596,45117,1204205
42,18,male,Belg,2,60,ITC,loss,5,left,16,ITC_wait,0,undefined,0,0,596,40105,1209217
42,18,male,Belg,2,60,ITC,loss,5,left,16,ITC_collect,457,k,0,0,596,39647,1209675
42,18,male,Belg,2,60,ITC,loss,5,left,16,ITC_outcome,0,undefined,0,0,616,38631,1210691
42,18,male,Belg,2,61,guess,loss,5,left,8,guess_start,589,space,0,0,616,38037,1211285
42,18,male,Belg,2,61,guess,loss,5,left,8,guess_choice,1119,f,0,0,616,36914,1212408
42,18,male,Belg,2,61,guess,loss,5,left,8,guess_outcome,0,undefined,0,0,601,35344,1213978
42,18,male,Belg,2,61,ITC,loss,5,left,8,ITC_start,871,space,0,0,601,34472,1214850
42,18,male,Belg,2,61,ITC,loss,5,left,8,ITC_choice,1428,f,0,0,601,33040,1216282
42,18,male,Belg,2,61,ITC,loss,5,left,8,ITC_wait,0,undefined,0,0,601,28037,1221285
42,18,male,Belg,2,61,ITC,loss,5,left,8,ITC_collect,580,k,0,0,601,27454,1221868
42,18,male,Belg,2,61,ITC,loss,5,left,8,ITC_outcome,0,undefined,0,0,621,26439,1222883
42,18,male,Belg,2,62,guess,win,5,left,16,guess_start,393,space,0,0,621,26045,1223277
42,18,male,Belg,2,62,guess,win,5,left,16,guess_choice,512,j,0,0,621,25529,1223793
42,18,male,Belg,2,62,guess,win,5,left,16,guess_outcome,0,undefined,0,0,641,23965,1225357
42,18,male,Belg,2,62,ITC,win,5,left,16,ITC_start,648,space,0,0,641,23316,1226006
42,18,male,Belg,2,62,ITC,win,5,left,16,ITC_choice,1898,j,0,0,641,21416,1227906
42,18,male,Belg,2,62,ITC,win,5,left,16,ITC_wait,0,undefined,0,0,641,21413,1227909
42,18,male,Belg,2,62,ITC,win,5,left,16,ITC_collect,811,k,0,0,641,20598,1228724
42,18,male,Belg,2,62,ITC,win,5,left,16,ITC_outcome,0,undefined,0,0,657,19592,1229730
42,18,male,Belg,2,63,guess,win,5,right,2,guess_start,1440,space,0,0,657,18143,1231179
42,18,male,Belg,2,63,guess,win,5,right,2,guess_choice,990,j,0,0,657,17149,1232173
42,18,male,Belg,2,63,guess,win,5,right,2,guess_outcome,0,undefined,0,0,677,15579,1233743
42,18,male,Belg,2,63,ITC,win,5,right,2,ITC_start,616,space,0,0,677,14962,1234360
42,18,male,Belg,2,63,ITC,win,5,right,2,ITC_choice,1918,j,0,0,677,13042,1236280
42,18,male,Belg,2,63,ITC,win,5,right,2,ITC_wait,0,undefined,0,0,677,8036,1241286
42,18,male,Belg,2,63,ITC,win,5,right,2,ITC_collect,561,k,0,0,677,7473,1241849
42,18,male,Belg,2,63,ITC,win,5,right,2,ITC_outcome,0,undefined,0,0,697,6465,1242857
42,18,male,Belg,2,64,guess,win,5,left,10,guess_start,743,space,0,0,697,5721,1243601
42,18,male,Belg,2,64,guess,win,5,left,10,guess_choice,741,j,0,0,697,4976,1244346
42,18,male,Belg,2,64,guess,win,5,left,10,guess_outcome,0,undefined,0,0,717,3411,1245911
42,18,male,Belg,2,64,ITC,win,5,left,10,ITC_start,1755,space,0,0,717,1654,1247668
42,18,male,Belg,2,64,ITC,win,5,left,10,ITC_choice,1297,f,0,0,717,355,1248967
42,18,male,Belg,2,64,ITC,win,5,left,10,ITC_wait,0,undefined,0,0,717,-7,1249329
42,18,male,Belg,3,65,guess,win,5,right,8,guess_start,833,space,0,0,0,479165,1275466
42,18,male,Belg,3,65,guess,win,5,right,8,guess_choice,1562,f,0,0,0,477600,1277031
42,18,male,Belg,3,65,guess,win,5,right,8,guess_outcome,0,undefined,0,0,20,476045,1278586
42,18,male,Belg,3,65,ITC,win,5,right,8,ITC_start,761,space,0,0,20,475282,1279349
42,18,male,Belg,3,65,ITC,win,5,right,8,ITC_choice,964,j,0,0,20,474317,1280314
42,18,male,Belg,3,65,ITC,win,5,right,8,ITC_wait,0,undefined,0,0,20,469301,1285330
42,18,male,Belg,3,65,ITC,win,5,right,8,ITC_collect,512,k,0,0,20,468787,1285844
42,18,male,Belg,3,65,ITC,win,5,right,8,ITC_outcome,0,undefined,0,0,40,467770,1286861
42,18,male,Belg,3,66,guess,loss,5,right,12,guess_start,578,space,0,0,40,467190,1287441
42,18,male,Belg,3,66,guess,loss,5,right,12,guess_choice,917,f,0,0,40,466269,1288362
42,18,male,Belg,3,66,guess,loss,5,right,12,guess_outcome,0,undefined,0,0,25,464706,1289925
42,18,male,Belg,3,66,ITC,loss,5,right,12,ITC_start,588,space,0,0,25,464117,1290514
42,18,male,Belg,3,66,ITC,loss,5,right,12,ITC_choice,932,j,0,0,25,463183,1291448
42,18,male,Belg,3,66,ITC,loss,5,right,12,ITC_wait,0,undefined,0,0,25,458169,1296462
42,18,male,Belg,3,66,ITC,loss,5,right,12,ITC_collect,559,k,0,0,25,457608,1297023
42,18,male,Belg,3,66,ITC,loss,5,right,12,ITC_outcome,0,undefined,0,0,45,456592,1298039
42,18,male,Belg,3,67,guess,neutral,5,right,4,guess_start,650,space,0,0,45,455940,1298691
42,18,male,Belg,3,67,guess,neutral,5,right,4,guess_choice,1053,f,0,0,45,454883,1299748
42,18,male,Belg,3,67,guess,neutral,5,right,4,guess_outcome,0,undefined,0,0,45,453324,1301307
42,18,male,Belg,3,67,ITC,neutral,5,right,4,ITC_start,1394,space,0,0,45,451929,1302702
42,18,male,Belg,3,67,ITC,neutral,5,right,4,ITC_choice,1356,j,0,0,45,450571,1304060
42,18,male,Belg,3,67,ITC,neutral,5,right,4,ITC_wait,0,undefined,0,0,45,445567,1309064
42,18,male,Belg,3,67,ITC,neutral,5,right,4,ITC_collect,605,k,0,0,45,444959,1309672
42,18,male,Belg,3,67,ITC,neutral,5,right,4,ITC_outcome,0,undefined,0,0,65,443946,1310685
42,18,male,Belg,3,68,guess,win,10,right,6,guess_start,596,space,0,0,65,443348,1311283
42,18,male,Belg,3,68,guess,win,10,right,6,guess_choice,769,f,0,0,65,442575,1312056
42,18,male,Belg,3,68,guess,win,10,right,6,guess_outcome,0,undefined,0,0,85,441017,1313614
42,18,male,Belg,3,68,ITC,win,10,right,6,ITC_start,399,space,0,0,85,440616,1314015
42,18,male,Belg,3,68,ITC,win,10,right,6,ITC_choice,1371,j,0,0,85,439244,1315387
42,18,male,Belg,3,68,ITC,win,10,right,6,ITC_wait,0,undefined,0,0,85,429230,1325401
42,18,male,Belg,3,68,ITC,win,10,right,6,ITC_collect,8635,k,0,0,85,420593,1334038
42,18,male,Belg,3,68,ITC,win,10,right,6,ITC_outcome,0,undefined,0,0,105,419589,1335042
42,18,male,Belg,3,69,guess,win,5,right,12,guess_start,3818,space,0,0,105,415768,1338863
42,18,male,Belg,3,69,guess,win,5,right,12,guess_choice,1001,f,0,0,105,414763,1339868
42,18,male,Belg,3,69,guess,win,5,right,12,guess_outcome,0,undefined,0,0,125,413197,1341434
42,18,male,Belg,3,69,ITC,win,5,right,12,ITC_start,787,space,0,0,125,412409,1342222
42,18,male,Belg,3,69,ITC,win,5,right,12,ITC_choice,1980,f,0,0,125,410428,1344203
42,18,male,Belg,3,69,ITC,win,5,right,12,ITC_wait,0,undefined,0,0,125,410424,1344207
42,18,male,Belg,3,69,ITC,win,5,right,12,ITC_collect,703,k,0,0,125,409717,1344914
42,18,male,Belg,3,69,ITC,win,5,right,12,ITC_outcome,0,undefined,0,0,137,408701,1345930
42,18,male,Belg,3,70,guess,neutral,10,left,1,guess_start,644,space,0,0,137,408054,1346577
42,18,male,Belg,3,70,guess,neutral,10,left,1,guess_choice,592,f,0,0,137,407457,1347174
42,18,male,Belg,3,70,guess,neutral,10,left,1,guess_outcome,0,undefined,0,0,137,405888,1348743
42,18,male,Belg,3,70,ITC,neutral,10,left,1,ITC_start,329,space,0,0,137,405558,1349073
42,18,male,Belg,3,70,ITC,neutral,10,left,1,ITC_choice,1467,f,0,0,137,404090,1350541
42,18,male,Belg,3,70,ITC,neutral,10,left,1,ITC_wait,0,undefined,0,0,137,394080,1360551
42,18,male,Belg,3,70,ITC,neutral,10,left,1,ITC_collect,3460,k,0,0,137,390618,1364013
42,18,male,Belg,3,70,ITC,neutral,10,left,1,ITC_outcome,0,undefined,0,0,157,389612,1365019
42,18,male,Belg,3,71,guess,loss,5,left,7,guess_start,4841,space,0,0,157,384769,1369862
42,18,male,Belg,3,71,guess,loss,5,left,7,guess_choice,973,j,0,0,157,383792,1370839
42,18,male,Belg,3,71,guess,loss,5,left,7,guess_outcome,0,undefined,0,0,142,382232,1372399
42,18,male,Belg,3,71,ITC,loss,5,left,7,ITC_start,1123,space,0,0,142,381107,1373524
42,18,male,Belg,3,71,ITC,loss,5,left,7,ITC_choice,946,f,0,0,142,380159,1374472
42,18,male,Belg,3,71,ITC,loss,5,left,7,ITC_wait,0,undefined,0,0,142,375154,1379477
42,18,male,Belg,3,71,ITC,loss,5,left,7,ITC_collect,1074,k,0,0,142,374078,1380553
42,18,male,Belg,3,71,ITC,loss,5,left,7,ITC_outcome,0,undefined,0,0,162,373072,1381559
42,18,male,Belg,3,72,guess,win,5,right,11,guess_start,936,space,0,0,162,372134,1382497
42,18,male,Belg,3,72,guess,win,5,right,11,guess_choice,1023,j,0,0,162,371104,1383527
42,18,male,Belg,3,72,guess,win,5,right,11,guess_outcome,0,undefined,0,0,182,369542,1385089
42,18,male,Belg,3,72,ITC,win,5,right,11,ITC_start,426,space,0,0,182,369114,1385517
42,18,male,Belg,3,72,ITC,win,5,right,11,ITC_choice,1194,j,0,0,182,367918,1386713
42,18,male,Belg,3,72,ITC,win,5,right,11,ITC_wait,0,undefined,0,0,182,362905,1391726
42,18,male,Belg,3,72,ITC,win,5,right,11,ITC_collect,583,k,0,0,182,362320,1392311
42,18,male,Belg,3,72,ITC,win,5,right,11,ITC_outcome,0,undefined,0,0,202,361311,1393320
42,18,male,Belg,3,73,guess,win,5,left,12,guess_start,1144,space,0,0,202,360165,1394466
42,18,male,Belg,3,73,guess,win,5,left,12,guess_choice,988,f,0,0,202,359172,1395459
42,18,male,Belg,3,73,guess,win,5,left,12,guess_outcome,0,undefined,0,0,222,357607,1397024
42,18,male,Belg,3,73,ITC,win,5,left,12,ITC_start,810,space,0,0,222,356796,1397835
42,18,male,Belg,3,73,ITC,win,5,left,12,ITC_choice,1180,f,0,0,222,355614,1399017
42,18,male,Belg,3,73,ITC,win,5,left,12,ITC_wait,0,undefined,0,0,222,350604,1404027
42,18,male,Belg,3,73,ITC,win,5,left,12,ITC_collect,1332,k,0,0,222,349269,1405362
42,18,male,Belg,3,73,ITC,win,5,left,12,ITC_outcome,0,undefined,0,0,242,348266,1406365
42,18,male,Belg,3,74,guess,neutral,5,right,16,guess_start,544,space,0,0,242,347720,1406911
42,18,male,Belg,3,74,guess,neutral,5,right,16,guess_choice,1522,f,0,0,242,346192,1408439
42,18,male,Belg,3,74,guess,neutral,5,right,16,guess_outcome,0,undefined,0,0,242,344632,1409999
42,18,male,Belg,3,74,ITC,neutral,5,right,16,ITC_start,942,space,0,0,242,343688,1410943
42,18,male,Belg,3,74,ITC,neutral,5,right,16,ITC_choice,1833,j,0,0,242,341853,1412778
42,18,male,Belg,3,74,ITC,neutral,5,right,16,ITC_wait,0,undefined,0,0,242,336850,1417781
42,18,male,Belg,3,75,guess,win,10,left,1,guess_start,670,space,0,0,262,334462,1420169
42,18,male,Belg,3,75,guess,win,10,left,1,guess_choice,870,f,0,0,262,333588,1421043
42,18,male,Belg,3,74,ITC,neutral,5,right,16,ITC_collect,701,k,0,0,242,336147,1418484
42,18,male,Belg,3,75,guess,win,10,left,1,guess_outcome,0,undefined,0,0,282,332032,1422599
42,18,male,Belg,3,74,ITC,neutral,5,right,16,ITC_outcome,0,undefined,0,0,262,335135,1419496
42,18,male,Belg,3,75,ITC,win,10,left,1,ITC_start,549,space,0,0,282,331481,1423150
42,18,male,Belg,3,75,ITC,win,10,left,1,ITC_choice,1377,f,0,0,282,330102,1424529
42,18,male,Belg,3,75,ITC,win,10,left,1,ITC_wait,0,undefined,0,0,282,320085,1434546
42,18,male,Belg,3,75,ITC,win,10,left,1,ITC_collect,573,k,0,0,282,319510,1435121
42,18,male,Belg,3,75,ITC,win,10,left,1,ITC_outcome,0,undefined,0,0,302,318505,1436126
42,18,male,Belg,3,76,guess,loss,10,left,3,guess_start,362,space,0,0,302,318139,1436492
42,18,male,Belg,3,76,guess,loss,10,left,3,guess_choice,966,j,0,0,302,317168,1437463
42,18,male,Belg,3,76,guess,loss,10,left,3,guess_outcome,0,undefined,0,0,287,315604,1439027
42,18,male,Belg,3,76,ITC,loss,10,left,3,ITC_start,1432,space,0,0,287,314162,1440469
42,18,male,Belg,3,76,ITC,loss,10,left,3,ITC_choice,1364,f,0,0,287,312797,1441834
42,18,male,Belg,3,76,ITC,loss,10,left,3,ITC_wait,0,undefined,0,0,287,302794,1451837
42,18,male,Belg,3,76,ITC,loss,10,left,3,ITC_collect,1937,k,0,0,287,300855,1453776
42,18,male,Belg,3,76,ITC,loss,10,left,3,ITC_outcome,0,undefined,0,0,307,299837,1454794
42,18,male,Belg,3,77,guess,loss,5,right,9,guess_start,3964,space,0,0,307,295862,1458769
42,18,male,Belg,3,77,guess,loss,5,right,9,guess_choice,911,f,0,0,307,294946,1459685
42,18,male,Belg,3,77,guess,loss,5,right,9,guess_outcome,0,undefined,0,0,292,293390,1461241
42,18,male,Belg,3,77,ITC,loss,5,right,9,ITC_start,3397,space,0,0,292,289989,1464642
42,18,male,Belg,3,77,ITC,loss,5,right,9,ITC_choice,1441,j,0,0,292,288546,1466085
42,18,male,Belg,3,77,ITC,loss,5,right,9,ITC_wait,0,undefined,0,0,292,283531,1471100
42,18,male,Belg,3,77,ITC,loss,5,right,9,ITC_collect,1164,k,0,0,292,282365,1472266
42,18,male,Belg,3,77,ITC,loss,5,right,9,ITC_outcome,0,undefined,0,0,312,281355,1473276
42,18,male,Belg,3,78,guess,win,10,left,8,guess_start,846,space,0,0,312,280506,1474125
42,18,male,Belg,3,78,guess,win,10,left,8,guess_choice,883,j,0,0,312,279619,1475012
42,18,male,Belg,3,78,guess,win,10,left,8,guess_outcome,0,undefined,0,0,332,278063,1476568
42,18,male,Belg,3,78,ITC,win,10,left,8,ITC_start,628,space,0,0,332,277420,1477211
42,18,male,Belg,3,78,ITC,win,10,left,8,ITC_choice,876,f,0,0,332,276542,1478089
42,18,male,Belg,3,78,ITC,win,10,left,8,ITC_wait,0,undefined,0,0,332,266539,1488092
42,18,male,Belg,3,78,ITC,win,10,left,8,ITC_collect,643,k,0,0,332,265893,1488738
42,18,male,Belg,3,78,ITC,win,10,left,8,ITC_outcome,0,undefined,0,0,352,264888,1489743
42,18,male,Belg,3,79,guess,loss,5,left,5,guess_start,293,space,0,0,352,264593,1490038
42,18,male,Belg,3,79,guess,loss,5,left,5,guess_choice,798,f,0,0,352,263791,1490840
42,18,male,Belg,3,79,guess,loss,5,left,5,guess_outcome,0,undefined,0,0,337,262220,1492411
42,18,male,Belg,3,79,ITC,loss,5,left,5,ITC_start,647,space,0,0,337,261571,1493060
42,18,male,Belg,3,79,ITC,loss,5,left,5,ITC_choice,1097,f,0,0,337,260472,1494159
42,18,male,Belg,3,79,ITC,loss,5,left,5,ITC_wait,0,undefined,0,0,337,255455,1499176
42,18,male,Belg,3,79,ITC,loss,5,left,5,ITC_collect,465,k,0,0,337,254987,1499644
42,18,male,Belg,3,79,ITC,loss,5,left,5,ITC_outcome,0,undefined,0,0,357,253983,1500648
42,18,male,Belg,3,80,guess,loss,5,right,8,guess_start,540,space,0,0,357,253442,1501189
42,18,male,Belg,3,80,guess,loss,5,right,8,guess_choice,1096,j,0,0,357,252341,1502290
42,18,male,Belg,3,80,guess,loss,5,right,8,guess_outcome,0,undefined,0,0,342,250779,1503852
42,18,male,Belg,3,80,ITC,loss,5,right,8,ITC_start,390,space,0,0,342,250383,1504248
42,18,male,Belg,3,80,ITC,loss,5,right,8,ITC_choice,996,j,0,0,342,249386,1505245
42,18,male,Belg,3,80,ITC,loss,5,right,8,ITC_wait,0,undefined,0,0,342,244379,1510252
42,18,male,Belg,3,80,ITC,loss,5,right,8,ITC_collect,489,k,0,0,342,243888,1510743
42,18,male,Belg,3,80,ITC,loss,5,right,8,ITC_outcome,0,undefined,0,0,362,242866,1511765
42,18,male,Belg,3,81,guess,loss,5,right,11,guess_start,884,space,0,0,362,241980,1512651
42,18,male,Belg,3,81,guess,loss,5,right,11,guess_choice,801,f,0,0,362,241174,1513457
42,18,male,Belg,3,81,guess,loss,5,right,11,guess_outcome,0,undefined,0,0,347,239609,1515022
42,18,male,Belg,3,81,ITC,loss,5,right,11,ITC_start,454,space,0,0,347,239153,1515478
42,18,male,Belg,3,81,ITC,loss,5,right,11,ITC_choice,1051,j,0,0,347,238100,1516531
42,18,male,Belg,3,81,ITC,loss,5,right,11,ITC_wait,0,undefined,0,0,347,233087,1521544
42,18,male,Belg,3,81,ITC,loss,5,right,11,ITC_collect,538,k,0,0,347,232546,1522085
42,18,male,Belg,3,81,ITC,loss,5,right,11,ITC_outcome,0,undefined,0,0,367,231538,1523093
42,18,male,Belg,3,82,guess,neutral,10,left,6,guess_start,585,space,0,0,367,230952,1523679
42,18,male,Belg,3,82,guess,neutral,10,left,6,guess_choice,861,f,0,0,367,230086,1524545
42,18,male,Belg,3,82,guess,neutral,10,left,6,guess_outcome,0,undefined,0,0,367,228527,1526104
42,18,male,Belg,3,82,ITC,neutral,10,left,6,ITC_start,630,space,0,0,367,227895,1526736
42,18,male,Belg,3,82,ITC,neutral,10,left,6,ITC_choice,783,f,0,0,367,227111,1527520
42,18,male,Belg,3,82,ITC,neutral,10,left,6,ITC_wait,0,undefined,0,0,367,217094,1537537
42,18,male,Belg,3,82,ITC,neutral,10,left,6,ITC_collect,700,k,0,0,367,216392,1538239
42,18,male,Belg,3,82,ITC,neutral,10,left,6,ITC_outcome,0,undefined,0,0,387,215377,1539254
42,18,male,Belg,3,83,guess,win,5,left,3,guess_start,1198,space,0,0,387,214177,1540454
42,18,male,Belg,3,83,guess,win,5,left,3,guess_choice,1129,j,0,0,387,213043,1541588
42,18,male,Belg,3,83,guess,win,5,left,3,guess_outcome,0,undefined,0,0,407,211471,1543160
42,18,male,Belg,3,83,ITC,win,5,left,3,ITC_start,588,space,0,0,407,210881,1543750
42,18,male,Belg,3,83,ITC,win,5,left,3,ITC_choice,949,f,0,0,407,209931,1544700
42,18,male,Belg,3,83,ITC,win,5,left,3,ITC_wait,0,undefined,0,0,407,204923,1549708
42,18,male,Belg,3,83,ITC,win,5,left,3,ITC_collect,683,k,0,0,407,204238,1550393
42,18,male,Belg,3,83,ITC,win,5,left,3,ITC_outcome,0,undefined,0,0,427,203221,1551410
42,18,male,Belg,3,84,guess,neutral,5,left,2,guess_start,503,space,0,0,427,202716,1551915
42,18,male,Belg,3,84,guess,neutral,5,left,2,guess_choice,644,f,0,0,427,202068,1552563
42,18,male,Belg,3,84,guess,neutral,5,left,2,guess_outcome,0,undefined,0,0,427,200499,1554132
42,18,male,Belg,3,84,ITC,neutral,5,left,2,ITC_start,436,space,0,0,427,200062,1554569
42,18,male,Belg,3,84,ITC,neutral,5,left,2,ITC_choice,800,f,0,0,427,199261,1555370
42,18,male,Belg,3,84,ITC,neutral,5,left,2,ITC_wait,0,undefined,0,0,427,194247,1560384
42,18,male,Belg,3,84,ITC,neutral,5,left,2,ITC_collect,732,k,0,0,427,193514,1561117
42,18,male,Belg,3,84,ITC,neutral,5,left,2,ITC_outcome,0,undefined,0,0,447,192496,1562135
42,18,male,Belg,3,85,guess,win,5,left,14,guess_start,551,space,0,0,447,191943,1562688
42,18,male,Belg,3,85,guess,win,5,left,14,guess_choice,700,j,0,0,447,191238,1563393
42,18,male,Belg,3,85,guess,win,5,left,14,guess_outcome,0,undefined,0,0,467,189680,1564951
42,18,male,Belg,3,85,ITC,win,5,left,14,ITC_start,483,space,0,0,467,189196,1565435
42,18,male,Belg,3,85,ITC,win,5,left,14,ITC_choice,636,f,0,0,467,188558,1566073
42,18,male,Belg,3,85,ITC,win,5,left,14,ITC_wait,0,undefined,0,0,467,183550,1571081
42,18,male,Belg,3,85,ITC,win,5,left,14,ITC_collect,923,k,0,0,467,182626,1572005
42,18,male,Belg,3,85,ITC,win,5,left,14,ITC_outcome,0,undefined,0,0,487,181613,1573018
42,18,male,Belg,3,86,guess,neutral,10,right,4,guess_start,298,space,0,0,487,181313,1573318
42,18,male,Belg,3,86,guess,neutral,10,right,4,guess_choice,555,j,0,0,487,180753,1573878
42,18,male,Belg,3,86,guess,neutral,10,right,4,guess_outcome,0,undefined,0,0,487,179196,1575435
42,18,male,Belg,3,86,ITC,neutral,10,right,4,ITC_start,314,space,0,0,487,178881,1575750
42,18,male,Belg,3,86,ITC,neutral,10,right,4,ITC_choice,1171,j,0,0,487,177708,1576923
42,18,male,Belg,3,86,ITC,neutral,10,right,4,ITC_wait,0,undefined,0,0,487,167692,1586939
42,18,male,Belg,3,86,ITC,neutral,10,right,4,ITC_collect,1444,k,0,0,487,166245,1588386
42,18,male,Belg,3,86,ITC,neutral,10,right,4,ITC_outcome,0,undefined,0,0,507,165239,1589392
42,18,male,Belg,3,87,guess,loss,10,right,8,guess_start,922,space,0,0,507,164315,1590316
42,18,male,Belg,3,87,guess,loss,10,right,8,guess_choice,776,f,0,0,507,163534,1591097
42,18,male,Belg,3,87,guess,loss,10,right,8,guess_outcome,0,undefined,0,0,492,161978,1592653
42,18,male,Belg,3,87,ITC,loss,10,right,8,ITC_start,540,space,0,0,492,161436,1593195
42,18,male,Belg,3,87,ITC,loss,10,right,8,ITC_choice,814,j,0,0,492,160620,1594011
42,18,male,Belg,3,87,ITC,loss,10,right,8,ITC_wait,0,undefined,0,0,492,150611,1604020
42,18,male,Belg,3,87,ITC,loss,10,right,8,ITC_collect,633,k,0,0,492,149976,1604655
42,18,male,Belg,3,87,ITC,loss,10,right,8,ITC_outcome,0,undefined,0,0,512,148962,1605669
42,18,male,Belg,3,88,guess,loss,5,left,16,guess_start,613,space,0,0,512,148347,1606284
42,18,male,Belg,3,88,guess,loss,5,left,16,guess_choice,991,f,0,0,512,147351,1607280
42,18,male,Belg,3,88,guess,loss,5,left,16,guess_outcome,0,undefined,0,0,497,145783,1608848
42,18,male,Belg,3,88,ITC,loss,5,left,16,ITC_start,412,space,0,0,497,145368,1609263
42,18,male,Belg,3,88,ITC,loss,5,left,16,ITC_choice,672,f,0,0,497,144694,1609937
42,18,male,Belg,3,88,ITC,loss,5,left,16,ITC_wait,0,undefined,0,0,497,139691,1614940
42,18,male,Belg,3,88,ITC,loss,5,left,16,ITC_collect,930,k,0,0,497,138759,1615872
42,18,male,Belg,3,88,ITC,loss,5,left,16,ITC_outcome,0,undefined,0,0,517,137745,1616886
42,18,male,Belg,3,89,guess,neutral,10,left,1,guess_start,395,space,0,0,517,137347,1617284
42,18,male,Belg,3,89,guess,neutral,10,left,1,guess_choice,931,f,0,0,517,136412,1618219
42,18,male,Belg,3,89,guess,neutral,10,left,1,guess_outcome,0,undefined,0,0,517,134802,1619829
42,18,male,Belg,3,89,ITC,neutral,10,left,1,ITC_start,673,space,0,0,517,134120,1620511
42,18,male,Belg,3,89,ITC,neutral,10,left,1,ITC_choice,803,f,0,0,517,133315,1621316
42,18,male,Belg,3,89,ITC,neutral,10,left,1,ITC_wait,0,undefined,0,0,517,123305,1631326
42,18,male,Belg,3,89,ITC,neutral,10,left,1,ITC_collect,499,k,0,0,517,122800,1631831
42,18,male,Belg,3,89,ITC,neutral,10,left,1,ITC_outcome,0,undefined,0,0,537,121791,1632840
42,18,male,Belg,3,90,guess,win,5,right,15,guess_start,484,space,0,0,537,121300,1633331
42,18,male,Belg,3,90,guess,win,5,right,15,guess_choice,848,f,0,0,537,120447,1634184
42,18,male,Belg,3,90,guess,win,5,right,15,guess_outcome,0,undefined,0,0,557,118883,1635748
42,18,male,Belg,3,90,ITC,win,5,right,15,ITC_start,462,space,0,0,557,118419,1636212
42,18,male,Belg,3,90,ITC,win,5,right,15,ITC_choice,805,j,0,0,557,117612,1637019
42,18,male,Belg,3,90,ITC,win,5,right,15,ITC_wait,0,undefined,0,0,557,112603,1642028
42,18,male,Belg,3,90,ITC,win,5,right,15,ITC_collect,1007,k,0,0,557,111588,1643043
42,18,male,Belg,3,90,ITC,win,5,right,15,ITC_outcome,0,undefined,0,0,577,110572,1644059
42,18,male,Belg,3,91,guess,neutral,5,right,8,guess_start,512,space,0,0,577,110058,1644573
42,18,male,Belg,3,91,guess,neutral,5,right,8,guess_choice,768,f,0,0,577,109284,1645347
42,18,male,Belg,3,91,guess,neutral,5,right,8,guess_outcome,0,undefined,0,0,577,107680,1646951
42,18,male,Belg,3,91,ITC,neutral,5,right,8,ITC_start,597,space,0,0,577,107065,1647566
42,18,male,Belg,3,91,ITC,neutral,5,right,8,ITC_choice,669,j,0,0,577,106394,1648237
42,18,male,Belg,3,91,ITC,neutral,5,right,8,ITC_wait,0,undefined,0,0,577,101391,1653240
42,18,male,Belg,3,91,ITC,neutral,5,right,8,ITC_collect,776,k,0,0,577,100613,1654018
42,18,male,Belg,3,91,ITC,neutral,5,right,8,ITC_outcome,0,undefined,0,0,597,99599,1655032
42,18,male,Belg,3,92,guess,neutral,5,right,13,guess_start,476,space,0,0,597,99122,1655509
42,18,male,Belg,3,92,guess,neutral,5,right,13,guess_choice,572,j,0,0,597,98545,1656086
42,18,male,Belg,3,92,guess,neutral,5,right,13,guess_outcome,0,undefined,0,0,597,96981,1657650
42,18,male,Belg,3,92,ITC,neutral,5,right,13,ITC_start,382,space,0,0,597,96598,1658033
42,18,male,Belg,3,92,ITC,neutral,5,right,13,ITC_choice,776,j,0,0,597,95820,1658811
42,18,male,Belg,3,92,ITC,neutral,5,right,13,ITC_wait,0,undefined,0,0,597,90810,1663821
42,18,male,Belg,3,92,ITC,neutral,5,right,13,ITC_collect,1070,k,0,0,597,89737,1664894
42,18,male,Belg,3,92,ITC,neutral,5,right,13,ITC_outcome,0,undefined,0,0,617,88731,1665900
42,18,male,Belg,3,93,guess,loss,5,right,15,guess_start,564,space,0,0,617,88164,1666467
42,18,male,Belg,3,93,guess,loss,5,right,15,guess_choice,792,f,0,0,617,87368,1667263
42,18,male,Belg,3,93,guess,loss,5,right,15,guess_outcome,0,undefined,0,0,602,85812,1668819
42,18,male,Belg,3,93,ITC,loss,5,right,15,ITC_start,706,space,0,0,602,85104,1669527
42,18,male,Belg,3,93,ITC,loss,5,right,15,ITC_choice,1220,j,0,0,602,83883,1670748
42,18,male,Belg,3,93,ITC,loss,5,right,15,ITC_wait,0,undefined,0,0,602,78880,1675751
42,18,male,Belg,3,93,ITC,loss,5,right,15,ITC_collect,1387,k,0,0,602,77491,1677140
42,18,male,Belg,3,93,ITC,loss,5,right,15,ITC_outcome,0,undefined,0,0,622,76486,1678145
42,18,male,Belg,3,94,guess,win,5,left,5,guess_start,551,space,0,0,622,75933,1678698
42,18,male,Belg,3,94,guess,win,5,left,5,guess_choice,845,j,0,0,622,75083,1679548
42,18,male,Belg,3,94,guess,win,5,left,5,guess_outcome,0,undefined,0,0,642,73524,1681107
42,18,male,Belg,3,94,ITC,win,5,left,5,ITC_start,434,space,0,0,642,73089,1681542
42,18,male,Belg,3,94,ITC,win,5,left,5,ITC_choice,1528,f,0,0,642,71559,1683072
42,18,male,Belg,3,94,ITC,win,5,left,5,ITC_wait,0,undefined,0,0,642,66542,1688089
42,18,male,Belg,3,94,ITC,win,5,left,5,ITC_collect,386,k,0,0,642,66154,1688477
42,18,male,Belg,3,94,ITC,win,5,left,5,ITC_outcome,0,undefined,0,0,662,65149,1689482
42,18,male,Belg,3,95,guess,neutral,5,right,3,guess_start,380,space,0,0,662,64767,1689864
42,18,male,Belg,3,95,guess,neutral,5,right,3,guess_choice,805,f,0,0,662,63957,1690674
42,18,male,Belg,3,95,guess,neutral,5,right,3,guess_outcome,0,undefined,0,0,662,62390,1692241
42,18,male,Belg,3,95,ITC,neutral,5,right,3,ITC_start,422,space,0,0,662,61966,1692665
42,18,male,Belg,3,95,ITC,neutral,5,right,3,ITC_choice,645,j,0,0,662,61319,1693312
42,18,male,Belg,3,95,ITC,neutral,5,right,3,ITC_wait,0,undefined,0,0,662,56302,1698329
42,18,male,Belg,3,95,ITC,neutral,5,right,3,ITC_collect,784,k,0,0,662,55517,1699114
42,18,male,Belg,3,95,ITC,neutral,5,right,3,ITC_outcome,0,undefined,0,0,682,54499,1700132
42,18,male,Belg,3,96,guess,win,5,right,16,guess_start,515,space,0,0,682,53982,1700649
42,18,male,Belg,3,96,guess,win,5,right,16,guess_choice,794,f,0,0,682,53184,1701447
42,18,male,Belg,3,96,guess,win,5,right,16,guess_outcome,0,undefined,0,0,702,51628,1703003
42,18,male,Belg,3,96,ITC,win,5,right,16,ITC_start,468,space,0,0,702,51157,1703474
42,18,male,Belg,3,96,ITC,win,5,right,16,ITC_choice,709,j,0,0,702,50446,1704185
42,18,male,Belg,3,96,ITC,win,5,right,16,ITC_wait,0,undefined,0,0,702,45428,1709203
42,18,male,Belg,3,96,ITC,win,5,right,16,ITC_collect,1197,k,0,0,702,44228,1710403
42,18,male,Belg,3,96,ITC,win,5,right,16,ITC_outcome,0,undefined,0,0,722,43220,1711411
42,18,male,Belg,3,97,guess,loss,10,left,5,guess_start,346,space,0,0,722,42872,1711759
42,18,male,Belg,3,97,guess,loss,10,left,5,guess_choice,459,f,0,0,722,42409,1712222
42,18,male,Belg,3,97,guess,loss,10,left,5,guess_outcome,0,undefined,0,0,707,40850,1713781
42,18,male,Belg,3,97,ITC,loss,10,left,5,ITC_start,439,space,0,0,707,40409,1714222
42,18,male,Belg,3,97,ITC,loss,10,left,5,ITC_choice,726,f,0,0,707,39682,1714949
42,18,male,Belg,3,97,ITC,loss,10,left,5,ITC_wait,0,undefined,0,0,707,29676,1724955
42,18,male,Belg,3,97,ITC,loss,10,left,5,ITC_collect,1005,k,0,0,707,28663,1725968
42,18,male,Belg,3,97,ITC,loss,10,left,5,ITC_outcome,0,undefined,0,0,727,27645,1726986
42,18,male,Belg,3,98,guess,neutral,5,left,11,guess_start,636,space,0,0,727,27006,1727625
42,18,male,Belg,3,98,guess,neutral,5,left,11,guess_choice,752,f,0,0,727,26250,1728381
42,18,male,Belg,3,98,guess,neutral,5,left,11,guess_outcome,0,undefined,0,0,727,24682,1729949
42,18,male,Belg,3,98,ITC,neutral,5,left,11,ITC_start,559,space,0,0,727,24121,1730510
42,18,male,Belg,3,98,ITC,neutral,5,left,11,ITC_choice,955,f,0,0,727,23164,1731467
42,18,male,Belg,3,98,ITC,neutral,5,left,11,ITC_wait,0,undefined,0,0,727,18160,1736471
42,18,male,Belg,3,98,ITC,neutral,5,left,11,ITC_collect,441,k,0,0,727,17717,1736914
42,18,male,Belg,3,98,ITC,neutral,5,left,11,ITC_outcome,0,undefined,0,0,747,16705,1737926
42,18,male,Belg,3,99,guess,neutral,5,right,4,guess_start,393,space,0,0,747,16303,1738328
42,18,male,Belg,3,99,guess,neutral,5,right,4,guess_choice,690,f,0,0,747,15608,1739023
42,18,male,Belg,3,99,guess,neutral,5,right,4,guess_outcome,0,undefined,0,0,747,14047,1740584
42,18,male,Belg,3,99,ITC,neutral,5,right,4,ITC_start,413,space,0,0,747,13632,1740999
42,18,male,Belg,3,99,ITC,neutral,5,right,4,ITC_choice,745,j,0,0,747,12886,1741745
42,18,male,Belg,3,99,ITC,neutral,5,right,4,ITC_wait,0,undefined,0,0,747,7876,1746755
42,18,male,Belg,3,99,ITC,neutral,5,right,4,ITC_collect,890,k,0,0,747,6984,1747647
42,18,male,Belg,3,99,ITC,neutral,5,right,4,ITC_outcome,0,undefined,0,0,767,5975,1748656
42,18,male,Belg,3,100,guess,loss,10,right,4,guess_start,418,space,0,0,767,5555,1749076
42,18,male,Belg,3,100,guess,loss,10,right,4,guess_choice,499,f,0,0,767,5052,1749579
42,18,male,Belg,3,100,guess,loss,10,right,4,guess_outcome,0,undefined,0,0,752,3470,1751161
42,18,male,Belg,3,100,ITC,loss,10,right,4,ITC_start,382,space,0,0,752,3083,1751548
42,18,male,Belg,3,100,ITC,loss,10,right,4,ITC_choice,857,j,0,0,752,2224,1752407
42,18,male,Belg,3,100,ITC,loss,10,right,4,ITC_wait,0,undefined,0,0,752,-7,1754638
42,18,male,Belg,4,101,guess,win,5,right,9,guess_start,2092,space,0,0,0,477907,1840376
42,18,male,Belg,4,101,guess,win,5,right,9,guess_choice,707,f,0,0,0,477197,1841086
42,18,male,Belg,4,101,guess,win,5,right,9,guess_outcome,0,undefined,0,0,20,475638,1842645
42,18,male,Belg,4,101,ITC,win,5,right,9,ITC_start,368,space,0,0,20,475268,1843015
42,18,male,Belg,4,101,ITC,win,5,right,9,ITC_choice,1080,j,0,0,20,474185,1844098
42,18,male,Belg,4,101,ITC,win,5,right,9,ITC_wait,0,undefined,0,0,20,469179,1849104
42,18,male,Belg,4,101,ITC,win,5,right,9,ITC_collect,582,k,0,0,20,468594,1849689
42,18,male,Belg,4,101,ITC,win,5,right,9,ITC_outcome,0,undefined,0,0,40,467588,1850695
42,18,male,Belg,4,102,guess,loss,10,right,2,guess_start,500,space,0,0,40,467084,1851199
42,18,male,Belg,4,102,guess,loss,10,right,2,guess_choice,647,f,0,0,40,466433,1851850
42,18,male,Belg,4,102,guess,loss,10,right,2,guess_outcome,0,undefined,0,0,25,464876,1853407
42,18,male,Belg,4,102,ITC,loss,10,right,2,ITC_start,384,space,0,0,25,464490,1853793
42,18,male,Belg,4,102,ITC,loss,10,right,2,ITC_choice,749,j,0,0,25,463740,1854543
42,18,male,Belg,4,102,ITC,loss,10,right,2,ITC_wait,0,undefined,0,0,25,453732,1864551
42,18,male,Belg,4,102,ITC,loss,10,right,2,ITC_collect,672,k,0,0,25,453058,1865225
42,18,male,Belg,4,102,ITC,loss,10,right,2,ITC_outcome,0,undefined,0,0,45,452049,1866234
42,18,male,Belg,4,103,guess,loss,10,left,1,guess_start,876,space,0,0,45,451171,1867112
42,18,male,Belg,4,103,guess,loss,10,left,1,guess_choice,865,f,0,0,45,450301,1867982
42,18,male,Belg,4,103,guess,loss,10,left,1,guess_outcome,0,undefined,0,0,30,448745,1869538
42,18,male,Belg,4,103,ITC,loss,10,left,1,ITC_start,680,space,0,0,30,448063,1870220
42,18,male,Belg,4,103,ITC,loss,10,left,1,ITC_choice,1374,f,0,0,30,446688,1871595
42,18,male,Belg,4,103,ITC,loss,10,left,1,ITC_wait,0,undefined,0,0,30,436674,1881609
42,18,male,Belg,4,103,ITC,loss,10,left,1,ITC_collect,907,k,0,0,30,435765,1882518
42,18,male,Belg,4,103,ITC,loss,10,left,1,ITC_outcome,0,undefined,0,0,50,434753,1883530
42,18,male,Belg,4,104,guess,win,5,right,7,guess_start,665,space,0,0,50,434085,1884198
42,18,male,Belg,4,104,guess,win,5,right,7,guess_choice,1032,j,0,0,50,433049,1885234
42,18,male,Belg,4,104,guess,win,5,right,7,guess_outcome,0,undefined,0,0,70,431491,1886792
42,18,male,Belg,4,104,ITC,win,5,right,7,ITC_start,482,space,0,0,70,431008,1887275
42,18,male,Belg,4,104,ITC,win,5,right,7,ITC_choice,755,j,0,0,70,430251,1888032
42,18,male,Belg,4,104,ITC,win,5,right,7,ITC_wait,0,undefined,0,0,70,425247,1893036
42,18,male,Belg,4,104,ITC,win,5,right,7,ITC_collect,593,k,0,0,70,424652,1893631
42,18,male,Belg,4,104,ITC,win,5,right,7,ITC_outcome,0,undefined,0,0,90,423633,1894650
42,18,male,Belg,4,105,guess,neutral,5,left,6,guess_start,879,space,0,0,90,422752,1895531
42,18,male,Belg,4,105,guess,neutral,5,left,6,guess_choice,645,j,0,0,90,422103,1896180
42,18,male,Belg,4,105,guess,neutral,5,left,6,guess_outcome,0,undefined,0,0,90,420545,1897738
42,18,male,Belg,4,105,ITC,neutral,5,left,6,ITC_start,311,space,0,0,90,420232,1898051
42,18,male,Belg,4,105,ITC,neutral,5,left,6,ITC_choice,1133,f,0,0,90,419097,1899186
42,18,male,Belg,4,105,ITC,neutral,5,left,6,ITC_wait,0,undefined,0,0,90,414091,1904192
42,18,male,Belg,4,105,ITC,neutral,5,left,6,ITC_collect,1114,k,0,0,90,412971,1905312
42,18,male,Belg,4,105,ITC,neutral,5,left,6,ITC_outcome,0,undefined,0,0,110,411953,1906330
42,18,male,Belg,4,106,guess,neutral,10,left,2,guess_start,682,space,0,0,110,411266,1907017
42,18,male,Belg,4,106,guess,neutral,10,left,2,guess_choice,671,f,0,0,110,410591,1907692
42,18,male,Belg,4,106,guess,neutral,10,left,2,guess_outcome,0,undefined,0,0,110,409029,1909254
42,18,male,Belg,4,106,ITC,neutral,10,left,2,ITC_start,435,space,0,0,110,408593,1909690
42,18,male,Belg,4,106,ITC,neutral,10,left,2,ITC_choice,1023,f,0,0,110,407568,1910715
42,18,male,Belg,4,106,ITC,neutral,10,left,2,ITC_wait,0,undefined,0,0,110,397556,1920727
42,18,male,Belg,4,106,ITC,neutral,10,left,2,ITC_collect,1807,k,0,0,110,395747,1922536
42,18,male,Belg,4,106,ITC,neutral,10,left,2,ITC_outcome,0,undefined,0,0,130,394742,1923541
42,18,male,Belg,4,107,guess,loss,10,right,7,guess_start,793,space,0,0,130,393947,1924336
42,18,male,Belg,4,107,guess,loss,10,right,7,guess_choice,1343,f,0,0,130,392600,1925683
42,18,male,Belg,4,107,guess,loss,10,right,7,guess_outcome,0,undefined,0,0,115,391031,1927252
42,18,male,Belg,4,107,ITC,loss,10,right,7,ITC_start,1394,space,0,0,115,389636,1928647
42,18,male,Belg,4,107,ITC,loss,10,right,7,ITC_choice,1062,j,0,0,115,388571,1929712
42,18,male,Belg,4,107,ITC,loss,10,right,7,ITC_wait,0,undefined,0,0,115,378563,1939720
42,18,male,Belg,4,107,ITC,loss,10,right,7,ITC_collect,1052,k,0,0,115,377508,1940775
42,18,male,Belg,4,107,ITC,loss,10,right,7,ITC_outcome,0,undefined,0,0,135,376497,1941786
42,18,male,Belg,4,108,guess,loss,5,right,6,guess_start,447,space,0,0,135,376047,1942236
42,18,male,Belg,4,108,guess,loss,5,right,6,guess_choice,676,j,0,0,135,375367,1942916
42,18,male,Belg,4,108,guess,loss,5,right,6,guess_outcome,0,undefined,0,0,120,373810,1944473
42,18,male,Belg,4,108,ITC,loss,5,right,6,ITC_start,312,space,0,0,120,373496,1944787
42,18,male,Belg,4,108,ITC,loss,5,right,6,ITC_choice,684,j,0,0,120,372811,1945472
42,18,male,Belg,4,108,ITC,loss,5,right,6,ITC_wait,0,undefined,0,0,120,367798,1950485
42,18,male,Belg,4,108,ITC,loss,5,right,6,ITC_collect,628,k,0,0,120,367169,1951114
42,18,male,Belg,4,108,ITC,loss,5,right,6,ITC_outcome,0,undefined,0,0,140,366155,1952128
42,18,male,Belg,4,109,guess,win,5,right,4,guess_start,316,space,0,0,140,365837,1952446
42,18,male,Belg,4,109,guess,win,5,right,4,guess_choice,841,f,0,0,140,364992,1953291
42,18,male,Belg,4,109,guess,win,5,right,4,guess_outcome,0,undefined,0,0,160,363428,1954855
42,18,male,Belg,4,109,ITC,win,5,right,4,ITC_start,557,space,0,0,160,362869,1955414
42,18,male,Belg,4,109,ITC,win,5,right,4,ITC_choice,750,j,0,0,160,362117,1956166
42,18,male,Belg,4,109,ITC,win,5,right,4,ITC_wait,0,undefined,0,0,160,357102,1961181
42,18,male,Belg,4,109,ITC,win,5,right,4,ITC_collect,400,k,0,0,160,356700,1961583
42,18,male,Belg,4,109,ITC,win,5,right,4,ITC_outcome,0,undefined,0,0,180,355692,1962591
42,18,male,Belg,4,110,guess,neutral,10,right,7,guess_start,270,space,0,0,180,355419,1962864
42,18,male,Belg,4,110,guess,neutral,10,right,7,guess_choice,514,j,0,0,180,354901,1963382
42,18,male,Belg,4,110,guess,neutral,10,right,7,guess_outcome,0,undefined,0,0,180,353337,1964946
42,18,male,Belg,4,110,ITC,neutral,10,right,7,ITC_start,236,space,0,0,180,353098,1965185
42,18,male,Belg,4,110,ITC,neutral,10,right,7,ITC_choice,972,j,0,0,180,352124,1966159
42,18,male,Belg,4,110,ITC,neutral,10,right,7,ITC_wait,0,undefined,0,0,180,342120,1976163
42,18,male,Belg,4,110,ITC,neutral,10,right,7,ITC_collect,884,k,0,0,180,341234,1977049
42,18,male,Belg,4,110,ITC,neutral,10,right,7,ITC_outcome,0,undefined,0,0,200,340218,1978065
42,18,male,Belg,4,111,guess,win,10,right,7,guess_start,265,space,0,0,200,339951,1978332
42,18,male,Belg,4,111,guess,win,10,right,7,guess_choice,449,j,0,0,200,339499,1978784
42,18,male,Belg,4,111,guess,win,10,right,7,guess_outcome,0,undefined,0,0,220,337931,1980352
42,18,male,Belg,4,111,ITC,win,10,right,7,ITC_start,301,space,0,0,220,337629,1980654
42,18,male,Belg,4,111,ITC,win,10,right,7,ITC_choice,1529,f,0,0,220,336099,1982184
42,18,male,Belg,4,111,ITC,win,10,right,7,ITC_wait,0,undefined,0,0,220,336096,1982187
42,18,male,Belg,4,111,ITC,win,10,right,7,ITC_collect,678,k,0,0,220,335414,1982869
42,18,male,Belg,4,111,ITC,win,10,right,7,ITC_outcome,0,undefined,0,0,227,334397,1983886
42,18,male,Belg,4,112,guess,win,5,left,11,guess_start,509,space,0,0,227,333886,1984397
42,18,male,Belg,4,112,guess,win,5,left,11,guess_choice,664,f,0,0,227,333218,1985065
42,18,male,Belg,4,112,guess,win,5,left,11,guess_outcome,0,undefined,0,0,247,331655,1986628
42,18,male,Belg,4,112,ITC,win,5,left,11,ITC_start,695,space,0,0,247,330957,1987326
42,18,male,Belg,4,112,ITC,win,5,left,11,ITC_choice,818,f,0,0,247,330137,1988146
42,18,male,Belg,4,112,ITC,win,5,left,11,ITC_wait,0,undefined,0,0,247,325119,1993164
42,18,male,Belg,4,112,ITC,win,5,left,11,ITC_collect,351,k,0,0,247,324766,1993517
42,18,male,Belg,4,112,ITC,win,5,left,11,ITC_outcome,0,undefined,0,0,267,323751,1994532
42,18,male,Belg,4,113,guess,loss,5,right,3,guess_start,296,space,0,0,267,323453,1994830
42,18,male,Belg,4,113,guess,loss,5,right,3,guess_choice,455,j,0,0,267,322993,1995290
42,18,male,Belg,4,113,guess,loss,5,right,3,guess_outcome,0,undefined,0,0,252,321427,1996856
42,18,male,Belg,4,113,ITC,loss,5,right,3,ITC_start,449,space,0,0,252,320976,1997307
42,18,male,Belg,4,113,ITC,loss,5,right,3,ITC_choice,893,j,0,0,252,320080,1998203
42,18,male,Belg,4,113,ITC,loss,5,right,3,ITC_wait,0,undefined,0,0,252,315065,2003218
42,18,male,Belg,4,113,ITC,loss,5,right,3,ITC_collect,280,k,0,0,252,314783,2003500
42,18,male,Belg,4,113,ITC,loss,5,right,3,ITC_outcome,0,undefined,0,0,272,313769,2004514
42,18,male,Belg,4,114,guess,win,10,right,4,guess_start,392,space,0,0,272,313375,2004908
42,18,male,Belg,4,114,guess,win,10,right,4,guess_choice,543,f,0,0,272,312828,2005455
42,18,male,Belg,4,114,guess,win,10,right,4,guess_outcome,0,undefined,0,0,292,311264,2007019
42,18,male,Belg,4,114,ITC,win,10,right,4,ITC_start,745,space,0,0,292,310518,2007765
42,18,male,Belg,4,114,ITC,win,10,right,4,ITC_choice,1093,j,0,0,292,309423,2008860
42,18,male,Belg,4,114,ITC,win,10,right,4,ITC_wait,0,undefined,0,0,292,299408,2018875
42,18,male,Belg,4,114,ITC,win,10,right,4,ITC_collect,445,k,0,0,292,298961,2019322
42,18,male,Belg,4,114,ITC,win,10,right,4,ITC_outcome,0,undefined,0,0,312,297952,2020331
42,18,male,Belg,4,115,guess,win,5,right,8,guess_start,306,space,0,0,312,297643,2020640
42,18,male,Belg,4,115,guess,win,5,right,8,guess_choice,781,j,0,0,312,296858,2021425
42,18,male,Belg,4,115,guess,win,5,right,8,guess_outcome,0,undefined,0,0,332,295292,2022991
42,18,male,Belg,4,115,ITC,win,5,right,8,ITC_start,521,space,0,0,332,294769,2023514
42,18,male,Belg,4,115,ITC,win,5,right,8,ITC_choice,711,j,0,0,332,294056,2024227
42,18,male,Belg,4,115,ITC,win,5,right,8,ITC_wait,0,undefined,0,0,332,289047,2029236
42,18,male,Belg,4,115,ITC,win,5,right,8,ITC_collect,522,k,0,0,332,288522,2029761
42,18,male,Belg,4,115,ITC,win,5,right,8,ITC_outcome,0,undefined,0,0,352,287512,2030771
42,18,male,Belg,4,116,guess,loss,5,left,10,guess_start,737,space,0,0,352,286772,2031511
42,18,male,Belg,4,116,guess,loss,5,left,10,guess_choice,809,f,0,0,352,285957,2032326
42,18,male,Belg,4,116,guess,loss,5,left,10,guess_outcome,0,undefined,0,0,337,284390,2033893
42,18,male,Belg,4,116,ITC,loss,5,left,10,ITC_start,380,space,0,0,337,284008,2034275
42,18,male,Belg,4,116,ITC,loss,5,left,10,ITC_wait,0,undefined,0,0,337,277525,2040758
42,18,male,Belg,4,116,ITC,loss,5,left,10,ITC_choice,1466,f,0,0,337,282540,2035743
42,18,male,Belg,4,116,ITC,loss,5,left,10,ITC_collect,481,k,0,0,337,277041,2041242
42,18,male,Belg,4,116,ITC,loss,5,left,10,ITC_outcome,0,undefined,0,0,357,276033,2042250
42,18,male,Belg,4,117,guess,loss,5,right,7,guess_start,312,space,0,0,357,275719,2042564
42,18,male,Belg,4,117,guess,loss,5,right,7,guess_choice,394,j,0,0,357,275321,2042962
42,18,male,Belg,4,117,guess,loss,5,right,7,guess_outcome,0,undefined,0,0,342,273759,2044524
42,18,male,Belg,4,117,ITC,loss,5,right,7,ITC_start,381,space,0,0,342,273377,2044906
42,18,male,Belg,4,117,ITC,loss,5,right,7,ITC_choice,1040,j,0,0,342,272335,2045948
42,18,male,Belg,4,117,ITC,loss,5,right,7,ITC_wait,0,undefined,0,0,342,267324,2050959
42,18,male,Belg,4,117,ITC,loss,5,right,7,ITC_collect,303,k,0,0,342,267019,2051264
42,18,male,Belg,4,117,ITC,loss,5,right,7,ITC_outcome,0,undefined,0,0,362,266010,2052273
42,18,male,Belg,4,118,guess,win,5,left,2,guess_start,361,space,0,0,362,265646,2052637
42,18,male,Belg,4,118,guess,win,5,left,2,guess_choice,479,f,0,0,362,265164,2053119
42,18,male,Belg,4,118,guess,win,5,left,2,guess_outcome,0,undefined,0,0,382,263600,2054683
42,18,male,Belg,4,118,ITC,win,5,left,2,ITC_start,467,space,0,0,382,263131,2055152
42,18,male,Belg,4,118,ITC,win,5,left,2,ITC_choice,1347,f,0,0,382,261780,2056503
42,18,male,Belg,4,118,ITC,win,5,left,2,ITC_wait,0,undefined,0,0,382,256766,2061517
42,18,male,Belg,4,118,ITC,win,5,left,2,ITC_collect,442,k,0,0,382,256320,2061963
42,18,male,Belg,4,118,ITC,win,5,left,2,ITC_outcome,0,undefined,0,0,402,255307,2062976
42,18,male,Belg,4,119,guess,win,10,right,3,guess_start,548,space,0,0,402,254757,2063526
42,18,male,Belg,4,119,guess,win,10,right,3,guess_choice,576,f,0,0,402,254178,2064105
42,18,male,Belg,4,119,guess,win,10,right,3,guess_outcome,0,undefined,0,0,422,252624,2065659
42,18,male,Belg,4,119,ITC,win,10,right,3,ITC_start,817,space,0,0,422,251805,2066478
42,18,male,Belg,4,119,ITC,win,10,right,3,ITC_choice,1185,j,0,0,422,250618,2067665
42,18,male,Belg,4,119,ITC,win,10,right,3,ITC_wait,0,undefined,0,0,422,240612,2077671
42,18,male,Belg,4,119,ITC,win,10,right,3,ITC_collect,798,k,0,0,422,239811,2078472
42,18,male,Belg,4,119,ITC,win,10,right,3,ITC_outcome,0,undefined,0,0,442,238793,2079490
42,18,male,Belg,4,120,guess,win,10,right,2,guess_start,466,space,0,0,442,238326,2079957
42,18,male,Belg,4,120,guess,win,10,right,2,guess_choice,548,j,0,0,442,237772,2080511
42,18,male,Belg,4,120,guess,win,10,right,2,guess_outcome,0,undefined,0,0,462,236215,2082068
42,18,male,Belg,4,120,ITC,win,10,right,2,ITC_start,810,space,0,0,462,235403,2082880
42,18,male,Belg,4,120,ITC,win,10,right,2,ITC_choice,843,j,0,0,462,234559,2083724
42,18,male,Belg,4,120,ITC,win,10,right,2,ITC_wait,0,undefined,0,0,462,224548,2093735
42,18,male,Belg,4,120,ITC,win,10,right,2,ITC_collect,355,k,0,0,462,224191,2094092
42,18,male,Belg,4,120,ITC,win,10,right,2,ITC_outcome,0,undefined,0,0,482,223180,2095103
42,18,male,Belg,4,121,guess,neutral,5,left,10,guess_start,660,space,0,0,482,222518,2095765
42,18,male,Belg,4,121,guess,neutral,5,left,10,guess_choice,600,f,0,0,482,221914,2096369
42,18,male,Belg,4,121,guess,neutral,5,left,10,guess_outcome,0,undefined,0,0,482,220357,2097926
42,18,male,Belg,4,121,ITC,neutral,5,left,10,ITC_start,426,space,0,0,482,219929,2098354
42,18,male,Belg,4,121,ITC,neutral,5,left,10,ITC_choice,1307,f,0,0,482,218620,2099663
42,18,male,Belg,4,121,ITC,neutral,5,left,10,ITC_wait,0,undefined,0,0,482,213601,2104682
42,18,male,Belg,4,121,ITC,neutral,5,left,10,ITC_collect,326,k,0,0,482,213273,2105010
42,18,male,Belg,4,121,ITC,neutral,5,left,10,ITC_outcome,0,undefined,0,0,502,212267,2106016
42,18,male,Belg,4,122,guess,neutral,5,left,15,guess_start,955,space,0,0,502,211310,2106973
42,18,male,Belg,4,122,guess,neutral,5,left,15,guess_choice,771,f,0,0,502,210535,2107748
42,18,male,Belg,4,122,guess,neutral,5,left,15,guess_outcome,0,undefined,0,0,502,208974,2109309
42,18,male,Belg,4,122,ITC,neutral,5,left,15,ITC_start,380,space,0,0,502,208592,2109691
42,18,male,Belg,4,122,ITC,neutral,5,left,15,ITC_choice,1171,j,0,0,502,207418,2110865
42,18,male,Belg,4,122,ITC,neutral,5,left,15,ITC_wait,0,undefined,0,0,502,207414,2110869
42,18,male,Belg,4,122,ITC,neutral,5,left,15,ITC_collect,612,k,0,0,502,206800,2111483
42,18,male,Belg,4,122,ITC,neutral,5,left,15,ITC_outcome,0,undefined,0,0,517,205788,2112495
42,18,male,Belg,4,123,guess,neutral,5,right,1,guess_start,807,space,0,0,517,204980,2113303
42,18,male,Belg,4,123,guess,neutral,5,right,1,guess_choice,589,j,0,0,517,204386,2113897
42,18,male,Belg,4,123,guess,neutral,5,right,1,guess_outcome,0,undefined,0,0,517,202825,2115458
42,18,male,Belg,4,123,ITC,neutral,5,right,1,ITC_start,296,space,0,0,517,202527,2115756
42,18,male,Belg,4,123,ITC,neutral,5,right,1,ITC_choice,1110,j,0,0,517,201415,2116868
42,18,male,Belg,4,123,ITC,neutral,5,right,1,ITC_wait,0,undefined,0,0,517,196402,2121881
42,18,male,Belg,4,123,ITC,neutral,5,right,1,ITC_collect,324,k,0,0,517,196076,2122207
42,18,male,Belg,4,123,ITC,neutral,5,right,1,ITC_outcome,0,undefined,0,0,537,195058,2123225
42,18,male,Belg,4,124,guess,neutral,10,right,5,guess_start,454,space,0,0,537,194602,2123681
42,18,male,Belg,4,124,guess,neutral,10,right,5,guess_choice,341,j,0,0,537,194256,2124027
42,18,male,Belg,4,124,guess,neutral,10,right,5,guess_outcome,0,undefined,0,0,537,192687,2125596
42,18,male,Belg,4,124,ITC,neutral,10,right,5,ITC_start,403,space,0,0,537,192283,2126000
42,18,male,Belg,4,124,ITC,neutral,10,right,5,ITC_choice,986,j,0,0,537,191295,2126988
42,18,male,Belg,4,124,ITC,neutral,10,right,5,ITC_wait,0,undefined,0,0,537,181288,2136995
42,18,male,Belg,4,124,ITC,neutral,10,right,5,ITC_collect,1285,k,0,0,537,180002,2138281
42,18,male,Belg,4,124,ITC,neutral,10,right,5,ITC_outcome,0,undefined,0,0,557,178984,2139299
42,18,male,Belg,4,125,guess,loss,5,left,2,guess_start,943,space,0,0,557,178034,2140249
42,18,male,Belg,4,125,guess,loss,5,left,2,guess_choice,1182,f,0,0,557,176847,2141436
42,18,male,Belg,4,125,guess,loss,5,left,2,guess_outcome,0,undefined,0,0,542,175284,2142999
42,18,male,Belg,4,125,ITC,loss,5,left,2,ITC_start,388,space,0,0,542,174894,2143389
42,18,male,Belg,4,125,ITC,loss,5,left,2,ITC_choice,1189,f,0,0,542,173703,2144580
42,18,male,Belg,4,125,ITC,loss,5,left,2,ITC_wait,0,undefined,0,0,542,168687,2149596
42,18,male,Belg,4,125,ITC,loss,5,left,2,ITC_collect,819,k,0,0,542,167867,2150416
42,18,male,Belg,4,125,ITC,loss,5,left,2,ITC_outcome,0,undefined,0,0,562,166851,2151432
42,18,male,Belg,4,126,guess,loss,5,left,13,guess_start,464,space,0,0,562,166384,2151899
42,18,male,Belg,4,126,guess,loss,5,left,13,guess_choice,535,j,0,0,562,165846,2152437
42,18,male,Belg,4,126,guess,loss,5,left,13,guess_outcome,0,undefined,0,0,547,164283,2154000
42,18,male,Belg,4,126,ITC,loss,5,left,13,ITC_start,376,space,0,0,547,163906,2154377
42,18,male,Belg,4,126,ITC,loss,5,left,13,ITC_wait,0,undefined,0,0,547,162592,2155691
42,18,male,Belg,4,126,ITC,loss,5,left,13,ITC_choice,1308,j,0,0,547,162595,2155688
42,18,male,Belg,4,126,ITC,loss,5,left,13,ITC_collect,330,k,0,0,547,162257,2156026
42,18,male,Belg,4,126,ITC,loss,5,left,13,ITC_outcome,0,undefined,0,0,560,161244,2157039
42,18,male,Belg,4,127,guess,loss,5,right,12,guess_start,535,space,0,0,560,160706,2157577
42,18,male,Belg,4,127,guess,loss,5,right,12,guess_choice,865,f,0,0,560,159838,2158445
42,18,male,Belg,4,127,guess,loss,5,right,12,guess_outcome,0,undefined,0,0,545,158272,2160011
42,18,male,Belg,4,127,ITC,loss,5,right,12,ITC_start,452,space,0,0,545,157819,2160464
42,18,male,Belg,4,127,ITC,loss,5,right,12,ITC_choice,1623,j,0,0,545,156193,2162090
42,18,male,Belg,4,127,ITC,loss,5,right,12,ITC_wait,0,undefined,0,0,545,151190,2167093
42,18,male,Belg,4,127,ITC,loss,5,right,12,ITC_collect,381,k,0,0,545,150806,2167477
42,18,male,Belg,4,127,ITC,loss,5,right,12,ITC_outcome,0,undefined,0,0,565,149796,2168487
42,18,male,Belg,4,128,guess,loss,5,left,1,guess_start,399,space,0,0,565,149395,2168888
42,18,male,Belg,4,128,guess,loss,5,left,1,guess_choice,452,j,0,0,565,148939,2169344
42,18,male,Belg,4,128,guess,loss,5,left,1,guess_outcome,0,undefined,0,0,550,147376,2170907
42,18,male,Belg,4,128,ITC,loss,5,left,1,ITC_start,1600,space,0,0,550,145775,2172508
42,18,male,Belg,4,128,ITC,loss,5,left,1,ITC_choice,1305,f,0,0,550,144467,2173816
42,18,male,Belg,4,128,ITC,loss,5,left,1,ITC_wait,0,undefined,0,0,550,139460,2178823
42,18,male,Belg,4,128,ITC,loss,5,left,1,ITC_collect,464,k,0,0,550,138994,2179289
42,18,male,Belg,4,128,ITC,loss,5,left,1,ITC_outcome,0,undefined,0,0,570,137982,2180301
42,18,male,Belg,4,129,guess,win,10,left,5,guess_start,528,space,0,0,570,137453,2180830
42,18,male,Belg,4,129,guess,win,10,left,5,guess_choice,609,j,0,0,570,136838,2181445
42,18,male,Belg,4,129,guess,win,10,left,5,guess_outcome,0,undefined,0,0,590,135282,2183001
42,18,male,Belg,4,129,ITC,win,10,left,5,ITC_start,533,space,0,0,590,134747,2183536
42,18,male,Belg,4,129,ITC,win,10,left,5,ITC_choice,1017,f,0,0,590,133728,2184555
42,18,male,Belg,4,129,ITC,win,10,left,5,ITC_wait,0,undefined,0,0,590,123712,2194571
42,18,male,Belg,4,129,ITC,win,10,left,5,ITC_collect,426,k,0,0,590,123283,2195000
42,18,male,Belg,4,129,ITC,win,10,left,5,ITC_outcome,0,undefined,0,0,610,122269,2196014
42,18,male,Belg,4,130,guess,loss,5,left,4,guess_start,450,space,0,0,610,121817,2196466
42,18,male,Belg,4,130,guess,loss,5,left,4,guess_choice,505,f,0,0,610,121307,2196976
42,18,male,Belg,4,130,guess,loss,5,left,4,guess_outcome,0,undefined,0,0,595,119753,2198530
42,18,male,Belg,4,130,ITC,loss,5,left,4,ITC_start,421,space,0,0,595,119330,2198953
42,18,male,Belg,4,130,ITC,loss,5,left,4,ITC_choice,821,f,0,0,595,118507,2199776
42,18,male,Belg,4,130,ITC,loss,5,left,4,ITC_wait,0,undefined,0,0,595,113499,2204784
42,18,male,Belg,4,130,ITC,loss,5,left,4,ITC_collect,693,k,0,0,595,112804,2205479
42,18,male,Belg,4,130,ITC,loss,5,left,4,ITC_outcome,0,undefined,0,0,615,111793,2206490
42,18,male,Belg,4,131,guess,neutral,5,right,9,guess_start,388,space,0,0,615,111403,2206880
42,18,male,Belg,4,131,guess,neutral,5,right,9,guess_choice,577,j,0,0,615,110822,2207461
42,18,male,Belg,4,131,guess,neutral,5,right,9,guess_outcome,0,undefined,0,0,615,109253,2209030
42,18,male,Belg,4,131,ITC,neutral,5,right,9,ITC_start,316,space,0,0,615,108934,2209349
42,18,male,Belg,4,131,ITC,neutral,5,right,9,ITC_choice,900,j,0,0,615,108032,2210251
42,18,male,Belg,4,131,ITC,neutral,5,right,9,ITC_wait,0,undefined,0,0,615,103019,2215264
42,18,male,Belg,4,131,ITC,neutral,5,right,9,ITC_collect,711,k,0,0,615,102300,2215983
42,18,male,Belg,4,131,ITC,neutral,5,right,9,ITC_outcome,0,undefined,0,0,635,101289,2216994
42,18,male,Belg,4,132,guess,loss,10,right,6,guess_start,796,space,0,0,635,100491,2217792
42,18,male,Belg,4,132,guess,loss,10,right,6,guess_choice,544,j,0,0,635,99942,2218341
42,18,male,Belg,4,132,guess,loss,10,right,6,guess_outcome,0,undefined,0,0,620,98375,2219908
42,18,male,Belg,4,132,ITC,loss,10,right,6,ITC_start,430,space,0,0,620,97939,2220344
42,18,male,Belg,4,132,ITC,loss,10,right,6,ITC_choice,789,j,0,0,620,97148,2221135
42,18,male,Belg,4,132,ITC,loss,10,right,6,ITC_wait,0,undefined,0,0,620,87132,2231151
42,18,male,Belg,4,132,ITC,loss,10,right,6,ITC_collect,329,k,0,0,620,86800,2231483
42,18,male,Belg,4,132,ITC,loss,10,right,6,ITC_outcome,0,undefined,0,0,640,85794,2232489
42,18,male,Belg,4,133,guess,loss,5,left,14,guess_start,727,space,0,0,640,85064,2233219
42,18,male,Belg,4,133,guess,loss,5,left,14,guess_choice,499,f,0,0,640,84561,2233722
42,18,male,Belg,4,133,guess,loss,5,left,14,guess_outcome,0,undefined,0,0,625,82999,2235284
42,18,male,Belg,4,133,ITC,loss,5,left,14,ITC_start,495,space,0,0,625,82502,2235781
42,18,male,Belg,4,133,ITC,loss,5,left,14,ITC_choice,981,f,0,0,625,81519,2236764
42,18,male,Belg,4,133,ITC,loss,5,left,14,ITC_wait,0,undefined,0,0,625,76506,2241777
42,18,male,Belg,4,133,ITC,loss,5,left,14,ITC_collect,500,k,0,0,625,76004,2242279
42,18,male,Belg,4,133,ITC,loss,5,left,14,ITC_outcome,0,undefined,0,0,645,74998,2243285
42,18,male,Belg,4,134,guess,win,5,left,10,guess_start,968,space,0,0,645,74028,2244255
42,18,male,Belg,4,134,guess,win,5,left,10,guess_choice,478,j,0,0,645,73545,2244738
42,18,male,Belg,4,134,guess,win,5,left,10,guess_outcome,0,undefined,0,0,665,71978,2246305
42,18,male,Belg,4,134,ITC,win,5,left,10,ITC_start,1356,space,0,0,665,70621,2247662
42,18,male,Belg,4,134,ITC,win,5,left,10,ITC_choice,1313,f,0,0,665,69306,2248977
42,18,male,Belg,4,134,ITC,win,5,left,10,ITC_wait,0,undefined,0,0,665,64300,2253983
42,18,male,Belg,4,134,ITC,win,5,left,10,ITC_collect,592,k,0,0,665,63706,2254577
42,18,male,Belg,4,134,ITC,win,5,left,10,ITC_outcome,0,undefined,0,0,685,62693,2255590
42,18,male,Belg,4,135,guess,neutral,10,left,8,guess_start,486,space,0,0,685,62204,2256079
42,18,male,Belg,4,135,guess,neutral,10,left,8,guess_choice,680,f,0,0,685,61520,2256763
42,18,male,Belg,4,135,guess,neutral,10,left,8,guess_outcome,0,undefined,0,0,685,59958,2258325
42,18,male,Belg,4,135,ITC,neutral,10,left,8,ITC_start,836,space,0,0,685,59121,2259162
42,18,male,Belg,4,135,ITC,neutral,10,left,8,ITC_choice,822,f,0,0,685,58297,2259986
42,18,male,Belg,4,135,ITC,neutral,10,left,8,ITC_wait,0,undefined,0,0,685,48292,2269991
42,18,male,Belg,4,135,ITC,neutral,10,left,8,ITC_collect,1178,k,0,0,685,47113,2271170
42,18,male,Belg,4,135,ITC,neutral,10,left,8,ITC_outcome,0,undefined,0,0,705,46103,2272180
42,18,male,Belg,4,136,guess,neutral,10,right,3,guess_start,342,space,0,0,705,45759,2272524
42,18,male,Belg,4,136,guess,neutral,10,right,3,guess_choice,688,f,0,0,705,45066,2273217
42,18,male,Belg,4,136,guess,neutral,10,right,3,guess_outcome,0,undefined,0,0,705,43506,2274777
42,18,male,Belg,4,136,ITC,neutral,10,right,3,ITC_start,401,space,0,0,705,43103,2275180
42,18,male,Belg,4,136,ITC,neutral,10,right,3,ITC_choice,873,j,0,0,705,42229,2276054
42,18,male,Belg,4,136,ITC,neutral,10,right,3,ITC_wait,0,undefined,0,0,705,32223,2286060
42,18,male,Belg,4,136,ITC,neutral,10,right,3,ITC_collect,878,k,0,0,705,31341,2286942
42,18,male,Belg,4,136,ITC,neutral,10,right,3,ITC_outcome,0,undefined,0,0,725,30325,2287958
42,18,male,Belg,4,137,guess,neutral,5,left,5,guess_start,353,space,0,0,725,29971,2288312
42,18,male,Belg,4,137,guess,neutral,5,left,5,guess_choice,507,j,0,0,725,29460,2288823
42,18,male,Belg,4,137,guess,neutral,5,left,5,guess_outcome,0,undefined,0,0,725,27896,2290387
42,18,male,Belg,4,137,ITC,neutral,5,left,5,ITC_start,367,space,0,0,725,27527,2290756
42,18,male,Belg,4,137,ITC,neutral,5,left,5,ITC_choice,1070,f,0,0,725,26454,2291829
42,18,male,Belg,4,137,ITC,neutral,5,left,5,ITC_wait,0,undefined,0,0,725,21439,2296844
42,18,male,Belg,4,137,ITC,neutral,5,left,5,ITC_collect,994,k,0,0,725,20441,2297842
42,18,male,Belg,4,137,ITC,neutral,5,left,5,ITC_outcome,0,undefined,0,0,745,19427,2298856
42,18,male,Belg,4,138,guess,win,5,left,6,guess_start,345,space,0,0,745,19079,2299204
42,18,male,Belg,4,138,guess,win,5,left,6,guess_choice,374,j,0,0,745,18699,2299584
42,18,male,Belg,4,138,guess,win,5,left,6,guess_outcome,0,undefined,0,0,765,17130,2301153
42,18,male,Belg,4,138,ITC,win,5,left,6,ITC_start,639,space,0,0,765,16489,2301794
42,18,male,Belg,4,138,ITC,win,5,left,6,ITC_choice,1805,f,0,0,765,14682,2303601
42,18,male,Belg,4,138,ITC,win,5,left,6,ITC_wait,0,undefined,0,0,765,9672,2308611
42,18,male,Belg,4,138,ITC,win,5,left,6,ITC_collect,639,k,0,0,765,9031,2309252
42,18,male,Belg,4,138,ITC,win,5,left,6,ITC_outcome,0,undefined,0,0,785,8024,2310259
42,18,male,Belg,4,139,guess,neutral,5,left,14,guess_start,391,space,0,0,785,7631,2310652
42,18,male,Belg,4,139,guess,neutral,5,left,14,guess_choice,495,j,0,0,785,7130,2311153
42,18,male,Belg,4,139,guess,neutral,5,left,14,guess_outcome,0,undefined,0,0,785,5566,2312717
42,18,male,Belg,4,139,ITC,neutral,5,left,14,ITC_start,384,space,0,0,785,5180,2313103
42,18,male,Belg,4,139,ITC,neutral,5,left,14,ITC_choice,924,f,0,0,785,4254,2314029
42,18,male,Belg,4,139,ITC,neutral,5,left,14,ITC_wait,0,undefined,0,0,785,-8,2318291
42,18,male,Belg,5,140,guess,win,5,right,1,guess_start,1849,space,0,0,0,478150,2357735
42,18,male,Belg,5,140,guess,win,5,right,1,guess_choice,1335,f,0,0,0,476809,2359076
42,18,male,Belg,5,140,guess,win,5,right,1,guess_outcome,0,undefined,0,0,20,475246,2360639
42,18,male,Belg,5,140,ITC,win,5,right,1,ITC_start,346,space,0,0,20,474899,2360986
42,18,male,Belg,5,140,ITC,win,5,right,1,ITC_choice,972,j,0,0,20,473924,2361961
42,18,male,Belg,5,140,ITC,win,5,right,1,ITC_wait,0,undefined,0,0,20,468915,2366970
42,18,male,Belg,5,140,ITC,win,5,right,1,ITC_collect,403,k,0,0,20,468510,2367375
42,18,male,Belg,5,140,ITC,win,5,right,1,ITC_outcome,0,undefined,0,0,40,467495,2368390
42,18,male,Belg,5,141,guess,win,10,left,6,guess_start,838,space,0,0,40,466654,2369231
42,18,male,Belg,5,141,guess,win,10,left,6,guess_choice,671,j,0,0,40,465979,2369906
42,18,male,Belg,5,141,guess,win,10,left,6,guess_outcome,0,undefined,0,0,60,464406,2371479
42,18,male,Belg,5,141,ITC,win,10,left,6,ITC_start,466,space,0,0,60,463938,2371947
42,18,male,Belg,5,141,ITC,win,10,left,6,ITC_choice,963,f,0,0,60,462973,2372912
42,18,male,Belg,5,141,ITC,win,10,left,6,ITC_wait,0,undefined,0,0,60,452955,2382930
42,18,male,Belg,5,141,ITC,win,10,left,6,ITC_collect,445,k,0,0,60,452508,2383377
42,18,male,Belg,5,141,ITC,win,10,left,6,ITC_outcome,0,undefined,0,0,80,451493,2384392
42,18,male,Belg,5,142,guess,win,5,right,13,guess_start,698,space,0,0,80,450792,2385093
42,18,male,Belg,5,142,guess,win,5,right,13,guess_choice,501,f,0,0,80,450288,2385597
42,18,male,Belg,5,142,guess,win,5,right,13,guess_outcome,0,undefined,0,0,100,448717,2387168
42,18,male,Belg,5,142,ITC,win,5,right,13,ITC_start,598,space,0,0,100,448117,2387768
42,18,male,Belg,5,142,ITC,win,5,right,13,ITC_choice,992,j,0,0,100,447124,2388761
42,18,male,Belg,5,142,ITC,win,5,right,13,ITC_wait,0,undefined,0,0,100,442108,2393777
42,18,male,Belg,5,142,ITC,win,5,right,13,ITC_collect,852,k,0,0,100,441254,2394631
42,18,male,Belg,5,142,ITC,win,5,right,13,ITC_outcome,0,undefined,0,0,120,440247,2395638
42,18,male,Belg,5,143,guess,neutral,5,left,7,guess_start,563,space,0,0,120,439682,2396203
42,18,male,Belg,5,143,guess,neutral,5,left,7,guess_choice,706,f,0,0,120,438972,2396913
42,18,male,Belg,5,143,guess,neutral,5,left,7,guess_outcome,0,undefined,0,0,120,437414,2398471
42,18,male,Belg,5,143,ITC,neutral,5,left,7,ITC_start,699,space,0,0,120,436712,2399173
42,18,male,Belg,5,143,ITC,neutral,5,left,7,ITC_choice,804,f,0,0,120,435906,2399979
42,18,male,Belg,5,143,ITC,neutral,5,left,7,ITC_wait,0,undefined,0,0,120,430901,2404984
42,18,male,Belg,5,143,ITC,neutral,5,left,7,ITC_collect,927,k,0,0,120,429972,2405913
42,18,male,Belg,5,143,ITC,neutral,5,left,7,ITC_outcome,0,undefined,0,0,140,428957,2406928
42,18,male,Belg,5,144,guess,neutral,5,right,12,guess_start,536,space,0,0,140,428418,2407467
42,18,male,Belg,5,144,guess,neutral,5,right,12,guess_choice,517,j,0,0,140,427896,2407989
42,18,male,Belg,5,144,guess,neutral,5,right,12,guess_outcome,0,undefined,0,0,140,426342,2409543
42,18,male,Belg,5,144,ITC,neutral,5,right,12,ITC_start,484,space,0,0,140,425856,2410029
42,18,male,Belg,5,144,ITC,neutral,5,right,12,ITC_choice,818,j,0,0,140,425036,2410849
42,18,male,Belg,5,144,ITC,neutral,5,right,12,ITC_wait,0,undefined,0,0,140,420029,2415856
42,18,male,Belg,5,144,ITC,neutral,5,right,12,ITC_collect,483,k,0,0,140,419545,2416340
42,18,male,Belg,5,144,ITC,neutral,5,right,12,ITC_outcome,0,undefined,0,0,160,418535,2417350
42,18,male,Belg,5,145,guess,neutral,5,left,14,guess_start,526,space,0,0,160,418007,2417878
42,18,male,Belg,5,145,guess,neutral,5,left,14,guess_choice,532,j,0,0,160,417470,2418415
42,18,male,Belg,5,145,guess,neutral,5,left,14,guess_outcome,0,undefined,0,0,160,415914,2419971
42,18,male,Belg,5,145,ITC,neutral,5,left,14,ITC_start,631,space,0,0,160,415281,2420604
42,18,male,Belg,5,145,ITC,neutral,5,left,14,ITC_choice,1061,f,0,0,160,414218,2421667
42,18,male,Belg,5,145,ITC,neutral,5,left,14,ITC_wait,0,undefined,0,0,160,409205,2426680
42,18,male,Belg,5,145,ITC,neutral,5,left,14,ITC_collect,541,k,0,0,160,408662,2427223
42,18,male,Belg,5,145,ITC,neutral,5,left,14,ITC_outcome,0,undefined,0,0,180,407647,2428238
42,18,male,Belg,5,146,guess,win,5,left,11,guess_start,642,space,0,0,180,407001,2428884
42,18,male,Belg,5,146,guess,win,5,left,11,guess_choice,471,j,0,0,180,406526,2429359
42,18,male,Belg,5,146,guess,win,5,left,11,guess_outcome,0,undefined,0,0,200,404966,2430919
42,18,male,Belg,5,146,ITC,win,5,left,11,ITC_start,671,space,0,0,200,404292,2431593
42,18,male,Belg,5,146,ITC,win,5,left,11,ITC_choice,901,f,0,0,200,403390,2432495
42,18,male,Belg,5,146,ITC,win,5,left,11,ITC_wait,0,undefined,0,0,200,398376,2437509
42,18,male,Belg,5,146,ITC,win,5,left,11,ITC_collect,696,k,0,0,200,397678,2438207
42,18,male,Belg,5,146,ITC,win,5,left,11,ITC_outcome,0,undefined,0,0,220,396662,2439223
42,18,male,Belg,5,147,guess,win,10,left,5,guess_start,671,space,0,0,220,395989,2439896
42,18,male,Belg,5,147,guess,win,10,left,5,guess_choice,542,f,0,0,220,395442,2440443
42,18,male,Belg,5,147,guess,win,10,left,5,guess_outcome,0,undefined,0,0,240,393880,2442005
42,18,male,Belg,5,147,ITC,win,10,left,5,ITC_start,441,space,0,0,240,393438,2442447
42,18,male,Belg,5,147,ITC,win,10,left,5,ITC_choice,846,f,0,0,240,392590,2443295
42,18,male,Belg,5,147,ITC,win,10,left,5,ITC_wait,0,undefined,0,0,240,382586,2453299
42,18,male,Belg,5,147,ITC,win,10,left,5,ITC_collect,1775,k,0,0,240,380808,2455077
42,18,male,Belg,5,147,ITC,win,10,left,5,ITC_outcome,0,undefined,0,0,260,379794,2456091
42,18,male,Belg,5,148,guess,neutral,5,right,1,guess_start,1622,space,0,0,260,378170,2457715
42,18,male,Belg,5,148,guess,neutral,5,right,1,guess_choice,791,j,0,0,260,377375,2458510
42,18,male,Belg,5,148,guess,neutral,5,right,1,guess_outcome,0,undefined,0,0,260,375808,2460077
