subjectID,age,gender,nationality,block_number,trial_number,trial_type,guess_outcome,delay_time,delay_pos,immediate_amount,stage,respRT,respKey,blur_count,focus_count,total_points,remaining_duration,time_elapsed
10,18,female,Belgian,1,1,guess,loss,10,left,2,guess_start,2404,space,0,0,0,477595,487780
10,18,female,Belgian,1,1,guess,loss,10,left,2,guess_choice,2647,j,0,0,0,474944,490431
10,18,female,Belgian,1,1,guess,loss,10,left,2,guess_outcome,0,undefined,0,0,-15,473378,491997
10,18,female,Belgian,1,1,ITC,loss,10,left,2,ITC_start,2077,space,0,0,-15,471299,494076
10,18,female,Belgian,1,1,ITC,loss,10,left,2,ITC_choice,1125,f,0,0,-15,470172,495203
10,18,female,Belgian,1,1,ITC,loss,10,left,2,ITC_wait,0,undefined,0,0,-15,460159,505216
10,18,female,Belgian,1,1,ITC,loss,10,left,2,ITC_collect,1554,k,0,0,-15,458604,506771
10,18,female,Belgian,1,1,ITC,loss,10,left,2,ITC_outcome,0,undefined,0,0,5,457596,507779
10,18,female,Belgian,1,2,guess,neutral,5,left,10,guess_start,3953,space,0,0,5,453642,511733
10,18,female,Belgian,1,2,guess,neutral,5,left,10,guess_choice,2336,j,0,0,5,451304,514071
10,18,female,Belgian,1,2,guess,neutral,5,left,10,guess_outcome,0,undefined,0,0,5,449737,515638
10,18,female,Belgian,1,2,ITC,neutral,5,left,10,ITC_start,2299,space,0,0,5,447436,517939
10,18,female,Belgian,1,2,ITC,neutral,5,left,10,ITC_choice,2484,f,0,0,5,444952,520423
10,18,female,Belgian,1,2,ITC,neutral,5,left,10,ITC_wait,0,undefined,0,0,5,439937,525438
10,18,female,Belgian,1,2,ITC,neutral,5,left,10,ITC_collect,489,k,0,0,5,439446,525929
10,18,female,Belgian,1,2,ITC,neutral,5,left,10,ITC_outcome,0,undefined,0,0,25,438440,526935
10,18,female,Belgian,1,3,guess,loss,5,left,4,guess_start,658,space,0,0,25,437780,527595
10,18,female,Belgian,1,3,guess,loss,5,left,4,guess_choice,2598,j,0,0,25,435180,530195
10,18,female,Belgian,1,3,guess,loss,5,left,4,guess_outcome,0,undefined,0,0,10,433609,531766
10,18,female,Belgian,1,3,ITC,loss,5,left,4,ITC_start,1554,space,0,0,10,432054,533321
10,18,female,Belgian,1,3,ITC,loss,5,left,4,ITC_choice,2443,f,0,0,10,429609,535766
10,18,female,Belgian,1,3,ITC,loss,5,left,4,ITC_wait,0,undefined,0,0,10,424589,540786
10,18,female,Belgian,1,3,ITC,loss,5,left,4,ITC_collect,1990,k,0,0,10,422598,542777
10,18,female,Belgian,1,3,ITC,loss,5,left,4,ITC_outcome,0,undefined,0,0,30,421590,543785
10,18,female,Belgian,1,4,guess,win,5,left,14,guess_start,1545,space,0,0,30,420047,545328
10,18,female,Belgian,1,4,guess,win,5,left,14,guess_choice,1054,j,0,0,30,418991,546384
10,18,female,Belgian,1,4,guess,win,5,left,14,guess_outcome,0,undefined,0,0,50,417429,547946
10,18,female,Belgian,1,4,ITC,win,5,left,14,ITC_start,1360,space,0,0,50,416068,549307
10,18,female,Belgian,1,4,ITC,win,5,left,14,ITC_choice,2244,j,0,0,50,413823,551552
10,18,female,Belgian,1,4,ITC,win,5,left,14,ITC_wait,0,undefined,0,0,50,413821,551554
10,18,female,Belgian,1,4,ITC,win,5,left,14,ITC_collect,1231,k,0,0,50,412589,552786
10,18,female,Belgian,1,4,ITC,win,5,left,14,ITC_outcome,0,undefined,0,0,64,411569,553806
10,18,female,Belgian,1,5,guess,win,10,left,8,guess_start,2446,space,0,0,64,409121,556254
10,18,female,Belgian,1,5,guess,win,10,left,8,guess_choice,1396,j,0,0,64,407723,557652
10,18,female,Belgian,1,5,guess,win,10,left,8,guess_outcome,0,undefined,0,0,84,406159,559216
10,18,female,Belgian,1,5,ITC,win,10,left,8,ITC_start,1311,space,0,0,84,404847,560528
10,18,female,Belgian,1,5,ITC,win,10,left,8,ITC_choice,1859,f,0,0,84,402986,562389
10,18,female,Belgian,1,5,ITC,win,10,left,8,ITC_wait,0,undefined,0,0,84,392984,572391
10,18,female,Belgian,1,5,ITC,win,10,left,8,ITC_collect,3557,k,0,0,84,389425,575950
10,18,female,Belgian,1,5,ITC,win,10,left,8,ITC_outcome,0,undefined,0,0,104,388406,576969
10,18,female,Belgian,1,6,guess,win,5,right,15,guess_start,1380,space,0,0,104,387024,578351
10,18,female,Belgian,1,6,guess,win,5,right,15,guess_choice,1028,f,0,0,104,385994,579381
10,18,female,Belgian,1,6,guess,win,5,right,15,guess_outcome,0,undefined,0,0,124,384426,580949
10,18,female,Belgian,1,6,ITC,win,5,right,15,ITC_start,1749,space,0,0,124,382675,582700
10,18,female,Belgian,1,6,ITC,win,5,right,15,ITC_choice,2248,f,0,0,124,380426,584949
10,18,female,Belgian,1,6,ITC,win,5,right,15,ITC_wait,0,undefined,0,0,124,380424,584951
10,18,female,Belgian,1,6,ITC,win,5,right,15,ITC_collect,771,k,0,0,124,379651,585724
10,18,female,Belgian,1,6,ITC,win,5,right,15,ITC_outcome,0,undefined,0,0,139,378646,586729
10,18,female,Belgian,1,7,guess,win,5,left,5,guess_start,727,space,0,0,139,377918,587457
10,18,female,Belgian,1,7,guess,win,5,left,5,guess_choice,993,j,0,0,139,376923,588452
10,18,female,Belgian,1,7,guess,win,5,left,5,guess_outcome,0,undefined,0,0,159,375366,590009
10,18,female,Belgian,1,7,ITC,win,5,left,5,ITC_start,1006,space,0,0,159,374359,591016
10,18,female,Belgian,1,7,ITC,win,5,left,5,ITC_choice,2899,f,0,0,159,371459,593916
10,18,female,Belgian,1,7,ITC,win,5,left,5,ITC_wait,0,undefined,0,0,159,366456,598919
10,18,female,Belgian,1,7,ITC,win,5,left,5,ITC_collect,890,k,0,0,159,365565,599810
10,18,female,Belgian,1,7,ITC,win,5,left,5,ITC_outcome,0,undefined,0,0,179,364562,600813
10,18,female,Belgian,1,8,guess,loss,5,right,15,guess_start,1068,space,0,0,179,363492,601883
10,18,female,Belgian,1,8,guess,loss,5,right,15,guess_choice,950,j,0,0,179,362540,602835
10,18,female,Belgian,1,8,guess,loss,5,right,15,guess_outcome,0,undefined,0,0,164,360972,604403
10,18,female,Belgian,1,8,ITC,loss,5,right,15,ITC_start,845,space,0,0,164,360125,605250
10,18,female,Belgian,1,8,ITC,loss,5,right,15,ITC_choice,1895,f,0,0,164,358229,607146
10,18,female,Belgian,1,8,ITC,loss,5,right,15,ITC_wait,0,undefined,0,0,164,358226,607149
10,18,female,Belgian,1,8,ITC,loss,5,right,15,ITC_collect,1032,k,0,0,164,357193,608182
10,18,female,Belgian,1,8,ITC,loss,5,right,15,ITC_outcome,0,undefined,0,0,179,356182,609193
10,18,female,Belgian,1,9,guess,loss,5,left,1,guess_start,932,space,0,0,179,355248,610127
10,18,female,Belgian,1,9,guess,loss,5,left,1,guess_choice,933,j,0,0,179,354313,611062
10,18,female,Belgian,1,9,guess,loss,5,left,1,guess_outcome,0,undefined,0,0,164,352742,612633
10,18,female,Belgian,1,9,ITC,loss,5,left,1,ITC_start,784,space,0,0,164,351956,613419
10,18,female,Belgian,1,9,ITC,loss,5,left,1,ITC_choice,2009,f,0,0,164,349946,615429
10,18,female,Belgian,1,9,ITC,loss,5,left,1,ITC_wait,0,undefined,0,0,164,344942,620433
10,18,female,Belgian,1,9,ITC,loss,5,left,1,ITC_collect,1519,k,0,0,164,343420,621955
10,18,female,Belgian,1,9,ITC,loss,5,left,1,ITC_outcome,0,undefined,0,0,184,342401,622974
10,18,female,Belgian,1,10,guess,win,5,left,3,guess_start,3560,space,0,0,184,338839,626536
10,18,female,Belgian,1,10,guess,win,5,left,3,guess_choice,1074,j,0,0,184,337764,627611
10,18,female,Belgian,1,10,guess,win,5,left,3,guess_outcome,0,undefined,0,0,204,336202,629173
10,18,female,Belgian,1,10,ITC,win,5,left,3,ITC_start,646,space,0,0,204,335554,629821
10,18,female,Belgian,1,10,ITC,win,5,left,3,ITC_choice,1441,f,0,0,204,334112,631263
10,18,female,Belgian,1,10,ITC,win,5,left,3,ITC_wait,0,undefined,0,0,204,329092,636283
10,18,female,Belgian,1,10,ITC,win,5,left,3,ITC_collect,811,k,0,0,204,328280,637095
10,18,female,Belgian,1,10,ITC,win,5,left,3,ITC_outcome,0,undefined,0,0,224,327262,638113
10,18,female,Belgian,1,11,guess,loss,10,left,4,guess_start,696,space,0,0,224,326564,638811
10,18,female,Belgian,1,11,guess,loss,10,left,4,guess_choice,714,j,0,0,224,325849,639526
10,18,female,Belgian,1,11,guess,loss,10,left,4,guess_outcome,0,undefined,0,0,209,324282,641093
10,18,female,Belgian,1,11,ITC,loss,10,left,4,ITC_start,824,space,0,0,209,323457,641918
10,18,female,Belgian,1,11,ITC,loss,10,left,4,ITC_choice,2055,f,0,0,209,321400,643975
10,18,female,Belgian,1,11,ITC,loss,10,left,4,ITC_wait,0,undefined,0,0,209,311386,653989
10,18,female,Belgian,1,11,ITC,loss,10,left,4,ITC_collect,735,k,0,0,209,310649,654726
10,18,female,Belgian,1,11,ITC,loss,10,left,4,ITC_outcome,0,undefined,0,0,229,309635,655740
10,18,female,Belgian,1,12,guess,win,10,right,1,guess_start,2991,space,0,0,229,306642,658733
10,18,female,Belgian,1,12,guess,win,10,right,1,guess_choice,1964,j,0,0,229,304676,660699
10,18,female,Belgian,1,12,guess,win,10,right,1,guess_outcome,0,undefined,0,0,249,303111,662264
10,18,female,Belgian,1,12,ITC,win,10,right,1,ITC_start,614,space,0,0,249,302496,662879
10,18,female,Belgian,1,12,ITC,win,10,right,1,ITC_choice,2265,j,0,0,249,300230,665145
10,18,female,Belgian,1,12,ITC,win,10,right,1,ITC_wait,0,undefined,0,0,249,290222,675153
10,18,female,Belgian,1,12,ITC,win,10,right,1,ITC_collect,535,k,0,0,249,289686,675689
10,18,female,Belgian,1,12,ITC,win,10,right,1,ITC_outcome,0,undefined,0,0,269,288673,676702
10,18,female,Belgian,1,13,guess,win,5,right,10,guess_start,595,space,0,0,269,288077,677298
10,18,female,Belgian,1,13,guess,win,5,right,10,guess_choice,805,f,0,0,269,287271,678104
10,18,female,Belgian,1,13,guess,win,5,right,10,guess_outcome,0,undefined,0,0,289,285703,679672
10,18,female,Belgian,1,13,ITC,win,5,right,10,ITC_start,8905,space,0,0,289,276797,688578
10,18,female,Belgian,1,13,ITC,win,5,right,10,ITC_choice,2587,f,0,0,289,274208,691167
10,18,female,Belgian,1,13,ITC,win,5,right,10,ITC_wait,0,undefined,0,0,289,274205,691170
10,18,female,Belgian,1,13,ITC,win,5,right,10,ITC_collect,11304,k,0,0,289,262900,702475
10,18,female,Belgian,1,13,ITC,win,5,right,10,ITC_outcome,0,undefined,0,0,299,261893,703482
10,18,female,Belgian,1,14,guess,neutral,5,left,1,guess_start,5514,space,0,0,299,256378,708997
10,18,female,Belgian,1,14,guess,neutral,5,left,1,guess_choice,1343,f,0,0,299,255033,710342
10,18,female,Belgian,1,14,guess,neutral,5,left,1,guess_outcome,0,undefined,0,0,299,253463,711912
10,18,female,Belgian,1,14,ITC,neutral,5,left,1,ITC_start,728,space,0,0,299,252733,712642
10,18,female,Belgian,1,14,ITC,neutral,5,left,1,ITC_choice,2215,f,0,0,299,250518,714857
10,18,female,Belgian,1,14,ITC,neutral,5,left,1,ITC_wait,0,undefined,0,0,299,245503,719872
10,18,female,Belgian,1,14,ITC,neutral,5,left,1,ITC_collect,5799,k,0,0,299,239702,725673
10,18,female,Belgian,1,14,ITC,neutral,5,left,1,ITC_outcome,0,undefined,0,0,319,238681,726694
10,18,female,Belgian,1,15,guess,neutral,5,left,12,guess_start,605,space,0,0,319,238076,727299
10,18,female,Belgian,1,15,guess,neutral,5,left,12,guess_choice,1184,j,0,0,319,236890,728485
10,18,female,Belgian,1,15,guess,neutral,5,left,12,guess_outcome,0,undefined,0,0,319,235331,730044
10,18,female,Belgian,1,15,ITC,neutral,5,left,12,ITC_start,623,space,0,0,319,234707,730668
10,18,female,Belgian,1,15,ITC,neutral,5,left,12,ITC_choice,1834,f,0,0,319,232872,732503
10,18,female,Belgian,1,15,ITC,neutral,5,left,12,ITC_wait,0,undefined,0,0,319,227861,737514
10,18,female,Belgian,1,15,ITC,neutral,5,left,12,ITC_collect,800,k,0,0,319,227059,738316
10,18,female,Belgian,1,15,ITC,neutral,5,left,12,ITC_outcome,0,undefined,0,0,339,226041,739334
10,18,female,Belgian,1,16,guess,win,10,right,6,guess_start,1036,space,0,0,339,225003,740372
10,18,female,Belgian,1,16,guess,win,10,right,6,guess_choice,942,j,0,0,339,224060,741315
10,18,female,Belgian,1,16,guess,win,10,right,6,guess_outcome,0,undefined,0,0,359,222501,742874
10,18,female,Belgian,1,16,ITC,win,10,right,6,ITC_start,5247,space,0,0,359,217253,748122
10,18,female,Belgian,1,16,ITC,win,10,right,6,ITC_choice,2757,f,0,0,359,214495,750880
10,18,female,Belgian,1,16,ITC,win,10,right,6,ITC_wait,0,undefined,0,0,359,214492,750883
10,18,female,Belgian,1,16,ITC,win,10,right,6,ITC_collect,4469,k,0,0,359,210021,755354
10,18,female,Belgian,1,16,ITC,win,10,right,6,ITC_outcome,0,undefined,0,0,365,209016,756359
10,18,female,Belgian,1,17,guess,neutral,5,left,8,guess_start,590,space,0,0,365,208425,756950
10,18,female,Belgian,1,17,guess,neutral,5,left,8,guess_choice,741,j,0,0,365,207682,757693
10,18,female,Belgian,1,17,guess,neutral,5,left,8,guess_outcome,0,undefined,0,0,365,206121,759254
10,18,female,Belgian,1,17,ITC,neutral,5,left,8,ITC_start,854,space,0,0,365,205265,760110
10,18,female,Belgian,1,17,ITC,neutral,5,left,8,ITC_choice,2785,f,0,0,365,202479,762896
10,18,female,Belgian,1,17,ITC,neutral,5,left,8,ITC_wait,0,undefined,0,0,365,197462,767913
10,18,female,Belgian,1,17,ITC,neutral,5,left,8,ITC_collect,1540,k,0,0,365,195921,769454
10,18,female,Belgian,1,17,ITC,neutral,5,left,8,ITC_outcome,0,undefined,0,0,385,194901,770474
10,18,female,Belgian,1,18,guess,loss,5,left,3,guess_start,604,space,0,0,385,194296,771079
10,18,female,Belgian,1,18,guess,loss,5,left,3,guess_choice,1194,f,0,0,385,193101,772274
10,18,female,Belgian,1,18,guess,loss,5,left,3,guess_outcome,0,undefined,0,0,370,191532,773843
10,18,female,Belgian,1,18,ITC,loss,5,left,3,ITC_start,945,space,0,0,370,190586,774789
10,18,female,Belgian,1,18,ITC,loss,5,left,3,ITC_choice,2966,f,0,0,370,187619,777756
10,18,female,Belgian,1,18,ITC,loss,5,left,3,ITC_wait,0,undefined,0,0,370,182612,782763
10,18,female,Belgian,1,18,ITC,loss,5,left,3,ITC_collect,1324,k,0,0,370,181286,784089
10,18,female,Belgian,1,18,ITC,loss,5,left,3,ITC_outcome,0,undefined,0,0,390,180273,785102
10,18,female,Belgian,1,19,guess,loss,5,left,10,guess_start,1110,space,0,0,390,179162,786213
10,18,female,Belgian,1,19,guess,loss,5,left,10,guess_choice,968,j,0,0,390,178192,787183
10,18,female,Belgian,1,19,guess,loss,5,left,10,guess_outcome,0,undefined,0,0,375,176622,788753
10,18,female,Belgian,1,19,ITC,loss,5,left,10,ITC_start,634,space,0,0,375,175987,789388
10,18,female,Belgian,1,19,ITC,loss,5,left,10,ITC_choice,2302,j,0,0,375,173685,791690
10,18,female,Belgian,1,19,ITC,loss,5,left,10,ITC_wait,0,undefined,0,0,375,173683,791692
10,18,female,Belgian,1,19,ITC,loss,5,left,10,ITC_collect,2983,k,0,0,375,170699,794676
10,18,female,Belgian,1,19,ITC,loss,5,left,10,ITC_outcome,0,undefined,0,0,385,169692,795683
10,18,female,Belgian,1,20,guess,loss,5,right,14,guess_start,608,space,0,0,385,169083,796292
10,18,female,Belgian,1,20,guess,loss,5,right,14,guess_choice,2471,f,0,0,385,166613,798762
10,18,female,Belgian,1,20,guess,loss,5,right,14,guess_outcome,0,undefined,0,0,370,165045,800330
10,18,female,Belgian,1,20,ITC,loss,5,right,14,ITC_start,3331,space,0,0,370,161713,803662
10,18,female,Belgian,1,20,ITC,loss,5,right,14,ITC_choice,975,f,0,0,370,160737,804638
10,18,female,Belgian,1,20,ITC,loss,5,right,14,ITC_wait,0,undefined,0,0,370,160735,804640
10,18,female,Belgian,1,20,ITC,loss,5,right,14,ITC_collect,3662,k,0,0,370,157072,808303
10,18,female,Belgian,1,20,ITC,loss,5,right,14,ITC_outcome,0,undefined,0,0,384,156065,809310
10,18,female,Belgian,1,21,guess,neutral,5,right,5,guess_start,520,space,0,0,384,155544,809831
10,18,female,Belgian,1,21,guess,neutral,5,right,5,guess_choice,802,f,0,0,384,154739,810636
10,18,female,Belgian,1,21,guess,neutral,5,right,5,guess_outcome,0,undefined,0,0,384,153185,812190
10,18,female,Belgian,1,21,ITC,neutral,5,right,5,ITC_start,643,space,0,0,384,152541,812834
10,18,female,Belgian,1,21,ITC,neutral,5,right,5,ITC_choice,2081,j,0,0,384,150458,814917
10,18,female,Belgian,1,21,ITC,neutral,5,right,5,ITC_wait,0,undefined,0,0,384,145445,819930
10,18,female,Belgian,1,21,ITC,neutral,5,right,5,ITC_collect,382,k,0,0,384,145062,820313
10,18,female,Belgian,1,21,ITC,neutral,5,right,5,ITC_outcome,0,undefined,0,0,404,144055,821320
10,18,female,Belgian,1,22,guess,win,5,right,13,guess_start,1749,space,0,0,404,142305,823070
10,18,female,Belgian,1,22,guess,win,5,right,13,guess_choice,927,j,0,0,404,141376,823999
10,18,female,Belgian,1,22,guess,win,5,right,13,guess_outcome,0,undefined,0,0,424,139805,825570
10,18,female,Belgian,1,22,ITC,win,5,right,13,ITC_start,2467,space,0,0,424,137337,828038
10,18,female,Belgian,1,22,ITC,win,5,right,13,ITC_choice,1166,f,0,0,424,136170,829205
10,18,female,Belgian,1,22,ITC,win,5,right,13,ITC_wait,0,undefined,0,0,424,136165,829210
10,18,female,Belgian,1,22,ITC,win,5,right,13,ITC_collect,1331,k,0,0,424,134831,830544
10,18,female,Belgian,1,22,ITC,win,5,right,13,ITC_outcome,0,undefined,0,0,437,133825,831550
10,18,female,Belgian,1,23,guess,loss,5,left,12,guess_start,593,space,0,0,437,133231,832144
10,18,female,Belgian,1,23,guess,loss,5,left,12,guess_choice,1339,f,0,0,437,131890,833485
10,18,female,Belgian,1,23,guess,loss,5,left,12,guess_outcome,0,undefined,0,0,422,130325,835050
10,18,female,Belgian,1,23,ITC,loss,5,left,12,ITC_start,1208,space,0,0,422,129116,836259
10,18,female,Belgian,1,23,ITC,loss,5,left,12,ITC_choice,1794,f,0,0,422,127320,838055
10,18,female,Belgian,1,23,ITC,loss,5,left,12,ITC_wait,0,undefined,0,0,422,122316,843059
10,18,female,Belgian,1,23,ITC,loss,5,left,12,ITC_collect,338,k,0,0,422,121977,843398
10,18,female,Belgian,1,23,ITC,loss,5,left,12,ITC_outcome,0,undefined,0,0,442,120963,844412
10,18,female,Belgian,1,24,guess,win,5,right,4,guess_start,668,space,0,0,442,120294,845081
10,18,female,Belgian,1,24,guess,win,5,right,4,guess_choice,796,j,0,0,442,119496,845879
10,18,female,Belgian,1,24,guess,win,5,right,4,guess_outcome,0,undefined,0,0,462,117935,847440
10,18,female,Belgian,1,24,ITC,win,5,right,4,ITC_start,756,space,0,0,462,117178,848197
10,18,female,Belgian,1,24,ITC,win,5,right,4,ITC_choice,1763,j,0,0,462,115413,849962
10,18,female,Belgian,1,24,ITC,win,5,right,4,ITC_wait,0,undefined,0,0,462,110405,854970
10,18,female,Belgian,1,24,ITC,win,5,right,4,ITC_collect,581,k,0,0,462,109823,855552
10,18,female,Belgian,1,24,ITC,win,5,right,4,ITC_outcome,0,undefined,0,0,482,108815,856560
10,18,female,Belgian,1,25,guess,neutral,10,right,1,guess_start,686,space,0,0,482,108128,857247
10,18,female,Belgian,1,25,guess,neutral,10,right,1,guess_choice,576,j,0,0,482,107550,857825
10,18,female,Belgian,1,25,guess,neutral,10,right,1,guess_outcome,0,undefined,0,0,482,105983,859392
10,18,female,Belgian,1,25,ITC,neutral,10,right,1,ITC_start,1127,space,0,0,482,104855,860520
10,18,female,Belgian,1,25,ITC,neutral,10,right,1,ITC_choice,1425,j,0,0,482,103429,861946
10,18,female,Belgian,1,25,ITC,neutral,10,right,1,ITC_wait,0,undefined,0,0,482,93415,871960
10,18,female,Belgian,1,25,ITC,neutral,10,right,1,ITC_collect,268,k,0,0,482,93146,872229
10,18,female,Belgian,1,25,ITC,neutral,10,right,1,ITC_outcome,0,undefined,0,0,502,92131,873244
10,18,female,Belgian,1,26,guess,neutral,5,right,14,guess_start,689,space,0,0,502,91440,873935
10,18,female,Belgian,1,26,guess,neutral,5,right,14,guess_choice,605,f,0,0,502,90833,874542
10,18,female,Belgian,1,26,guess,neutral,5,right,14,guess_outcome,0,undefined,0,0,502,89271,876104
10,18,female,Belgian,1,26,ITC,neutral,5,right,14,ITC_start,626,space,0,0,502,88644,876731
10,18,female,Belgian,1,26,ITC,neutral,5,right,14,ITC_choice,1905,f,0,0,502,86738,878637
10,18,female,Belgian,1,26,ITC,neutral,5,right,14,ITC_wait,0,undefined,0,0,502,86736,878639
10,18,female,Belgian,1,26,ITC,neutral,5,right,14,ITC_collect,855,k,0,0,502,85878,879497
10,18,female,Belgian,1,26,ITC,neutral,5,right,14,ITC_outcome,0,undefined,0,0,516,84870,880505
10,18,female,Belgian,1,27,guess,win,5,left,2,guess_start,547,space,0,0,516,84322,881053
10,18,female,Belgian,1,27,guess,win,5,left,2,guess_choice,1160,f,0,0,516,83160,882215
10,18,female,Belgian,1,27,guess,win,5,left,2,guess_outcome,0,undefined,0,0,536,81600,883775
10,18,female,Belgian,1,27,ITC,win,5,left,2,ITC_start,477,space,0,0,536,81123,884252
10,18,female,Belgian,1,27,ITC,win,5,left,2,ITC_choice,1173,f,0,0,536,79949,885426
10,18,female,Belgian,1,27,ITC,win,5,left,2,ITC_wait,0,undefined,0,0,536,74931,890444
10,18,female,Belgian,1,27,ITC,win,5,left,2,ITC_collect,284,k,0,0,536,74645,890730
10,18,female,Belgian,1,27,ITC,win,5,left,2,ITC_outcome,0,undefined,0,0,556,73640,891735
10,18,female,Belgian,1,28,guess,win,5,right,6,guess_start,399,space,0,0,556,73240,892135
10,18,female,Belgian,1,28,guess,win,5,right,6,guess_choice,868,j,0,0,556,72369,893006
10,18,female,Belgian,1,28,guess,win,5,right,6,guess_outcome,0,undefined,0,0,576,70801,894574
10,18,female,Belgian,1,28,ITC,win,5,right,6,ITC_start,770,space,0,0,576,70030,895345
10,18,female,Belgian,1,28,ITC,win,5,right,6,ITC_choice,1149,j,0,0,576,68879,896496
10,18,female,Belgian,1,28,ITC,win,5,right,6,ITC_wait,0,undefined,0,0,576,63871,901504
10,18,female,Belgian,1,28,ITC,win,5,right,6,ITC_collect,305,k,0,0,576,63564,901811
10,18,female,Belgian,1,28,ITC,win,5,right,6,ITC_outcome,0,undefined,0,0,596,62550,902825
10,18,female,Belgian,1,29,guess,neutral,5,right,13,guess_start,618,space,0,0,596,61931,903444
10,18,female,Belgian,1,29,guess,neutral,5,right,13,guess_choice,579,j,0,0,596,61350,904025
10,18,female,Belgian,1,29,guess,neutral,5,right,13,guess_outcome,0,undefined,0,0,596,59791,905584
10,18,female,Belgian,1,29,ITC,neutral,5,right,13,ITC_start,2148,space,0,0,596,57642,907733
10,18,female,Belgian,1,29,ITC,neutral,5,right,13,ITC_choice,1202,f,0,0,596,56439,908936
10,18,female,Belgian,1,29,ITC,neutral,5,right,13,ITC_wait,0,undefined,0,0,596,56437,908938
10,18,female,Belgian,1,29,ITC,neutral,5,right,13,ITC_collect,877,k,0,0,596,55558,909817
10,18,female,Belgian,1,29,ITC,neutral,5,right,13,ITC_outcome,0,undefined,0,0,609,54540,910835
10,18,female,Belgian,1,30,guess,loss,10,right,6,guess_start,472,space,0,0,609,54067,911308
10,18,female,Belgian,1,30,guess,loss,10,right,6,guess_choice,934,j,0,0,609,53131,912244
10,18,female,Belgian,1,30,guess,loss,10,right,6,guess_outcome,0,undefined,0,0,594,51560,913815
10,18,female,Belgian,1,30,ITC,loss,10,right,6,ITC_start,768,space,0,0,594,50790,914585
10,18,female,Belgian,1,30,ITC,loss,10,right,6,ITC_choice,892,j,0,0,594,49897,915478
10,18,female,Belgian,1,30,ITC,loss,10,right,6,ITC_wait,0,undefined,0,0,594,39882,925493
10,18,female,Belgian,1,30,ITC,loss,10,right,6,ITC_collect,308,k,0,0,594,39572,925803
10,18,female,Belgian,1,30,ITC,loss,10,right,6,ITC_outcome,0,undefined,0,0,614,38558,926817
10,18,female,Belgian,1,31,guess,loss,5,right,6,guess_start,782,space,0,0,614,37774,927601
10,18,female,Belgian,1,31,guess,loss,5,right,6,guess_choice,730,j,0,0,614,37042,928333
10,18,female,Belgian,1,31,guess,loss,5,right,6,guess_outcome,0,undefined,0,0,599,35477,929898
10,18,female,Belgian,1,31,ITC,loss,5,right,6,ITC_start,1221,space,0,0,599,34255,931120
10,18,female,Belgian,1,31,ITC,loss,5,right,6,ITC_choice,1676,j,0,0,599,32578,932797
10,18,female,Belgian,1,31,ITC,loss,5,right,6,ITC_wait,0,undefined,0,0,599,27574,937801
10,18,female,Belgian,1,31,ITC,loss,5,right,6,ITC_collect,501,k,0,0,599,27072,938303
10,18,female,Belgian,1,31,ITC,loss,5,right,6,ITC_outcome,0,undefined,0,0,619,26059,939316
10,18,female,Belgian,1,32,guess,win,10,right,4,guess_start,556,space,0,0,619,25502,939873
10,18,female,Belgian,1,32,guess,win,10,right,4,guess_choice,1008,j,0,0,619,24493,940882
10,18,female,Belgian,1,32,guess,win,10,right,4,guess_outcome,0,undefined,0,0,639,22939,942436
10,18,female,Belgian,1,32,ITC,win,10,right,4,ITC_start,3439,space,0,0,639,19499,945876
10,18,female,Belgian,1,32,ITC,win,10,right,4,ITC_choice,1819,j,0,0,639,17679,947696
10,18,female,Belgian,1,32,ITC,win,10,right,4,ITC_wait,0,undefined,0,0,639,7676,957699
10,18,female,Belgian,1,32,ITC,win,10,right,4,ITC_collect,32,k,0,0,639,7643,957732
10,18,female,Belgian,1,32,ITC,win,10,right,4,ITC_outcome,0,undefined,0,0,659,6630,958745
10,18,female,Belgian,1,33,guess,loss,10,left,7,guess_start,548,space,0,0,659,6081,959294
10,18,female,Belgian,1,33,guess,loss,10,left,7,guess_choice,957,j,0,0,659,5122,960253
10,18,female,Belgian,1,33,guess,loss,10,left,7,guess_outcome,0,undefined,0,0,644,3550,961825
10,18,female,Belgian,1,33,ITC,loss,10,left,7,ITC_start,965,space,0,0,644,2584,962791
10,18,female,Belgian,1,33,ITC,loss,10,left,7,ITC_choice,1146,f,0,0,644,1437,963938
10,18,female,Belgian,1,33,ITC,loss,10,left,7,ITC_wait,0,undefined,0,0,644,-10,965385
10,18,female,Belgian,2,34,guess,loss,5,left,7,guess_start,513,space,0,0,0,479486,1005174
10,18,female,Belgian,2,34,guess,loss,5,left,7,guess_choice,802,j,0,0,0,478682,1005978
10,18,female,Belgian,2,34,guess,loss,5,left,7,guess_outcome,0,undefined,0,0,-15,477117,1007543
10,18,female,Belgian,2,34,ITC,loss,5,left,7,ITC_start,1815,space,0,0,-15,475300,1009360
10,18,female,Belgian,2,34,ITC,loss,5,left,7,ITC_choice,1003,f,0,0,-15,474297,1010363
10,18,female,Belgian,2,34,ITC,loss,5,left,7,ITC_wait,0,undefined,0,0,-15,469277,1015383
10,18,female,Belgian,2,34,ITC,loss,5,left,7,ITC_collect,305,k,0,0,-15,468971,1015689
10,18,female,Belgian,2,34,ITC,loss,5,left,7,ITC_outcome,0,undefined,0,0,5,467967,1016693
10,18,female,Belgian,2,35,guess,loss,5,right,9,guess_start,944,space,0,0,5,467021,1017639
10,18,female,Belgian,2,35,guess,loss,5,right,9,guess_choice,1071,j,0,0,5,465949,1018711
10,18,female,Belgian,2,35,guess,loss,5,right,9,guess_outcome,0,undefined,0,0,-10,464377,1020283
10,18,female,Belgian,2,35,ITC,loss,5,right,9,ITC_start,950,space,0,0,-10,463426,1021234
10,18,female,Belgian,2,35,ITC,loss,5,right,9,ITC_choice,714,j,0,0,-10,462710,1021950
10,18,female,Belgian,2,35,ITC,loss,5,right,9,ITC_wait,0,undefined,0,0,-10,457697,1026963
10,18,female,Belgian,2,35,ITC,loss,5,right,9,ITC_collect,998,k,0,0,-10,456698,1027962
10,18,female,Belgian,2,35,ITC,loss,5,right,9,ITC_outcome,0,undefined,0,0,10,455687,1028973
10,18,female,Belgian,2,36,guess,neutral,10,right,8,guess_start,734,space,0,0,10,454952,1029708
10,18,female,Belgian,2,36,guess,neutral,10,right,8,guess_choice,1222,f,0,0,10,453728,1030932
10,18,female,Belgian,2,36,guess,neutral,10,right,8,guess_outcome,0,undefined,0,0,10,452157,1032503
10,18,female,Belgian,2,36,ITC,neutral,10,right,8,ITC_start,1079,space,0,0,10,451076,1033584
10,18,female,Belgian,2,36,ITC,neutral,10,right,8,ITC_choice,1271,j,0,0,10,449805,1034855
10,18,female,Belgian,2,36,ITC,neutral,10,right,8,ITC_wait,0,undefined,0,0,10,439792,1044868
10,18,female,Belgian,2,36,ITC,neutral,10,right,8,ITC_collect,547,k,0,0,10,439243,1045417
10,18,female,Belgian,2,36,ITC,neutral,10,right,8,ITC_outcome,0,undefined,0,0,30,438234,1046426
10,18,female,Belgian,2,37,guess,neutral,5,right,3,guess_start,602,space,0,0,30,437630,1047030
10,18,female,Belgian,2,37,guess,neutral,5,right,3,guess_choice,723,f,0,0,30,436906,1047754
10,18,female,Belgian,2,37,guess,neutral,5,right,3,guess_outcome,0,undefined,0,0,30,435334,1049326
10,18,female,Belgian,2,37,ITC,neutral,5,right,3,ITC_start,1094,space,0,0,30,434239,1050421
10,18,female,Belgian,2,37,ITC,neutral,5,right,3,ITC_choice,1178,j,0,0,30,433059,1051601
10,18,female,Belgian,2,37,ITC,neutral,5,right,3,ITC_wait,0,undefined,0,0,30,428055,1056605
10,18,female,Belgian,2,37,ITC,neutral,5,right,3,ITC_collect,382,k,0,0,30,427671,1056989
10,18,female,Belgian,2,37,ITC,neutral,5,right,3,ITC_outcome,0,undefined,0,0,50,426654,1058006
10,18,female,Belgian,2,38,guess,loss,5,left,2,guess_start,747,space,0,0,50,425906,1058754
10,18,female,Belgian,2,38,guess,loss,5,left,2,guess_choice,768,f,0,0,50,425136,1059524
10,18,female,Belgian,2,38,guess,loss,5,left,2,guess_outcome,0,undefined,0,0,35,423574,1061086
10,18,female,Belgian,2,38,ITC,loss,5,left,2,ITC_start,3667,space,0,0,35,419909,1064751
10,18,female,Belgian,2,38,ITC,loss,5,left,2,ITC_choice,779,f,0,0,35,419130,1065530
10,18,female,Belgian,2,38,ITC,loss,5,left,2,ITC_wait,0,undefined,0,0,35,414119,1070541
10,18,female,Belgian,2,38,ITC,loss,5,left,2,ITC_collect,796,k,0,0,35,413321,1071339
10,18,female,Belgian,2,38,ITC,loss,5,left,2,ITC_outcome,0,undefined,0,0,55,412313,1072347
10,18,female,Belgian,2,39,guess,win,5,left,9,guess_start,701,space,0,0,55,411611,1073049
10,18,female,Belgian,2,39,guess,win,5,left,9,guess_choice,750,j,0,0,55,410859,1073801
10,18,female,Belgian,2,39,guess,win,5,left,9,guess_outcome,0,undefined,0,0,75,409293,1075367
10,18,female,Belgian,2,39,ITC,win,5,left,9,ITC_start,2155,space,0,0,75,407137,1077523
10,18,female,Belgian,2,39,ITC,win,5,left,9,ITC_choice,739,f,0,0,75,406396,1078264
10,18,female,Belgian,2,39,ITC,win,5,left,9,ITC_wait,0,undefined,0,0,75,401393,1083267
10,18,female,Belgian,2,39,ITC,win,5,left,9,ITC_collect,1720,k,0,0,75,399671,1084989
10,18,female,Belgian,2,39,ITC,win,5,left,9,ITC_outcome,0,undefined,0,0,95,398663,1085997
10,18,female,Belgian,2,40,guess,neutral,5,left,2,guess_start,496,space,0,0,95,398166,1086494
10,18,female,Belgian,2,40,guess,neutral,5,left,2,guess_choice,734,f,0,0,95,397429,1087231
10,18,female,Belgian,2,40,guess,neutral,5,left,2,guess_outcome,0,undefined,0,0,95,395873,1088787
10,18,female,Belgian,2,40,ITC,neutral,5,left,2,ITC_start,415,space,0,0,95,395456,1089204
10,18,female,Belgian,2,40,ITC,neutral,5,left,2,ITC_choice,1094,f,0,0,95,394361,1090299
10,18,female,Belgian,2,40,ITC,neutral,5,left,2,ITC_wait,0,undefined,0,0,95,389353,1095307
10,18,female,Belgian,2,40,ITC,neutral,5,left,2,ITC_collect,1013,k,0,0,95,388338,1096322
10,18,female,Belgian,2,40,ITC,neutral,5,left,2,ITC_outcome,0,undefined,0,0,115,387333,1097327
10,18,female,Belgian,2,41,guess,loss,10,right,5,guess_start,511,space,0,0,115,386820,1097840
10,18,female,Belgian,2,41,guess,loss,10,right,5,guess_choice,613,j,0,0,115,386206,1098454
10,18,female,Belgian,2,41,guess,loss,10,right,5,guess_outcome,0,undefined,0,0,100,384653,1100007
10,18,female,Belgian,2,41,ITC,loss,10,right,5,ITC_start,741,space,0,0,100,383910,1100750
10,18,female,Belgian,2,41,ITC,loss,10,right,5,ITC_choice,1105,j,0,0,100,382804,1101856
10,18,female,Belgian,2,41,ITC,loss,10,right,5,ITC_wait,0,undefined,0,0,100,372800,1111860
10,18,female,Belgian,2,41,ITC,loss,10,right,5,ITC_collect,365,k,0,0,100,372433,1112227
10,18,female,Belgian,2,41,ITC,loss,10,right,5,ITC_outcome,0,undefined,0,0,120,371427,1113233
10,18,female,Belgian,2,42,guess,win,5,right,8,guess_start,1482,space,0,0,120,369943,1114717
10,18,female,Belgian,2,42,guess,win,5,right,8,guess_choice,632,j,0,0,120,369309,1115351
10,18,female,Belgian,2,42,guess,win,5,right,8,guess_outcome,0,undefined,0,0,140,367746,1116914
10,18,female,Belgian,2,42,ITC,win,5,right,8,ITC_start,1055,space,0,0,140,366690,1117970
10,18,female,Belgian,2,42,ITC,win,5,right,8,ITC_choice,766,j,0,0,140,365923,1118737
10,18,female,Belgian,2,42,ITC,win,5,right,8,ITC_wait,0,undefined,0,0,140,360906,1123754
10,18,female,Belgian,2,42,ITC,win,5,right,8,ITC_collect,596,k,0,0,140,360308,1124352
10,18,female,Belgian,2,42,ITC,win,5,right,8,ITC_outcome,0,undefined,0,0,160,359288,1125372
10,18,female,Belgian,2,43,guess,win,5,right,12,guess_start,557,space,0,0,160,358729,1125931
10,18,female,Belgian,2,43,guess,win,5,right,12,guess_choice,729,f,0,0,160,357998,1126662
10,18,female,Belgian,2,43,guess,win,5,right,12,guess_outcome,0,undefined,0,0,180,356428,1128232
10,18,female,Belgian,2,43,ITC,win,5,right,12,ITC_start,992,space,0,0,180,355435,1129225
10,18,female,Belgian,2,43,ITC,win,5,right,12,ITC_choice,937,f,0,0,180,354497,1130163
10,18,female,Belgian,2,43,ITC,win,5,right,12,ITC_wait,0,undefined,0,0,180,354494,1130166
10,18,female,Belgian,2,43,ITC,win,5,right,12,ITC_collect,1795,k,0,0,180,352698,1131962
10,18,female,Belgian,2,43,ITC,win,5,right,12,ITC_outcome,0,undefined,0,0,192,351688,1132972
10,18,female,Belgian,2,44,guess,loss,10,left,1,guess_start,490,space,0,0,192,351197,1133463
10,18,female,Belgian,2,44,guess,loss,10,left,1,guess_choice,516,j,0,0,192,350679,1133981
10,18,female,Belgian,2,44,guess,loss,10,left,1,guess_outcome,0,undefined,0,0,177,349108,1135552
10,18,female,Belgian,2,44,ITC,loss,10,left,1,ITC_start,779,space,0,0,177,348327,1136333
10,18,female,Belgian,2,44,ITC,loss,10,left,1,ITC_choice,709,f,0,0,177,347617,1137043
10,18,female,Belgian,2,44,ITC,loss,10,left,1,ITC_wait,0,undefined,0,0,177,337604,1147056
10,18,female,Belgian,2,44,ITC,loss,10,left,1,ITC_collect,336,k,0,0,177,337267,1147393
10,18,female,Belgian,2,44,ITC,loss,10,left,1,ITC_outcome,0,undefined,0,0,197,336248,1148412
10,18,female,Belgian,2,45,guess,loss,5,left,11,guess_start,1411,space,0,0,197,334835,1149825
10,18,female,Belgian,2,45,guess,loss,5,left,11,guess_choice,866,j,0,0,197,333967,1150693
10,18,female,Belgian,2,45,guess,loss,5,left,11,guess_outcome,0,undefined,0,0,182,332408,1152252
10,18,female,Belgian,2,45,ITC,loss,5,left,11,ITC_start,1029,space,0,0,182,331377,1153283
10,18,female,Belgian,2,45,ITC,loss,5,left,11,ITC_choice,742,f,0,0,182,330634,1154026
10,18,female,Belgian,2,45,ITC,loss,5,left,11,ITC_wait,0,undefined,0,0,182,325628,1159032
10,18,female,Belgian,2,45,ITC,loss,5,left,11,ITC_collect,1059,k,0,0,182,324567,1160093
10,18,female,Belgian,2,45,ITC,loss,5,left,11,ITC_outcome,0,undefined,0,0,202,323548,1161112
10,18,female,Belgian,2,46,guess,neutral,10,right,3,guess_start,737,space,0,0,202,322810,1161850
10,18,female,Belgian,2,46,guess,neutral,10,right,3,guess_choice,700,j,0,0,202,322108,1162552
10,18,female,Belgian,2,46,guess,neutral,10,right,3,guess_outcome,0,undefined,0,0,202,320538,1164122
10,18,female,Belgian,2,46,ITC,neutral,10,right,3,ITC_start,596,space,0,0,202,319940,1164720
10,18,female,Belgian,2,46,ITC,neutral,10,right,3,ITC_choice,913,j,0,0,202,319026,1165634
10,18,female,Belgian,2,46,ITC,neutral,10,right,3,ITC_wait,0,undefined,0,0,202,309011,1175649
10,18,female,Belgian,2,46,ITC,neutral,10,right,3,ITC_collect,996,k,0,0,202,308013,1176647
10,18,female,Belgian,2,46,ITC,neutral,10,right,3,ITC_outcome,0,undefined,0,0,222,307005,1177655
10,18,female,Belgian,2,47,guess,win,10,right,2,guess_start,698,space,0,0,222,306306,1178354
10,18,female,Belgian,2,47,guess,win,10,right,2,guess_choice,832,f,0,0,222,305473,1179187
10,18,female,Belgian,2,47,guess,win,10,right,2,guess_outcome,0,undefined,0,0,242,303905,1180755
10,18,female,Belgian,2,47,ITC,win,10,right,2,ITC_start,971,space,0,0,242,302932,1181728
10,18,female,Belgian,2,47,ITC,win,10,right,2,ITC_choice,682,j,0,0,242,302249,1182411
10,18,female,Belgian,2,47,ITC,win,10,right,2,ITC_wait,0,undefined,0,0,242,292242,1192418
10,18,female,Belgian,2,47,ITC,win,10,right,2,ITC_collect,321,k,0,0,242,291919,1192741
10,18,female,Belgian,2,47,ITC,win,10,right,2,ITC_outcome,0,undefined,0,0,262,290901,1193759
10,18,female,Belgian,2,48,guess,loss,5,right,13,guess_start,495,space,0,0,262,290404,1194256
10,18,female,Belgian,2,48,guess,loss,5,right,13,guess_choice,732,f,0,0,262,289670,1194990
10,18,female,Belgian,2,48,guess,loss,5,right,13,guess_outcome,0,undefined,0,0,247,288101,1196559
10,18,female,Belgian,2,48,ITC,loss,5,right,13,ITC_start,800,space,0,0,247,287300,1197360
10,18,female,Belgian,2,48,ITC,loss,5,right,13,ITC_choice,595,j,0,0,247,286704,1197956
10,18,female,Belgian,2,48,ITC,loss,5,right,13,ITC_wait,0,undefined,0,0,247,281701,1202959
10,18,female,Belgian,2,48,ITC,loss,5,right,13,ITC_collect,433,k,0,0,247,281267,1203393
10,18,female,Belgian,2,48,ITC,loss,5,right,13,ITC_outcome,0,undefined,0,0,267,280261,1204399
10,18,female,Belgian,2,49,guess,win,5,left,7,guess_start,561,space,0,0,267,279699,1204961
10,18,female,Belgian,2,49,guess,win,5,left,7,guess_choice,668,j,0,0,267,279029,1205631
10,18,female,Belgian,2,49,guess,win,5,left,7,guess_outcome,0,undefined,0,0,287,277461,1207199
10,18,female,Belgian,2,49,ITC,win,5,left,7,ITC_start,771,space,0,0,287,276689,1207971
10,18,female,Belgian,2,49,ITC,win,5,left,7,ITC_choice,664,f,0,0,287,276024,1208636
10,18,female,Belgian,2,49,ITC,win,5,left,7,ITC_wait,0,undefined,0,0,287,271021,1213639
10,18,female,Belgian,2,49,ITC,win,5,left,7,ITC_collect,345,k,0,0,287,270675,1213985
10,18,female,Belgian,2,49,ITC,win,5,left,7,ITC_outcome,0,undefined,0,0,307,269671,1214989
10,18,female,Belgian,2,50,guess,neutral,5,right,16,guess_start,586,space,0,0,307,269085,1215575
10,18,female,Belgian,2,50,guess,neutral,5,right,16,guess_choice,659,j,0,0,307,268423,1216237
10,18,female,Belgian,2,50,guess,neutral,5,right,16,guess_outcome,0,undefined,0,0,307,266871,1217789
10,18,female,Belgian,2,50,ITC,neutral,5,right,16,ITC_start,829,space,0,0,307,266041,1218619
10,18,female,Belgian,2,50,ITC,neutral,5,right,16,ITC_choice,751,j,0,0,307,265289,1219371
10,18,female,Belgian,2,50,ITC,neutral,5,right,16,ITC_wait,0,undefined,0,0,307,260271,1224389
10,18,female,Belgian,2,50,ITC,neutral,5,right,16,ITC_collect,1903,k,0,0,307,258367,1226293
10,18,female,Belgian,2,50,ITC,neutral,5,right,16,ITC_outcome,0,undefined,0,0,327,257361,1227299
10,18,female,Belgian,2,51,guess,neutral,5,right,9,guess_start,611,space,0,0,327,256749,1227911
10,18,female,Belgian,2,51,guess,neutral,5,right,9,guess_choice,624,j,0,0,327,256123,1228537
10,18,female,Belgian,2,51,guess,neutral,5,right,9,guess_outcome,0,undefined,0,0,327,254551,1230109
10,18,female,Belgian,2,51,ITC,neutral,5,right,9,ITC_start,4197,space,0,0,327,250352,1234308
10,18,female,Belgian,2,51,ITC,neutral,5,right,9,ITC_choice,1232,j,0,0,327,249120,1235540
10,18,female,Belgian,2,51,ITC,neutral,5,right,9,ITC_wait,0,undefined,0,0,327,244107,1240553
10,18,female,Belgian,2,51,ITC,neutral,5,right,9,ITC_collect,310,k,0,0,327,243796,1240864
10,18,female,Belgian,2,51,ITC,neutral,5,right,9,ITC_outcome,0,undefined,0,0,347,242780,1241880
10,18,female,Belgian,2,52,guess,loss,5,right,5,guess_start,753,space,0,0,347,242025,1242635
10,18,female,Belgian,2,52,guess,loss,5,right,5,guess_choice,614,f,0,0,347,241409,1243251
10,18,female,Belgian,2,52,guess,loss,5,right,5,guess_outcome,0,undefined,0,0,332,239840,1244820
10,18,female,Belgian,2,52,ITC,loss,5,right,5,ITC_start,527,space,0,0,332,239312,1245348
10,18,female,Belgian,2,52,ITC,loss,5,right,5,ITC_choice,663,j,0,0,332,238648,1246012
10,18,female,Belgian,2,52,ITC,loss,5,right,5,ITC_wait,0,undefined,0,0,332,233640,1251020
10,18,female,Belgian,2,52,ITC,loss,5,right,5,ITC_collect,508,k,0,0,332,233131,1251529
10,18,female,Belgian,2,52,ITC,loss,5,right,5,ITC_outcome,0,undefined,0,0,352,232120,1252540
10,18,female,Belgian,2,53,guess,neutral,10,right,7,guess_start,893,space,0,0,352,231225,1253435
10,18,female,Belgian,2,53,guess,neutral,10,right,7,guess_choice,414,j,0,0,352,230809,1253851
10,18,female,Belgian,2,53,guess,neutral,10,right,7,guess_outcome,0,undefined,0,0,352,229239,1255421
10,18,female,Belgian,2,53,ITC,neutral,10,right,7,ITC_start,576,space,0,0,352,228662,1255998
10,18,female,Belgian,2,53,ITC,neutral,10,right,7,ITC_choice,857,j,0,0,352,227804,1256856
10,18,female,Belgian,2,53,ITC,neutral,10,right,7,ITC_wait,0,undefined,0,0,352,217790,1266870
10,18,female,Belgian,2,53,ITC,neutral,10,right,7,ITC_collect,284,k,0,0,352,217505,1267155
10,18,female,Belgian,2,53,ITC,neutral,10,right,7,ITC_outcome,0,undefined,0,0,372,216495,1268165
10,18,female,Belgian,2,54,guess,neutral,10,left,4,guess_start,409,space,0,0,372,216085,1268575
10,18,female,Belgian,2,54,guess,neutral,10,left,4,guess_choice,590,j,0,0,372,215493,1269167
10,18,female,Belgian,2,54,guess,neutral,10,left,4,guess_outcome,0,undefined,0,0,372,213936,1270724
10,18,female,Belgian,2,54,ITC,neutral,10,left,4,ITC_start,674,space,0,0,372,213261,1271399
10,18,female,Belgian,2,54,ITC,neutral,10,left,4,ITC_choice,702,f,0,0,372,212558,1272102
10,18,female,Belgian,2,54,ITC,neutral,10,left,4,ITC_wait,0,undefined,0,0,372,202552,1282108
10,18,female,Belgian,2,54,ITC,neutral,10,left,4,ITC_collect,303,k,0,0,372,202246,1282414
10,18,female,Belgian,2,54,ITC,neutral,10,left,4,ITC_outcome,0,undefined,0,0,392,201228,1283432
10,18,female,Belgian,2,55,guess,loss,5,left,8,guess_start,559,space,0,0,392,200668,1283992
10,18,female,Belgian,2,55,guess,loss,5,left,8,guess_choice,663,f,0,0,392,200003,1284657
10,18,female,Belgian,2,55,guess,loss,5,left,8,guess_outcome,0,undefined,0,0,377,198438,1286222
10,18,female,Belgian,2,55,ITC,loss,5,left,8,ITC_start,1368,space,0,0,377,197068,1287592
10,18,female,Belgian,2,55,ITC,loss,5,left,8,ITC_choice,751,f,0,0,377,196316,1288344
10,18,female,Belgian,2,55,ITC,loss,5,left,8,ITC_wait,0,undefined,0,0,377,191302,1293358
10,18,female,Belgian,2,55,ITC,loss,5,left,8,ITC_collect,616,k,0,0,377,190684,1293976
10,18,female,Belgian,2,55,ITC,loss,5,left,8,ITC_outcome,0,undefined,0,0,397,189668,1294992
10,18,female,Belgian,2,56,guess,win,10,right,3,guess_start,802,space,0,0,397,188864,1295796
10,18,female,Belgian,2,56,guess,win,10,right,3,guess_choice,577,j,0,0,397,188285,1296375
10,18,female,Belgian,2,56,guess,win,10,right,3,guess_outcome,0,undefined,0,0,417,186722,1297938
10,18,female,Belgian,2,56,ITC,win,10,right,3,ITC_start,563,space,0,0,417,186158,1298502
10,18,female,Belgian,2,56,ITC,win,10,right,3,ITC_choice,869,j,0,0,417,185288,1299372
10,18,female,Belgian,2,56,ITC,win,10,right,3,ITC_wait,0,undefined,0,0,417,175286,1309374
10,18,female,Belgian,2,56,ITC,win,10,right,3,ITC_collect,417,k,0,0,417,174868,1309792
10,18,female,Belgian,2,56,ITC,win,10,right,3,ITC_outcome,0,undefined,0,0,437,173864,1310796
10,18,female,Belgian,2,57,guess,win,10,left,7,guess_start,659,space,0,0,437,173204,1311456
10,18,female,Belgian,2,57,guess,win,10,left,7,guess_choice,545,j,0,0,437,172657,1312003
10,18,female,Belgian,2,57,guess,win,10,left,7,guess_outcome,0,undefined,0,0,457,171094,1313566
10,18,female,Belgian,2,57,ITC,win,10,left,7,ITC_start,1270,space,0,0,457,169823,1314837
10,18,female,Belgian,2,57,ITC,win,10,left,7,ITC_choice,734,f,0,0,457,169088,1315572
10,18,female,Belgian,2,57,ITC,win,10,left,7,ITC_wait,0,undefined,0,0,457,159079,1325581
10,18,female,Belgian,2,57,ITC,win,10,left,7,ITC_collect,2014,k,0,0,457,157064,1327596
10,18,female,Belgian,2,57,ITC,win,10,left,7,ITC_outcome,0,undefined,0,0,477,156060,1328600
10,18,female,Belgian,2,58,guess,loss,10,right,3,guess_start,4500,space,0,0,477,151558,1333102
10,18,female,Belgian,2,58,guess,loss,10,right,3,guess_choice,812,f,0,0,477,150745,1333915
10,18,female,Belgian,2,58,guess,loss,10,right,3,guess_outcome,0,undefined,0,0,462,149189,1335471
10,18,female,Belgian,2,58,ITC,loss,10,right,3,ITC_start,160,space,0,0,462,149027,1335633
10,18,female,Belgian,2,58,ITC,loss,10,right,3,ITC_choice,1106,j,0,0,462,147921,1336739
10,18,female,Belgian,2,58,ITC,loss,10,right,3,ITC_wait,0,undefined,0,0,462,137911,1346749
10,18,female,Belgian,2,58,ITC,loss,10,right,3,ITC_collect,348,k,0,0,462,137560,1347100
10,18,female,Belgian,2,58,ITC,loss,10,right,3,ITC_outcome,0,undefined,0,0,482,136535,1348125
10,18,female,Belgian,2,59,guess,neutral,10,right,2,guess_start,3486,space,0,0,482,133048,1351612
10,18,female,Belgian,2,59,guess,neutral,10,right,2,guess_choice,754,f,0,0,482,132291,1352369
10,18,female,Belgian,2,59,guess,neutral,10,right,2,guess_outcome,0,undefined,0,0,482,130734,1353926
10,18,female,Belgian,2,59,ITC,neutral,10,right,2,ITC_start,1298,space,0,0,482,129434,1355226
10,18,female,Belgian,2,59,ITC,neutral,10,right,2,ITC_choice,935,j,0,0,482,128498,1356162
10,18,female,Belgian,2,59,ITC,neutral,10,right,2,ITC_wait,0,undefined,0,0,482,118497,1366163
10,18,female,Belgian,2,59,ITC,neutral,10,right,2,ITC_collect,1266,k,0,0,482,117229,1367431
10,18,female,Belgian,2,59,ITC,neutral,10,right,2,ITC_outcome,0,undefined,0,0,502,116226,1368434
10,18,female,Belgian,2,60,guess,win,5,left,11,guess_start,722,space,0,0,502,115503,1369157
10,18,female,Belgian,2,60,guess,win,5,left,11,guess_choice,856,j,0,0,502,114644,1370016
10,18,female,Belgian,2,60,guess,win,5,left,11,guess_outcome,0,undefined,0,0,522,113073,1371587
10,18,female,Belgian,2,60,ITC,win,5,left,11,ITC_start,818,space,0,0,522,112255,1372405
10,18,female,Belgian,2,60,ITC,win,5,left,11,ITC_choice,990,f,0,0,522,111263,1373397
10,18,female,Belgian,2,60,ITC,win,5,left,11,ITC_wait,0,undefined,0,0,522,106247,1378413
10,18,female,Belgian,2,60,ITC,win,5,left,11,ITC_collect,1155,k,0,0,522,105090,1379570
10,18,female,Belgian,2,60,ITC,win,5,left,11,ITC_outcome,0,undefined,0,0,542,104083,1380577
10,18,female,Belgian,2,61,guess,neutral,5,left,7,guess_start,566,space,0,0,542,103515,1381145
10,18,female,Belgian,2,61,guess,neutral,5,left,7,guess_choice,607,j,0,0,542,102906,1381754
10,18,female,Belgian,2,61,guess,neutral,5,left,7,guess_outcome,0,undefined,0,0,542,101344,1383316
10,18,female,Belgian,2,61,ITC,neutral,5,left,7,ITC_start,665,space,0,0,542,100677,1383983
10,18,female,Belgian,2,61,ITC,neutral,5,left,7,ITC_choice,729,f,0,0,542,99948,1384712
10,18,female,Belgian,2,61,ITC,neutral,5,left,7,ITC_wait,0,undefined,0,0,542,94944,1389716
10,18,female,Belgian,2,61,ITC,neutral,5,left,7,ITC_collect,1864,k,0,0,542,93078,1391582
10,18,female,Belgian,2,61,ITC,neutral,5,left,7,ITC_outcome,0,undefined,0,0,562,92073,1392587
10,18,female,Belgian,2,62,guess,neutral,5,left,6,guess_start,565,space,0,0,562,91507,1393153
10,18,female,Belgian,2,62,guess,neutral,5,left,6,guess_choice,553,j,0,0,562,90952,1393708
10,18,female,Belgian,2,62,guess,neutral,5,left,6,guess_outcome,0,undefined,0,0,562,89394,1395266
10,18,female,Belgian,2,62,ITC,neutral,5,left,6,ITC_start,2428,space,0,0,562,86964,1397696
10,18,female,Belgian,2,62,ITC,neutral,5,left,6,ITC_choice,654,f,0,0,562,86310,1398350
10,18,female,Belgian,2,62,ITC,neutral,5,left,6,ITC_wait,0,undefined,0,0,562,81293,1403367
10,18,female,Belgian,2,62,ITC,neutral,5,left,6,ITC_collect,1665,k,0,0,562,79626,1405034
10,18,female,Belgian,2,62,ITC,neutral,5,left,6,ITC_outcome,0,undefined,0,0,582,78609,1406051
10,18,female,Belgian,2,63,guess,win,10,right,5,guess_start,832,space,0,0,582,77775,1406885
10,18,female,Belgian,2,63,guess,win,10,right,5,guess_choice,612,f,0,0,582,77161,1407499
10,18,female,Belgian,2,63,guess,win,10,right,5,guess_outcome,0,undefined,0,0,602,75608,1409052
10,18,female,Belgian,2,63,ITC,win,10,right,5,ITC_start,3110,space,0,0,602,72497,1412163
10,18,female,Belgian,2,63,ITC,win,10,right,5,ITC_choice,1120,j,0,0,602,71376,1413284
10,18,female,Belgian,2,63,ITC,win,10,right,5,ITC_wait,0,undefined,0,0,602,61361,1423299
10,18,female,Belgian,2,63,ITC,win,10,right,5,ITC_collect,1177,k,0,0,602,60183,1424477
10,18,female,Belgian,2,63,ITC,win,10,right,5,ITC_outcome,0,undefined,0,0,622,59181,1425479
10,18,female,Belgian,2,64,guess,neutral,5,left,4,guess_start,4503,space,0,0,622,54676,1429984
10,18,female,Belgian,2,64,guess,neutral,5,left,4,guess_choice,661,f,0,0,622,54013,1430647
10,18,female,Belgian,2,64,guess,neutral,5,left,4,guess_outcome,0,undefined,0,0,622,52441,1432219
10,18,female,Belgian,2,64,ITC,neutral,5,left,4,ITC_start,930,space,0,0,622,51510,1433150
10,18,female,Belgian,2,64,ITC,neutral,5,left,4,ITC_choice,631,f,0,0,622,50881,1433779
10,18,female,Belgian,2,64,ITC,neutral,5,left,4,ITC_wait,0,undefined,0,0,622,45871,1438789
10,18,female,Belgian,2,64,ITC,neutral,5,left,4,ITC_collect,7317,k,0,0,622,38552,1446108
10,18,female,Belgian,2,64,ITC,neutral,5,left,4,ITC_outcome,0,undefined,0,0,642,37543,1447117
10,18,female,Belgian,2,65,guess,loss,5,right,16,guess_start,1788,space,0,0,642,35753,1448907
10,18,female,Belgian,2,65,guess,loss,5,right,16,guess_choice,799,j,0,0,642,34951,1449709
10,18,female,Belgian,2,65,guess,loss,5,right,16,guess_outcome,0,undefined,0,0,627,33382,1451278
10,18,female,Belgian,2,65,ITC,loss,5,right,16,ITC_start,1242,space,0,0,627,32138,1452522
10,18,female,Belgian,2,65,ITC,loss,5,right,16,ITC_choice,796,j,0,0,627,31341,1453319
10,18,female,Belgian,2,65,ITC,loss,5,right,16,ITC_wait,0,undefined,0,0,627,26323,1458337
10,18,female,Belgian,2,65,ITC,loss,5,right,16,ITC_collect,1211,k,0,0,627,25111,1459549
10,18,female,Belgian,2,65,ITC,loss,5,right,16,ITC_outcome,0,undefined,0,0,647,24102,1460558
10,18,female,Belgian,2,66,guess,win,5,left,16,guess_start,517,space,0,0,647,23584,1461076
10,18,female,Belgian,2,66,guess,win,5,left,16,guess_choice,685,f,0,0,647,22897,1461763
10,18,female,Belgian,2,66,guess,win,5,left,16,guess_outcome,0,undefined,0,0,667,21333,1463327
10,18,female,Belgian,2,66,ITC,win,5,left,16,ITC_start,1811,space,0,0,667,19520,1465140
10,18,female,Belgian,2,66,ITC,win,5,left,16,ITC_choice,1290,f,0,0,667,18229,1466431
10,18,female,Belgian,2,66,ITC,win,5,left,16,ITC_wait,0,undefined,0,0,667,13213,1471447
10,18,female,Belgian,2,66,ITC,win,5,left,16,ITC_collect,3172,k,0,0,667,10040,1474620
10,18,female,Belgian,2,66,ITC,win,5,left,16,ITC_outcome,0,undefined,0,0,687,9030,1475630
10,18,female,Belgian,2,67,guess,neutral,10,right,5,guess_start,528,space,0,0,687,8501,1476159
10,18,female,Belgian,2,67,guess,neutral,10,right,5,guess_choice,706,f,0,0,687,7794,1476866
10,18,female,Belgian,2,67,guess,neutral,10,right,5,guess_outcome,0,undefined,0,0,687,6230,1478430
10,18,female,Belgian,2,67,ITC,neutral,10,right,5,ITC_start,602,space,0,0,687,5627,1479033
10,18,female,Belgian,2,67,ITC,neutral,10,right,5,ITC_choice,797,j,0,0,687,4828,1479832
10,18,female,Belgian,2,67,ITC,neutral,10,right,5,ITC_wait,0,undefined,0,0,687,-9,1484669
10,18,female,Belgian,3,68,guess,neutral,5,right,15,guess_start,7426,space,0,0,0,472573,1532972
10,18,female,Belgian,3,68,guess,neutral,5,right,15,guess_choice,767,j,0,0,0,471804,1533741
10,18,female,Belgian,3,68,guess,neutral,5,right,15,guess_outcome,0,undefined,0,0,0,470235,1535310
10,18,female,Belgian,3,68,ITC,neutral,5,right,15,ITC_start,518,space,0,0,0,469716,1535829
10,18,female,Belgian,3,68,ITC,neutral,5,right,15,ITC_choice,1034,j,0,0,0,468681,1536864
10,18,female,Belgian,3,68,ITC,neutral,5,right,15,ITC_wait,0,undefined,0,0,0,463675,1541870
10,18,female,Belgian,3,68,ITC,neutral,5,right,15,ITC_collect,305,k,0,0,0,463368,1542177
10,18,female,Belgian,3,68,ITC,neutral,5,right,15,ITC_outcome,0,undefined,0,0,20,462364,1543181
10,18,female,Belgian,3,69,guess,neutral,5,right,11,guess_start,498,space,0,0,20,461865,1543680
10,18,female,Belgian,3,69,guess,neutral,5,right,11,guess_choice,602,f,0,0,20,461261,1544284
10,18,female,Belgian,3,69,guess,neutral,5,right,11,guess_outcome,0,undefined,0,0,20,459704,1545841
10,18,female,Belgian,3,69,ITC,neutral,5,right,11,ITC_start,582,space,0,0,20,459120,1546425
10,18,female,Belgian,3,69,ITC,neutral,5,right,11,ITC_choice,1283,j,0,0,20,457836,1547709
10,18,female,Belgian,3,69,ITC,neutral,5,right,11,ITC_wait,0,undefined,0,0,20,452833,1552712
10,18,female,Belgian,3,69,ITC,neutral,5,right,11,ITC_collect,871,k,0,0,20,451961,1553584
10,18,female,Belgian,3,69,ITC,neutral,5,right,11,ITC_outcome,0,undefined,0,0,40,450955,1554590
10,18,female,Belgian,3,70,guess,loss,10,right,8,guess_start,505,space,0,0,40,450449,1555096
10,18,female,Belgian,3,70,guess,loss,10,right,8,guess_choice,612,j,0,0,40,449834,1555711
10,18,female,Belgian,3,70,guess,loss,10,right,8,guess_outcome,0,undefined,0,0,25,448274,1557271
10,18,female,Belgian,3,70,ITC,loss,10,right,8,ITC_start,508,space,0,0,25,447764,1557781
10,18,female,Belgian,3,70,ITC,loss,10,right,8,ITC_choice,735,j,0,0,25,447028,1558517
10,18,female,Belgian,3,70,ITC,loss,10,right,8,ITC_wait,0,undefined,0,0,25,437015,1568530
10,18,female,Belgian,3,70,ITC,loss,10,right,8,ITC_collect,1053,k,0,0,25,435960,1569585
10,18,female,Belgian,3,70,ITC,loss,10,right,8,ITC_outcome,0,undefined,0,0,45,434954,1570591
10,18,female,Belgian,3,71,guess,neutral,10,right,6,guess_start,546,space,0,0,45,434406,1571139
10,18,female,Belgian,3,71,guess,neutral,10,right,6,guess_choice,690,j,0,0,45,433714,1571831
10,18,female,Belgian,3,71,guess,neutral,10,right,6,guess_outcome,0,undefined,0,0,45,432150,1573395
10,18,female,Belgian,3,71,ITC,neutral,10,right,6,ITC_start,606,space,0,0,45,431543,1574002
10,18,female,Belgian,3,71,ITC,neutral,10,right,6,ITC_choice,775,j,0,0,45,430767,1574778
10,18,female,Belgian,3,71,ITC,neutral,10,right,6,ITC_wait,0,undefined,0,0,45,420753,1584792
10,18,female,Belgian,3,71,ITC,neutral,10,right,6,ITC_collect,1835,k,0,0,45,418909,1586636
10,18,female,Belgian,3,71,ITC,neutral,10,right,6,ITC_outcome,0,undefined,0,0,65,417896,1587649
10,18,female,Belgian,3,72,guess,win,5,left,1,guess_start,550,space,0,0,65,417344,1588201
10,18,female,Belgian,3,72,guess,win,5,left,1,guess_choice,678,f,0,0,65,416665,1588880
10,18,female,Belgian,3,72,guess,win,5,left,1,guess_outcome,0,undefined,0,0,85,415096,1590449
10,18,female,Belgian,3,72,ITC,win,5,left,1,ITC_start,1400,space,0,0,85,413694,1591851
10,18,female,Belgian,3,72,ITC,win,5,left,1,ITC_choice,651,f,0,0,85,413041,1592504
10,18,female,Belgian,3,72,ITC,win,5,left,1,ITC_wait,0,undefined,0,0,85,408026,1597519
10,18,female,Belgian,3,72,ITC,win,5,left,1,ITC_collect,819,k,0,0,85,407206,1598339
10,18,female,Belgian,3,72,ITC,win,5,left,1,ITC_outcome,0,undefined,0,0,105,406186,1599359
10,18,female,Belgian,3,73,guess,loss,10,right,1,guess_start,578,space,0,0,105,405606,1599939
10,18,female,Belgian,3,73,guess,loss,10,right,1,guess_choice,931,j,0,0,105,404673,1600872
10,18,female,Belgian,3,73,guess,loss,10,right,1,guess_outcome,0,undefined,0,0,90,403106,1602439
10,18,female,Belgian,3,73,ITC,loss,10,right,1,ITC_start,515,space,0,0,90,402590,1602955
10,18,female,Belgian,3,73,ITC,loss,10,right,1,ITC_choice,683,j,0,0,90,401906,1603639
10,18,female,Belgian,3,73,ITC,loss,10,right,1,ITC_wait,0,undefined,0,0,90,391904,1613641
10,18,female,Belgian,3,73,ITC,loss,10,right,1,ITC_collect,559,k,0,0,90,391344,1614201
10,18,female,Belgian,3,73,ITC,loss,10,right,1,ITC_outcome,0,undefined,0,0,110,390335,1615210
10,18,female,Belgian,3,74,guess,win,10,left,5,guess_start,503,space,0,0,110,389831,1615714
10,18,female,Belgian,3,74,guess,win,10,left,5,guess_choice,685,j,0,0,110,389144,1616401
10,18,female,Belgian,3,74,guess,win,10,left,5,guess_outcome,0,undefined,0,0,130,387585,1617960
10,18,female,Belgian,3,74,ITC,win,10,left,5,ITC_start,3170,space,0,0,130,384413,1621132
10,18,female,Belgian,3,74,ITC,win,10,left,5,ITC_choice,1031,f,0,0,130,383382,1622163
10,18,female,Belgian,3,74,ITC,win,10,left,5,ITC_wait,0,undefined,0,0,130,373373,1632172
10,18,female,Belgian,3,74,ITC,win,10,left,5,ITC_collect,5119,k,0,0,130,368251,1637294
10,18,female,Belgian,3,74,ITC,win,10,left,5,ITC_outcome,0,undefined,0,0,150,367240,1638305
10,18,female,Belgian,3,75,guess,win,5,left,5,guess_start,6813,space,0,0,150,360425,1645120
10,18,female,Belgian,3,75,guess,win,5,left,5,guess_choice,929,j,0,0,150,359494,1646051
10,18,female,Belgian,3,75,guess,win,5,left,5,guess_outcome,0,undefined,0,0,170,357940,1647605
10,18,female,Belgian,3,75,ITC,win,5,left,5,ITC_start,1326,space,0,0,170,356612,1648933
10,18,female,Belgian,3,75,ITC,win,5,left,5,ITC_choice,712,f,0,0,170,355899,1649646
10,18,female,Belgian,3,75,ITC,win,5,left,5,ITC_wait,0,undefined,0,0,170,350890,1654655
10,18,female,Belgian,3,75,ITC,win,5,left,5,ITC_collect,1641,k,0,0,170,349247,1656298
10,18,female,Belgian,3,75,ITC,win,5,left,5,ITC_outcome,0,undefined,0,0,190,348240,1657305
10,18,female,Belgian,3,76,guess,neutral,5,right,6,guess_start,3266,space,0,0,190,344972,1660573
10,18,female,Belgian,3,76,guess,neutral,5,right,6,guess_choice,680,j,0,0,190,344290,1661255
10,18,female,Belgian,3,76,guess,neutral,5,right,6,guess_outcome,0,undefined,0,0,190,342720,1662825
10,18,female,Belgian,3,76,ITC,neutral,5,right,6,ITC_start,552,space,0,0,190,342167,1663378
10,18,female,Belgian,3,76,ITC,neutral,5,right,6,ITC_choice,698,j,0,0,190,341467,1664078
10,18,female,Belgian,3,76,ITC,neutral,5,right,6,ITC_wait,0,undefined,0,0,190,336450,1669095
10,18,female,Belgian,3,76,ITC,neutral,5,right,6,ITC_collect,701,k,0,0,190,335748,1669797
10,18,female,Belgian,3,76,ITC,neutral,5,right,6,ITC_outcome,0,undefined,0,0,210,334740,1670805
10,18,female,Belgian,3,77,guess,win,5,left,15,guess_start,905,space,0,0,210,333833,1671712
10,18,female,Belgian,3,77,guess,win,5,left,15,guess_choice,947,f,0,0,210,332884,1672661
10,18,female,Belgian,3,77,guess,win,5,left,15,guess_outcome,0,undefined,0,0,230,331330,1674215
10,18,female,Belgian,3,77,ITC,win,5,left,15,ITC_start,858,space,0,0,230,330470,1675075
10,18,female,Belgian,3,77,ITC,win,5,left,15,ITC_choice,1166,j,0,0,230,329303,1676242
10,18,female,Belgian,3,77,ITC,win,5,left,15,ITC_wait,0,undefined,0,0,230,329300,1676245
10,18,female,Belgian,3,77,ITC,win,5,left,15,ITC_collect,717,k,0,0,230,328581,1676964
10,18,female,Belgian,3,77,ITC,win,5,left,15,ITC_outcome,0,undefined,0,0,245,327570,1677975
10,18,female,Belgian,3,78,guess,loss,10,right,6,guess_start,522,space,0,0,245,327046,1678499
10,18,female,Belgian,3,78,guess,loss,10,right,6,guess_choice,659,f,0,0,245,326385,1679160
10,18,female,Belgian,3,78,guess,loss,10,right,6,guess_outcome,0,undefined,0,0,230,324830,1680715
10,18,female,Belgian,3,78,ITC,loss,10,right,6,ITC_start,467,space,0,0,230,324361,1681184
10,18,female,Belgian,3,78,ITC,loss,10,right,6,ITC_choice,550,j,0,0,230,323811,1681734
10,18,female,Belgian,3,78,ITC,loss,10,right,6,ITC_wait,0,undefined,0,0,230,313797,1691748
10,18,female,Belgian,3,78,ITC,loss,10,right,6,ITC_collect,431,k,0,0,230,313364,1692181
10,18,female,Belgian,3,78,ITC,loss,10,right,6,ITC_outcome,0,undefined,0,0,250,312344,1693201
10,18,female,Belgian,3,79,guess,win,5,left,4,guess_start,572,space,0,0,250,311772,1693773
10,18,female,Belgian,3,79,guess,win,5,left,4,guess_choice,629,f,0,0,250,311141,1694404
10,18,female,Belgian,3,79,guess,win,5,left,4,guess_outcome,0,undefined,0,0,270,309585,1695960
10,18,female,Belgian,3,79,ITC,win,5,left,4,ITC_start,928,space,0,0,270,308656,1696889
10,18,female,Belgian,3,79,ITC,win,5,left,4,ITC_choice,682,f,0,0,270,307973,1697572
10,18,female,Belgian,3,79,ITC,win,5,left,4,ITC_wait,0,undefined,0,0,270,302956,1702589
10,18,female,Belgian,3,79,ITC,win,5,left,4,ITC_collect,712,k,0,0,270,302242,1703303
10,18,female,Belgian,3,79,ITC,win,5,left,4,ITC_outcome,0,undefined,0,0,290,301225,1704320
10,18,female,Belgian,3,80,guess,loss,5,left,2,guess_start,1050,space,0,0,290,300173,1705372
10,18,female,Belgian,3,80,guess,loss,5,left,2,guess_choice,720,j,0,0,290,299451,1706094
10,18,female,Belgian,3,80,guess,loss,5,left,2,guess_outcome,0,undefined,0,0,275,297885,1707660
10,18,female,Belgian,3,80,ITC,loss,5,left,2,ITC_start,636,space,0,0,275,297248,1708297
10,18,female,Belgian,3,80,ITC,loss,5,left,2,ITC_choice,643,f,0,0,275,296603,1708942
10,18,female,Belgian,3,80,ITC,loss,5,left,2,ITC_wait,0,undefined,0,0,275,291595,1713950
10,18,female,Belgian,3,80,ITC,loss,5,left,2,ITC_collect,402,k,0,0,275,291191,1714354
10,18,female,Belgian,3,80,ITC,loss,5,left,2,ITC_outcome,0,undefined,0,0,295,290184,1715361
10,18,female,Belgian,3,81,guess,loss,10,right,8,guess_start,738,space,0,0,295,289444,1716101
10,18,female,Belgian,3,81,guess,loss,10,right,8,guess_choice,667,j,0,0,295,288775,1716770
10,18,female,Belgian,3,81,guess,loss,10,right,8,guess_outcome,0,undefined,0,0,280,287215,1718330
10,18,female,Belgian,3,81,ITC,loss,10,right,8,ITC_start,547,space,0,0,280,286667,1718878
10,18,female,Belgian,3,81,ITC,loss,10,right,8,ITC_choice,730,j,0,0,280,285935,1719610
10,18,female,Belgian,3,81,ITC,loss,10,right,8,ITC_wait,0,undefined,0,0,280,275929,1729616
10,18,female,Belgian,3,81,ITC,loss,10,right,8,ITC_collect,398,k,0,0,280,275530,1730015
10,18,female,Belgian,3,81,ITC,loss,10,right,8,ITC_outcome,0,undefined,0,0,300,274526,1731019
10,18,female,Belgian,3,82,guess,neutral,10,left,6,guess_start,724,space,0,0,300,273800,1731745
10,18,female,Belgian,3,82,guess,neutral,10,left,6,guess_choice,655,j,0,0,300,273143,1732402
10,18,female,Belgian,3,82,guess,neutral,10,left,6,guess_outcome,0,undefined,0,0,300,271577,1733968
10,18,female,Belgian,3,82,ITC,neutral,10,left,6,ITC_start,530,space,0,0,300,271046,1734499
10,18,female,Belgian,3,82,ITC,neutral,10,left,6,ITC_choice,718,f,0,0,300,270327,1735218
10,18,female,Belgian,3,82,ITC,neutral,10,left,6,ITC_wait,0,undefined,0,0,300,260324,1745221
10,18,female,Belgian,3,82,ITC,neutral,10,left,6,ITC_collect,340,k,0,0,300,259982,1745563
10,18,female,Belgian,3,82,ITC,neutral,10,left,6,ITC_outcome,0,undefined,0,0,320,258978,1746567
10,18,female,Belgian,3,83,guess,loss,5,left,7,guess_start,554,space,0,0,320,258423,1747122
10,18,female,Belgian,3,83,guess,loss,5,left,7,guess_choice,765,j,0,0,320,257656,1747889
10,18,female,Belgian,3,83,guess,loss,5,left,7,guess_outcome,0,undefined,0,0,305,256088,1749457
10,18,female,Belgian,3,83,ITC,loss,5,left,7,ITC_start,1241,space,0,0,305,254846,1750699
10,18,female,Belgian,3,83,ITC,loss,5,left,7,ITC_choice,575,f,0,0,305,254270,1751275
10,18,female,Belgian,3,83,ITC,loss,5,left,7,ITC_wait,0,undefined,0,0,305,249268,1756277
10,18,female,Belgian,3,83,ITC,loss,5,left,7,ITC_collect,993,k,0,0,305,248274,1757271
10,18,female,Belgian,3,83,ITC,loss,5,left,7,ITC_outcome,0,undefined,0,0,325,247268,1758277
10,18,female,Belgian,3,84,guess,neutral,5,left,2,guess_start,2157,space,0,0,325,245110,1760435
10,18,female,Belgian,3,84,guess,neutral,5,left,2,guess_choice,1752,f,0,0,325,243356,1762189
10,18,female,Belgian,3,84,guess,neutral,5,left,2,guess_outcome,0,undefined,0,0,325,241798,1763747
10,18,female,Belgian,3,84,ITC,neutral,5,left,2,ITC_start,1004,space,0,0,325,240793,1764752
10,18,female,Belgian,3,84,ITC,neutral,5,left,2,ITC_choice,621,f,0,0,325,240171,1765374
10,18,female,Belgian,3,84,ITC,neutral,5,left,2,ITC_wait,0,undefined,0,0,325,235158,1770387
10,18,female,Belgian,3,84,ITC,neutral,5,left,2,ITC_collect,927,k,0,0,325,234230,1771315
10,18,female,Belgian,3,84,ITC,neutral,5,left,2,ITC_outcome,0,undefined,0,0,345,233218,1772327
10,18,female,Belgian,3,85,guess,loss,5,right,5,guess_start,576,space,0,0,345,232641,1772904
10,18,female,Belgian,3,85,guess,loss,5,right,5,guess_choice,615,j,0,0,345,232024,1773521
10,18,female,Belgian,3,85,guess,loss,5,right,5,guess_outcome,0,undefined,0,0,330,230458,1775087
10,18,female,Belgian,3,85,ITC,loss,5,right,5,ITC_start,704,space,0,0,330,229752,1775793
10,18,female,Belgian,3,85,ITC,loss,5,right,5,ITC_choice,1112,j,0,0,330,228639,1776906
10,18,female,Belgian,3,85,ITC,loss,5,right,5,ITC_wait,0,undefined,0,0,330,223636,1781909
10,18,female,Belgian,3,85,ITC,loss,5,right,5,ITC_collect,854,k,0,0,330,222781,1782764
10,18,female,Belgian,3,85,ITC,loss,5,right,5,ITC_outcome,0,undefined,0,0,350,221768,1783777
10,18,female,Belgian,3,86,guess,win,5,right,7,guess_start,715,space,0,0,350,221051,1784494
10,18,female,Belgian,3,86,guess,win,5,right,7,guess_choice,692,j,0,0,350,220357,1785188
10,18,female,Belgian,3,86,guess,win,5,right,7,guess_outcome,0,undefined,0,0,370,218798,1786747
10,18,female,Belgian,3,86,ITC,win,5,right,7,ITC_start,778,space,0,0,370,218019,1787526
10,18,female,Belgian,3,86,ITC,win,5,right,7,ITC_choice,625,j,0,0,370,217393,1788152
10,18,female,Belgian,3,86,ITC,win,5,right,7,ITC_wait,0,undefined,0,0,370,212378,1793167
10,18,female,Belgian,3,86,ITC,win,5,right,7,ITC_collect,346,k,0,0,370,212030,1793515
10,18,female,Belgian,3,86,ITC,win,5,right,7,ITC_outcome,0,undefined,0,0,390,211018,1794527
10,18,female,Belgian,3,87,guess,neutral,5,right,16,guess_start,705,space,0,0,390,210312,1795233
10,18,female,Belgian,3,87,guess,neutral,5,right,16,guess_choice,809,f,0,0,390,209501,1796044
10,18,female,Belgian,3,87,guess,neutral,5,right,16,guess_outcome,0,undefined,0,0,390,207938,1797607
10,18,female,Belgian,3,87,ITC,neutral,5,right,16,ITC_start,1603,space,0,0,390,206333,1799212
10,18,female,Belgian,3,87,ITC,neutral,5,right,16,ITC_choice,628,j,0,0,390,205705,1799840
10,18,female,Belgian,3,87,ITC,neutral,5,right,16,ITC_wait,0,undefined,0,0,390,200698,1804847
10,18,female,Belgian,3,87,ITC,neutral,5,right,16,ITC_collect,478,k,0,0,390,200219,1805326
10,18,female,Belgian,3,87,ITC,neutral,5,right,16,ITC_outcome,0,undefined,0,0,410,199198,1806347
10,18,female,Belgian,3,88,guess,loss,5,left,16,guess_start,625,space,0,0,410,198571,1806974
10,18,female,Belgian,3,88,guess,loss,5,left,16,guess_choice,1048,j,0,0,410,197522,1808023
10,18,female,Belgian,3,88,guess,loss,5,left,16,guess_outcome,0,undefined,0,0,395,195958,1809587
10,18,female,Belgian,3,88,ITC,loss,5,left,16,ITC_start,370,space,0,0,395,195586,1809959
10,18,female,Belgian,3,88,ITC,loss,5,left,16,ITC_choice,1148,j,0,0,395,194437,1811108
10,18,female,Belgian,3,88,ITC,loss,5,left,16,ITC_wait,0,undefined,0,0,395,194435,1811110
10,18,female,Belgian,3,88,ITC,loss,5,left,16,ITC_collect,961,k,0,0,395,193473,1812072
10,18,female,Belgian,3,88,ITC,loss,5,left,16,ITC_outcome,0,undefined,0,0,411,192468,1813077
10,18,female,Belgian,3,89,guess,neutral,10,left,1,guess_start,513,space,0,0,411,191953,1813592
10,18,female,Belgian,3,89,guess,neutral,10,left,1,guess_choice,689,j,0,0,411,191262,1814283
10,18,female,Belgian,3,89,guess,neutral,10,left,1,guess_outcome,0,undefined,0,0,411,189708,1815837
10,18,female,Belgian,3,89,ITC,neutral,10,left,1,ITC_start,967,space,0,0,411,188740,1816805
10,18,female,Belgian,3,89,ITC,neutral,10,left,1,ITC_choice,659,f,0,0,411,188080,1817465
10,18,female,Belgian,3,89,ITC,neutral,10,left,1,ITC_wait,0,undefined,0,0,411,178066,1827479
10,18,female,Belgian,3,89,ITC,neutral,10,left,1,ITC_collect,401,k,0,0,411,177664,1827881
10,18,female,Belgian,3,89,ITC,neutral,10,left,1,ITC_outcome,0,undefined,0,0,431,176657,1828888
10,18,female,Belgian,3,90,guess,neutral,5,left,11,guess_start,604,space,0,0,431,176052,1829493
10,18,female,Belgian,3,90,guess,neutral,5,left,11,guess_choice,528,j,0,0,431,175522,1830023
10,18,female,Belgian,3,90,guess,neutral,5,left,11,guess_outcome,0,undefined,0,0,431,173958,1831587
10,18,female,Belgian,3,90,ITC,neutral,5,left,11,ITC_start,534,space,0,0,431,173422,1832123
10,18,female,Belgian,3,90,ITC,neutral,5,left,11,ITC_choice,910,f,0,0,431,172511,1833034
10,18,female,Belgian,3,90,ITC,neutral,5,left,11,ITC_wait,0,undefined,0,0,431,167507,1838038
10,18,female,Belgian,3,90,ITC,neutral,5,left,11,ITC_collect,396,k,0,0,431,167110,1838435
10,18,female,Belgian,3,90,ITC,neutral,5,left,11,ITC_outcome,0,undefined,0,0,451,166107,1839438
10,18,female,Belgian,3,91,guess,win,10,right,1,guess_start,504,space,0,0,451,165601,1839944
10,18,female,Belgian,3,91,guess,win,10,right,1,guess_choice,669,j,0,0,451,164930,1840615
10,18,female,Belgian,3,91,guess,win,10,right,1,guess_outcome,0,undefined,0,0,471,163367,1842178
10,18,female,Belgian,3,91,ITC,win,10,right,1,ITC_start,673,space,0,0,471,162693,1842852
10,18,female,Belgian,3,91,ITC,win,10,right,1,ITC_choice,619,j,0,0,471,162073,1843472
10,18,female,Belgian,3,91,ITC,win,10,right,1,ITC_wait,0,undefined,0,0,471,152067,1853478
10,18,female,Belgian,3,91,ITC,win,10,right,1,ITC_collect,421,k,0,0,471,151645,1853900
10,18,female,Belgian,3,91,ITC,win,10,right,1,ITC_outcome,0,undefined,0,0,491,150628,1854917
10,18,female,Belgian,3,92,guess,neutral,10,left,8,guess_start,605,space,0,0,491,150022,1855523
10,18,female,Belgian,3,92,guess,neutral,10,left,8,guess_choice,596,j,0,0,491,149425,1856120
10,18,female,Belgian,3,92,guess,neutral,10,left,8,guess_outcome,0,undefined,0,0,491,147854,1857691
10,18,female,Belgian,3,92,ITC,neutral,10,left,8,ITC_start,762,space,0,0,491,147091,1858454
10,18,female,Belgian,3,92,ITC,neutral,10,left,8,ITC_choice,634,f,0,0,491,146456,1859089
10,18,female,Belgian,3,92,ITC,neutral,10,left,8,ITC_wait,0,undefined,0,0,491,136439,1869106
10,18,female,Belgian,3,92,ITC,neutral,10,left,8,ITC_collect,446,k,0,0,491,135992,1869553
10,18,female,Belgian,3,92,ITC,neutral,10,left,8,ITC_outcome,0,undefined,0,0,511,134985,1870560
10,18,female,Belgian,3,93,guess,win,5,left,12,guess_start,960,space,0,0,511,134024,1871521
10,18,female,Belgian,3,93,guess,win,5,left,12,guess_choice,776,j,0,0,511,133245,1872300
10,18,female,Belgian,3,93,guess,win,5,left,12,guess_outcome,0,undefined,0,0,531,131675,1873870
10,18,female,Belgian,3,93,ITC,win,5,left,12,ITC_start,796,space,0,0,531,130877,1874668
10,18,female,Belgian,3,93,ITC,win,5,left,12,ITC_choice,733,f,0,0,531,130144,1875401
10,18,female,Belgian,3,93,ITC,win,5,left,12,ITC_wait,0,undefined,0,0,531,125135,1880410
10,18,female,Belgian,3,93,ITC,win,5,left,12,ITC_collect,570,k,0,0,531,124564,1880981
10,18,female,Belgian,3,93,ITC,win,5,left,12,ITC_outcome,0,undefined,0,0,551,123545,1882000
10,18,female,Belgian,3,94,guess,win,10,left,6,guess_start,544,space,0,0,551,122999,1882546
10,18,female,Belgian,3,94,guess,win,10,left,6,guess_choice,569,j,0,0,551,122429,1883116
10,18,female,Belgian,3,94,guess,win,10,left,6,guess_outcome,0,undefined,0,0,571,120875,1884670
10,18,female,Belgian,3,94,ITC,win,10,left,6,ITC_start,448,space,0,0,571,120425,1885120
10,18,female,Belgian,3,94,ITC,win,10,left,6,ITC_choice,594,f,0,0,571,119830,1885715
10,18,female,Belgian,3,94,ITC,win,10,left,6,ITC_wait,0,undefined,0,0,571,109822,1895723
10,18,female,Belgian,3,94,ITC,win,10,left,6,ITC_collect,847,k,0,0,571,108974,1896571
10,18,female,Belgian,3,94,ITC,win,10,left,6,ITC_outcome,0,undefined,0,0,591,107967,1897578
10,18,female,Belgian,3,95,guess,loss,5,right,14,guess_start,465,space,0,0,591,107501,1898044
10,18,female,Belgian,3,95,guess,loss,5,right,14,guess_choice,1003,f,0,0,591,106496,1899049
10,18,female,Belgian,3,95,guess,loss,5,right,14,guess_outcome,0,undefined,0,0,576,104937,1900608
10,18,female,Belgian,3,95,ITC,loss,5,right,14,ITC_start,1280,space,0,0,576,103656,1901889
10,18,female,Belgian,3,95,ITC,loss,5,right,14,ITC_choice,825,j,0,0,576,102830,1902715
10,18,female,Belgian,3,95,ITC,loss,5,right,14,ITC_wait,0,undefined,0,0,576,97818,1907727
10,18,female,Belgian,3,95,ITC,loss,5,right,14,ITC_collect,832,k,0,0,576,96984,1908561
10,18,female,Belgian,3,95,ITC,loss,5,right,14,ITC_outcome,0,undefined,0,0,596,95977,1909568
10,18,female,Belgian,3,96,guess,neutral,5,left,5,guess_start,811,space,0,0,596,95164,1910381
10,18,female,Belgian,3,96,guess,neutral,5,left,5,guess_choice,534,j,0,0,596,94628,1910917
10,18,female,Belgian,3,96,guess,neutral,5,left,5,guess_outcome,0,undefined,0,0,596,93057,1912488
10,18,female,Belgian,3,96,ITC,neutral,5,left,5,ITC_start,625,space,0,0,596,92431,1913114
10,18,female,Belgian,3,96,ITC,neutral,5,left,5,ITC_choice,1227,f,0,0,596,91203,1914342
10,18,female,Belgian,3,96,ITC,neutral,5,left,5,ITC_wait,0,undefined,0,0,596,86187,1919358
10,18,female,Belgian,3,96,ITC,neutral,5,left,5,ITC_collect,1155,k,0,0,596,85031,1920514
10,18,female,Belgian,3,96,ITC,neutral,5,left,5,ITC_outcome,0,undefined,0,0,616,84026,1921519
10,18,female,Belgian,3,97,guess,win,10,right,3,guess_start,671,space,0,0,616,83352,1922193
10,18,female,Belgian,3,97,guess,win,10,right,3,guess_choice,1675,f,0,0,616,81676,1923869
10,18,female,Belgian,3,97,guess,win,10,right,3,guess_outcome,0,undefined,0,0,636,80117,1925428
10,18,female,Belgian,3,97,ITC,win,10,right,3,ITC_start,936,space,0,0,636,79179,1926366
10,18,female,Belgian,3,97,ITC,win,10,right,3,ITC_choice,1289,j,0,0,636,77889,1927656
10,18,female,Belgian,3,97,ITC,win,10,right,3,ITC_wait,0,undefined,0,0,636,67880,1937665
10,18,female,Belgian,3,97,ITC,win,10,right,3,ITC_collect,397,k,0,0,636,67481,1938064
10,18,female,Belgian,3,97,ITC,win,10,right,3,ITC_outcome,0,undefined,0,0,656,66475,1939070
10,18,female,Belgian,3,98,guess,win,5,left,13,guess_start,560,space,0,0,656,65913,1939632
10,18,female,Belgian,3,98,guess,win,5,left,13,guess_choice,557,j,0,0,656,65355,1940190
10,18,female,Belgian,3,98,guess,win,5,left,13,guess_outcome,0,undefined,0,0,676,63785,1941760
10,18,female,Belgian,3,98,ITC,win,5,left,13,ITC_start,576,space,0,0,676,63207,1942338
10,18,female,Belgian,3,98,ITC,win,5,left,13,ITC_choice,678,f,0,0,676,62528,1943017
10,18,female,Belgian,3,98,ITC,win,5,left,13,ITC_wait,0,undefined,0,0,676,57524,1948021
10,18,female,Belgian,3,98,ITC,win,5,left,13,ITC_collect,312,k,0,0,676,57211,1948334
10,18,female,Belgian,3,98,ITC,win,5,left,13,ITC_outcome,0,undefined,0,0,696,56205,1949340
10,18,female,Belgian,3,99,guess,loss,5,left,3,guess_start,543,space,0,0,696,55661,1949884
10,18,female,Belgian,3,99,guess,loss,5,left,3,guess_choice,596,j,0,0,696,55063,1950482
10,18,female,Belgian,3,99,guess,loss,5,left,3,guess_outcome,0,undefined,0,0,681,53505,1952040
10,18,female,Belgian,3,99,ITC,loss,5,left,3,ITC_start,560,space,0,0,681,52943,1952602
10,18,female,Belgian,3,99,ITC,loss,5,left,3,ITC_choice,983,j,0,0,681,51959,1953586
10,18,female,Belgian,3,99,ITC,loss,5,left,3,ITC_wait,0,undefined,0,0,681,51957,1953588
10,18,female,Belgian,3,99,ITC,loss,5,left,3,ITC_collect,718,k,0,0,681,51238,1954307
10,18,female,Belgian,3,99,ITC,loss,5,left,3,ITC_outcome,0,undefined,0,0,684,50225,1955320
10,18,female,Belgian,3,100,guess,loss,5,right,6,guess_start,539,space,0,0,684,49685,1955860
10,18,female,Belgian,3,100,guess,loss,5,right,6,guess_choice,677,j,0,0,684,49007,1956538
10,18,female,Belgian,3,100,guess,loss,5,right,6,guess_outcome,0,undefined,0,0,669,47446,1958099
10,18,female,Belgian,3,100,ITC,loss,5,right,6,ITC_start,787,space,0,0,669,46658,1958887
10,18,female,Belgian,3,100,ITC,loss,5,right,6,ITC_choice,810,j,0,0,669,45847,1959698
10,18,female,Belgian,3,100,ITC,loss,5,right,6,ITC_wait,0,undefined,0,0,669,40826,1964719
10,18,female,Belgian,3,100,ITC,loss,5,right,6,ITC_collect,741,k,0,0,669,40084,1965461
10,18,female,Belgian,3,100,ITC,loss,5,right,6,ITC_outcome,0,undefined,0,0,689,39066,1966479
10,18,female,Belgian,3,101,guess,loss,10,right,5,guess_start,387,space,0,0,689,38677,1966868
10,18,female,Belgian,3,101,guess,loss,10,right,5,guess_choice,621,j,0,0,689,38055,1967490
10,18,female,Belgian,3,101,guess,loss,10,right,5,guess_outcome,0,undefined,0,0,674,36486,1969059
10,18,female,Belgian,3,101,ITC,loss,10,right,5,ITC_start,686,space,0,0,674,35799,1969746
10,18,female,Belgian,3,101,ITC,loss,10,right,5,ITC_choice,515,j,0,0,674,35284,1970261
10,18,female,Belgian,3,101,ITC,loss,10,right,5,ITC_wait,0,undefined,0,0,674,25268,1980277
10,18,female,Belgian,3,101,ITC,loss,10,right,5,ITC_collect,356,k,0,0,674,24910,1980635
10,18,female,Belgian,3,101,ITC,loss,10,right,5,ITC_outcome,0,undefined,0,0,694,23907,1981638
10,18,female,Belgian,3,102,guess,loss,5,left,8,guess_start,450,space,0,0,694,23456,1982089
10,18,female,Belgian,3,102,guess,loss,5,left,8,guess_choice,1119,j,0,0,694,22336,1983209
10,18,female,Belgian,3,102,guess,loss,5,left,8,guess_outcome,0,undefined,0,0,679,20772,1984773
10,18,female,Belgian,3,102,ITC,loss,5,left,8,ITC_start,487,space,0,0,679,20283,1985262
10,18,female,Belgian,3,102,ITC,loss,5,left,8,ITC_choice,740,j,0,0,679,19543,1986002
10,18,female,Belgian,3,102,ITC,loss,5,left,8,ITC_wait,0,undefined,0,0,679,19540,1986005
10,18,female,Belgian,3,102,ITC,loss,5,left,8,ITC_collect,661,k,0,0,679,18878,1986667
10,18,female,Belgian,3,102,ITC,loss,5,left,8,ITC_outcome,0,undefined,0,0,687,17868,1987677
10,18,female,Belgian,3,103,guess,loss,5,left,13,guess_start,453,space,0,0,687,17413,1988132
10,18,female,Belgian,3,103,guess,loss,5,left,13,guess_choice,614,j,0,0,687,16798,1988747
10,18,female,Belgian,3,103,guess,loss,5,left,13,guess_outcome,0,undefined,0,0,672,15228,1990317
10,18,female,Belgian,3,103,ITC,loss,5,left,13,ITC_start,464,space,0,0,672,14763,1990782
10,18,female,Belgian,3,103,ITC,loss,5,left,13,ITC_choice,543,j,0,0,672,14218,1991327
10,18,female,Belgian,3,103,ITC,loss,5,left,13,ITC_wait,0,undefined,0,0,672,14216,1991329
10,18,female,Belgian,3,103,ITC,loss,5,left,13,ITC_collect,604,k,0,0,672,13610,1991935
10,18,female,Belgian,3,103,ITC,loss,5,left,13,ITC_outcome,0,undefined,0,0,685,12607,1992938
10,18,female,Belgian,3,104,guess,neutral,10,left,5,guess_start,479,space,0,0,685,12127,1993418
10,18,female,Belgian,3,104,guess,neutral,10,left,5,guess_choice,1774,f,0,0,685,10351,1995194
10,18,female,Belgian,3,104,guess,neutral,10,left,5,guess_outcome,0,undefined,0,0,685,8788,1996757
10,18,female,Belgian,3,104,ITC,neutral,10,left,5,ITC_start,574,space,0,0,685,8213,1997332
10,18,female,Belgian,3,104,ITC,neutral,10,left,5,ITC_choice,1030,j,0,0,685,7181,1998364
10,18,female,Belgian,3,104,ITC,neutral,10,left,5,ITC_wait,0,undefined,0,0,685,7179,1998366
10,18,female,Belgian,3,104,ITC,neutral,10,left,5,ITC_collect,432,k,0,0,685,6746,1998799
10,18,female,Belgian,3,104,ITC,neutral,10,left,5,ITC_outcome,0,undefined,0,0,690,5737,1999808
10,18,female,Belgian,3,105,guess,loss,5,right,9,guess_start,534,space,0,0,690,5202,2000343
10,18,female,Belgian,3,105,guess,loss,5,right,9,guess_choice,671,j,0,0,690,4529,2001016
10,18,female,Belgian,3,105,guess,loss,5,right,9,guess_outcome,0,undefined,0,0,675,2958,2002587
10,18,female,Belgian,3,105,ITC,loss,5,right,9,ITC_start,505,space,0,0,675,2451,2003094
10,18,female,Belgian,3,105,ITC,loss,5,right,9,ITC_choice,1196,j,0,0,675,1254,2004291
10,18,female,Belgian,3,105,ITC,loss,5,right,9,ITC_wait,0,undefined,0,0,675,-3,2005548
10,18,female,Belgian,4,106,guess,neutral,10,right,7,guess_start,1534,space,0,0,0,478465,2228465
10,18,female,Belgian,4,106,guess,neutral,10,right,7,guess_choice,710,f,0,0,0,477750,2229180
10,18,female,Belgian,4,106,guess,neutral,10,right,7,guess_outcome,0,undefined,0,0,0,476185,2230745
10,18,female,Belgian,4,106,ITC,neutral,10,right,7,ITC_start,2847,space,0,0,0,473335,2233595
10,18,female,Belgian,4,106,ITC,neutral,10,right,7,ITC_choice,734,j,0,0,0,472599,2234331
10,18,female,Belgian,4,106,ITC,neutral,10,right,7,ITC_wait,0,undefined,0,0,0,462583,2244347
10,18,female,Belgian,4,106,ITC,neutral,10,right,7,ITC_collect,403,k,0,0,0,462177,2244753
10,18,female,Belgian,4,106,ITC,neutral,10,right,7,ITC_outcome,0,undefined,0,0,20,461161,2245769
10,18,female,Belgian,4,107,guess,win,5,left,14,guess_start,574,space,0,0,20,460581,2246349
10,18,female,Belgian,4,107,guess,win,5,left,14,guess_choice,621,j,0,0,20,459955,2246975
10,18,female,Belgian,4,107,guess,win,5,left,14,guess_outcome,0,undefined,0,0,40,458395,2248535
10,18,female,Belgian,4,107,ITC,win,5,left,14,ITC_start,800,space,0,0,40,457592,2249338
10,18,female,Belgian,4,107,ITC,win,5,left,14,ITC_choice,693,f,0,0,40,456897,2250033
10,18,female,Belgian,4,107,ITC,win,5,left,14,ITC_wait,0,undefined,0,0,40,451893,2255037
10,18,female,Belgian,4,107,ITC,win,5,left,14,ITC_collect,737,k,0,0,40,451152,2255778
10,18,female,Belgian,4,107,ITC,win,5,left,14,ITC_outcome,0,undefined,0,0,60,450133,2256797
10,18,female,Belgian,4,108,guess,loss,5,right,11,guess_start,2216,space,0,0,60,447914,2259016
10,18,female,Belgian,4,108,guess,loss,5,right,11,guess_choice,494,j,0,0,60,447415,2259515
10,18,female,Belgian,4,108,guess,loss,5,right,11,guess_outcome,0,undefined,0,0,45,445844,2261086
10,18,female,Belgian,4,108,ITC,loss,5,right,11,ITC_start,8969,space,0,0,45,436872,2270058
10,18,female,Belgian,4,108,ITC,loss,5,right,11,ITC_choice,609,j,0,0,45,436260,2270670
10,18,female,Belgian,4,108,ITC,loss,5,right,11,ITC_wait,0,undefined,0,0,45,431253,2275677
10,18,female,Belgian,4,108,ITC,loss,5,right,11,ITC_collect,502,k,0,0,45,430748,2276182
10,18,female,Belgian,4,108,ITC,loss,5,right,11,ITC_outcome,0,undefined,0,0,65,429732,2277198
10,18,female,Belgian,4,109,guess,neutral,5,left,7,guess_start,2457,space,0,0,65,427272,2279658
10,18,female,Belgian,4,109,guess,neutral,5,left,7,guess_choice,630,j,0,0,65,426635,2280295
10,18,female,Belgian,4,109,guess,neutral,5,left,7,guess_outcome,0,undefined,0,0,65,425071,2281859
10,18,female,Belgian,4,109,ITC,neutral,5,left,7,ITC_start,1148,space,0,0,65,423920,2283010
10,18,female,Belgian,4,109,ITC,neutral,5,left,7,ITC_choice,897,f,0,0,65,423021,2283909
10,18,female,Belgian,4,109,ITC,neutral,5,left,7,ITC_wait,0,undefined,0,0,65,418004,2288926
10,18,female,Belgian,4,109,ITC,neutral,5,left,7,ITC_collect,3465,k,0,0,65,414532,2292398
10,18,female,Belgian,4,109,ITC,neutral,5,left,7,ITC_outcome,0,undefined,0,0,85,413524,2293406
10,18,female,Belgian,4,110,guess,win,10,left,8,guess_start,4049,space,0,0,85,409470,2297460
10,18,female,Belgian,4,110,guess,win,10,left,8,guess_choice,782,j,0,0,85,408681,2298249
10,18,female,Belgian,4,110,guess,win,10,left,8,guess_outcome,0,undefined,0,0,105,407113,2299817
10,18,female,Belgian,4,110,ITC,win,10,left,8,ITC_start,5654,space,0,0,105,401456,2305474
10,18,female,Belgian,4,110,ITC,win,10,left,8,ITC_choice,882,f,0,0,105,400571,2306359
10,18,female,Belgian,4,110,ITC,win,10,left,8,ITC_wait,0,undefined,0,0,105,390553,2316377
10,18,female,Belgian,4,110,ITC,win,10,left,8,ITC_outcome,0,undefined,0,0,125,389156,2317774
10,18,female,Belgian,4,110,ITC,win,10,left,8,ITC_collect,387,k,0,0,105,390162,2316768
10,18,female,Belgian,4,111,guess,neutral,5,left,8,guess_outcome,0,undefined,0,0,125,386102,2320828
10,18,female,Belgian,4,111,guess,neutral,5,left,8,guess_start,579,space,0,0,125,388575,2318355
10,18,female,Belgian,4,111,guess,neutral,5,left,8,guess_choice,910,f,0,0,125,387658,2319272
10,18,female,Belgian,4,111,ITC,neutral,5,left,8,ITC_start,1664,space,0,0,125,384436,2322494
10,18,female,Belgian,4,111,ITC,neutral,5,left,8,ITC_wait,0,undefined,0,0,125,383791,2323139
10,18,female,Belgian,4,111,ITC,neutral,5,left,8,ITC_choice,637,j,0,0,125,383795,2323135
10,18,female,Belgian,4,111,ITC,neutral,5,left,8,ITC_collect,708,k,0,0,125,383080,2323850
10,18,female,Belgian,4,111,ITC,neutral,5,left,8,ITC_outcome,0,undefined,0,0,133,382064,2324866
10,18,female,Belgian,4,112,guess,neutral,5,left,3,guess_start,462,space,0,0,133,381599,2325331
10,18,female,Belgian,4,112,guess,neutral,5,left,3,guess_choice,586,f,0,0,133,381007,2325923
10,18,female,Belgian,4,112,guess,neutral,5,left,3,guess_outcome,0,undefined,0,0,133,379431,2327499
10,18,female,Belgian,4,112,ITC,neutral,5,left,3,ITC_start,442,space,0,0,133,378987,2327943
10,18,female,Belgian,4,112,ITC,neutral,5,left,3,ITC_choice,699,f,0,0,133,378285,2328645
10,18,female,Belgian,4,112,ITC,neutral,5,left,3,ITC_wait,0,undefined,0,0,133,373267,2333663
10,18,female,Belgian,4,112,ITC,neutral,5,left,3,ITC_collect,656,k,0,0,133,372608,2334322
10,18,female,Belgian,4,112,ITC,neutral,5,left,3,ITC_outcome,0,undefined,0,0,153,371602,2335328
10,18,female,Belgian,4,113,guess,neutral,5,left,10,guess_start,569,space,0,0,153,371030,2335900
10,18,female,Belgian,4,113,guess,neutral,5,left,10,guess_choice,1103,j,0,0,153,369920,2337010
10,18,female,Belgian,4,113,guess,neutral,5,left,10,guess_outcome,0,undefined,0,0,153,368358,2338572
10,18,female,Belgian,4,113,ITC,neutral,5,left,10,ITC_start,1995,space,0,0,153,366358,2340572
10,18,female,Belgian,4,113,ITC,neutral,5,left,10,ITC_choice,1050,f,0,0,153,365305,2341625
10,18,female,Belgian,4,113,ITC,neutral,5,left,10,ITC_wait,0,undefined,0,0,153,360295,2346635
10,18,female,Belgian,4,113,ITC,neutral,5,left,10,ITC_collect,957,k,0,0,153,359335,2347595
10,18,female,Belgian,4,113,ITC,neutral,5,left,10,ITC_outcome,0,undefined,0,0,173,358311,2348619
10,18,female,Belgian,4,114,guess,loss,10,right,3,guess_start,567,space,0,0,173,357745,2349185
10,18,female,Belgian,4,114,guess,loss,10,right,3,guess_choice,568,j,0,0,173,357172,2349758
10,18,female,Belgian,4,114,guess,loss,10,right,3,guess_outcome,0,undefined,0,0,158,355607,2351323
10,18,female,Belgian,4,114,ITC,loss,10,right,3,ITC_start,4741,space,0,0,158,350863,2356067
10,18,female,Belgian,4,114,ITC,loss,10,right,3,ITC_choice,713,j,0,0,158,350147,2356783
10,18,female,Belgian,4,114,ITC,loss,10,right,3,ITC_wait,0,undefined,0,0,158,340132,2366798
10,18,female,Belgian,4,114,ITC,loss,10,right,3,ITC_collect,1497,k,0,0,158,338632,2368298
10,18,female,Belgian,4,114,ITC,loss,10,right,3,ITC_outcome,0,undefined,0,0,178,337623,2369307
10,18,female,Belgian,4,115,guess,win,5,right,9,guess_start,415,space,0,0,178,337204,2369726
10,18,female,Belgian,4,115,guess,win,5,right,9,guess_choice,574,j,0,0,178,336626,2370304
10,18,female,Belgian,4,115,guess,win,5,right,9,guess_outcome,0,undefined,0,0,198,335051,2371879
10,18,female,Belgian,4,115,ITC,win,5,right,9,ITC_start,429,space,0,0,198,334619,2372311
10,18,female,Belgian,4,115,ITC,win,5,right,9,ITC_choice,624,j,0,0,198,333993,2372937
10,18,female,Belgian,4,115,ITC,win,5,right,9,ITC_wait,0,undefined,0,0,198,328981,2377949
10,18,female,Belgian,4,115,ITC,win,5,right,9,ITC_collect,419,k,0,0,198,328560,2378370
10,18,female,Belgian,4,115,ITC,win,5,right,9,ITC_outcome,0,undefined,0,0,218,327552,2379378
10,18,female,Belgian,4,116,guess,loss,5,left,4,guess_start,477,space,0,0,218,327071,2379859
10,18,female,Belgian,4,116,guess,loss,5,left,4,guess_choice,609,f,0,0,218,326457,2380473
10,18,female,Belgian,4,116,guess,loss,5,left,4,guess_outcome,0,undefined,0,0,203,324885,2382045
10,18,female,Belgian,4,116,ITC,loss,5,left,4,ITC_start,3908,space,0,0,203,320974,2385956
10,18,female,Belgian,4,116,ITC,loss,5,left,4,ITC_choice,708,f,0,0,203,320262,2386668
10,18,female,Belgian,4,116,ITC,loss,5,left,4,ITC_wait,0,undefined,0,0,203,315254,2391676
10,18,female,Belgian,4,116,ITC,loss,5,left,4,ITC_collect,1759,k,0,0,203,313492,2393438
10,18,female,Belgian,4,116,ITC,loss,5,left,4,ITC_outcome,0,undefined,0,0,223,312474,2394456
10,18,female,Belgian,4,117,guess,neutral,10,left,2,guess_start,371,space,0,0,223,312095,2394835
10,18,female,Belgian,4,117,guess,neutral,10,left,2,guess_choice,771,f,0,0,223,311319,2395611
10,18,female,Belgian,4,117,guess,neutral,10,left,2,guess_outcome,0,undefined,0,0,223,309760,2397170
10,18,female,Belgian,4,117,ITC,neutral,10,left,2,ITC_start,3086,space,0,0,223,306671,2400259
10,18,female,Belgian,4,117,ITC,neutral,10,left,2,ITC_choice,775,f,0,0,223,305894,2401036
10,18,female,Belgian,4,117,ITC,neutral,10,left,2,ITC_wait,0,undefined,0,0,223,295880,2411050
10,18,female,Belgian,4,117,ITC,neutral,10,left,2,ITC_collect,1192,k,0,0,223,294685,2412245
10,18,female,Belgian,4,117,ITC,neutral,10,left,2,ITC_outcome,0,undefined,0,0,243,293661,2413269
10,18,female,Belgian,4,118,guess,loss,5,left,1,guess_start,424,space,0,0,243,293234,2413696
10,18,female,Belgian,4,118,guess,loss,5,left,1,guess_choice,1465,j,0,0,243,291764,2415166
10,18,female,Belgian,4,118,guess,loss,5,left,1,guess_outcome,0,undefined,0,0,228,290204,2416726
10,18,female,Belgian,4,118,ITC,loss,5,left,1,ITC_start,3208,space,0,0,228,286993,2419937
10,18,female,Belgian,4,118,ITC,loss,5,left,1,ITC_choice,565,f,0,0,228,286425,2420505
10,18,female,Belgian,4,118,ITC,loss,5,left,1,ITC_wait,0,undefined,0,0,228,281420,2425510
10,18,female,Belgian,4,118,ITC,loss,5,left,1,ITC_collect,603,k,0,0,228,280816,2426114
10,18,female,Belgian,4,118,ITC,loss,5,left,1,ITC_outcome,0,undefined,0,0,248,279794,2427136
10,18,female,Belgian,4,119,guess,neutral,5,left,1,guess_start,2304,space,0,0,248,277486,2429444
10,18,female,Belgian,4,119,guess,neutral,5,left,1,guess_choice,690,f,0,0,248,276791,2430139
10,18,female,Belgian,4,119,guess,neutral,5,left,1,guess_outcome,0,undefined,0,0,248,275218,2431712
10,18,female,Belgian,4,119,ITC,neutral,5,left,1,ITC_start,1077,space,0,0,248,274138,2432792
10,18,female,Belgian,4,119,ITC,neutral,5,left,1,ITC_choice,587,f,0,0,248,273549,2433381
10,18,female,Belgian,4,119,ITC,neutral,5,left,1,ITC_wait,0,undefined,0,0,248,268530,2438400
10,18,female,Belgian,4,119,ITC,neutral,5,left,1,ITC_collect,351,k,0,0,248,268177,2438753
10,18,female,Belgian,4,119,ITC,neutral,5,left,1,ITC_outcome,0,undefined,0,0,268,267165,2439765
10,18,female,Belgian,4,120,guess,loss,5,right,10,guess_start,524,space,0,0,268,266638,2440292
10,18,female,Belgian,4,120,guess,loss,5,right,10,guess_choice,624,j,0,0,268,266009,2440921
10,18,female,Belgian,4,120,guess,loss,5,right,10,guess_outcome,0,undefined,0,0,253,264445,2442485
10,18,female,Belgian,4,120,ITC,loss,5,right,10,ITC_start,466,space,0,0,253,263976,2442954
10,18,female,Belgian,4,120,ITC,loss,5,right,10,ITC_choice,599,j,0,0,253,263374,2443556
10,18,female,Belgian,4,120,ITC,loss,5,right,10,ITC_wait,0,undefined,0,0,253,258371,2448559
10,18,female,Belgian,4,120,ITC,loss,5,right,10,ITC_collect,616,k,0,0,253,257752,2449178
10,18,female,Belgian,4,120,ITC,loss,5,right,10,ITC_outcome,0,undefined,0,0,273,256733,2450197
10,18,female,Belgian,4,121,guess,neutral,5,left,4,guess_start,1362,space,0,0,273,255367,2451563
10,18,female,Belgian,4,121,guess,neutral,5,left,4,guess_choice,757,f,0,0,273,254606,2452324
10,18,female,Belgian,4,121,guess,neutral,5,left,4,guess_outcome,0,undefined,0,0,273,253042,2453888
10,18,female,Belgian,4,121,ITC,neutral,5,left,4,ITC_start,1396,space,0,0,273,251643,2455287
10,18,female,Belgian,4,121,ITC,neutral,5,left,4,ITC_choice,618,f,0,0,273,251023,2455907
10,18,female,Belgian,4,121,ITC,neutral,5,left,4,ITC_wait,0,undefined,0,0,273,246002,2460928
10,18,female,Belgian,4,121,ITC,neutral,5,left,4,ITC_collect,806,k,0,0,273,245192,2461738
10,18,female,Belgian,4,121,ITC,neutral,5,left,4,ITC_outcome,0,undefined,0,0,293,244180,2462750
10,18,female,Belgian,4,122,guess,neutral,5,left,12,guess_start,798,space,0,0,293,243378,2463552
10,18,female,Belgian,4,122,guess,neutral,5,left,12,guess_choice,1138,j,0,0,293,242235,2464695
10,18,female,Belgian,4,122,guess,neutral,5,left,12,guess_outcome,0,undefined,0,0,293,240658,2466272
10,18,female,Belgian,4,122,ITC,neutral,5,left,12,ITC_start,722,space,0,0,293,239933,2466997
10,18,female,Belgian,4,122,ITC,neutral,5,left,12,ITC_outcome,0,undefined,0,0,305,237271,2469659
10,18,female,Belgian,4,122,ITC,neutral,5,left,12,ITC_collect,660,k,0,0,293,238279,2468651
10,18,female,Belgian,4,122,ITC,neutral,5,left,12,ITC_wait,0,undefined,0,0,293,238942,2467988
10,18,female,Belgian,4,122,ITC,neutral,5,left,12,ITC_choice,985,j,0,0,293,238945,2467985
10,18,female,Belgian,4,123,guess,win,10,right,2,guess_start,538,space,0,0,305,236731,2470199
10,18,female,Belgian,4,123,guess,win,10,right,2,guess_choice,643,j,0,0,305,236084,2470846
10,18,female,Belgian,4,123,guess,win,10,right,2,guess_outcome,0,undefined,0,0,325,234524,2472406
10,18,female,Belgian,4,123,ITC,win,10,right,2,ITC_start,497,space,0,0,325,234023,2472907
10,18,female,Belgian,4,123,ITC,win,10,right,2,ITC_choice,883,j,0,0,325,233138,2473792
10,18,female,Belgian,4,123,ITC,win,10,right,2,ITC_wait,0,undefined,0,0,325,223127,2483803
10,18,female,Belgian,4,123,ITC,win,10,right,2,ITC_collect,3776,k,0,0,325,219346,2487584
10,18,female,Belgian,4,123,ITC,win,10,right,2,ITC_outcome,0,undefined,0,0,345,218340,2488590
10,18,female,Belgian,4,124,guess,loss,5,right,15,guess_start,0,space,0,0,345,218336,2488594
10,18,female,Belgian,4,124,guess,loss,5,right,15,guess_choice,830,j,0,0,345,217499,2489431
10,18,female,Belgian,4,124,guess,loss,5,right,15,guess_outcome,0,undefined,0,0,330,215943,2490987
10,18,female,Belgian,4,124,ITC,loss,5,right,15,ITC_start,336,space,0,0,330,215605,2491325
10,18,female,Belgian,4,124,ITC,loss,5,right,15,ITC_choice,699,j,0,0,330,214902,2492028
10,18,female,Belgian,4,124,ITC,loss,5,right,15,ITC_wait,0,undefined,0,0,330,209883,2497047
10,18,female,Belgian,4,124,ITC,loss,5,right,15,ITC_collect,452,k,0,0,330,209423,2497507
10,18,female,Belgian,4,124,ITC,loss,5,right,15,ITC_outcome,0,undefined,0,0,350,208402,2498528
10,18,female,Belgian,4,125,guess,neutral,10,left,4,guess_start,556,space,0,0,350,207843,2499087
10,18,female,Belgian,4,125,guess,neutral,10,left,4,guess_choice,629,f,0,0,350,207209,2499721
10,18,female,Belgian,4,125,guess,neutral,10,left,4,guess_outcome,0,undefined,0,0,350,205650,2501280
10,18,female,Belgian,4,125,ITC,neutral,10,left,4,ITC_start,546,space,0,0,350,205102,2501828
10,18,female,Belgian,4,125,ITC,neutral,10,left,4,ITC_choice,614,f,0,0,350,204485,2502445
10,18,female,Belgian,4,125,ITC,neutral,10,left,4,ITC_wait,0,undefined,0,0,350,194470,2512460
10,18,female,Belgian,4,125,ITC,neutral,10,left,4,ITC_collect,403,k,0,0,350,194063,2512867
10,18,female,Belgian,4,125,ITC,neutral,10,left,4,ITC_outcome,0,undefined,0,0,370,193051,2513879
10,18,female,Belgian,4,126,guess,win,10,left,4,guess_start,896,space,0,0,370,192152,2514778
10,18,female,Belgian,4,126,guess,win,10,left,4,guess_choice,575,j,0,0,370,191571,2515359
10,18,female,Belgian,4,126,guess,win,10,left,4,guess_outcome,0,undefined,0,0,390,190005,2516925
10,18,female,Belgian,4,126,ITC,win,10,left,4,ITC_start,527,space,0,0,390,189476,2517454
10,18,female,Belgian,4,126,ITC,win,10,left,4,ITC_choice,597,f,0,0,390,188876,2518054
10,18,female,Belgian,4,126,ITC,win,10,left,4,ITC_wait,0,undefined,0,0,390,178855,2528075
10,18,female,Belgian,4,126,ITC,win,10,left,4,ITC_collect,363,k,0,0,390,178490,2528440
10,18,female,Belgian,4,126,ITC,win,10,left,4,ITC_outcome,0,undefined,0,0,410,177479,2529451
10,18,female,Belgian,4,127,guess,win,5,right,6,guess_start,18490,space,0,0,410,158984,2547946
10,18,female,Belgian,4,127,guess,win,5,right,6,guess_choice,719,j,0,0,410,158259,2548671
10,18,female,Belgian,4,127,guess,win,5,right,6,guess_outcome,0,undefined,0,0,430,156692,2550238
10,18,female,Belgian,4,127,ITC,win,5,right,6,ITC_start,4334,space,0,0,430,152350,2554580
10,18,female,Belgian,4,127,ITC,win,5,right,6,ITC_choice,728,j,0,0,430,151619,2555311
10,18,female,Belgian,4,127,ITC,win,5,right,6,ITC_wait,0,undefined,0,0,430,146605,2560325
10,18,female,Belgian,4,127,ITC,win,5,right,6,ITC_collect,3107,k,0,0,430,143495,2563435
10,18,female,Belgian,4,127,ITC,win,5,right,6,ITC_outcome,0,undefined,0,0,450,142478,2564452
10,18,female,Belgian,4,128,guess,win,5,left,1,guess_start,2096,space,0,0,450,140379,2566551
10,18,female,Belgian,4,128,guess,win,5,left,1,guess_choice,581,j,0,0,450,139794,2567136
10,18,female,Belgian,4,128,guess,win,5,left,1,guess_outcome,0,undefined,0,0,470,138235,2568695
10,18,female,Belgian,4,128,ITC,win,5,left,1,ITC_start,940,space,0,0,470,137291,2569639
10,18,female,Belgian,4,128,ITC,win,5,left,1,ITC_choice,627,f,0,0,470,136660,2570270
10,18,female,Belgian,4,128,ITC,win,5,left,1,ITC_wait,0,undefined,0,0,470,131648,2575282
10,18,female,Belgian,4,128,ITC,win,5,left,1,ITC_collect,605,k,0,0,470,131041,2575889
10,18,female,Belgian,4,128,ITC,win,5,left,1,ITC_outcome,0,undefined,0,0,490,130033,2576897
10,18,female,Belgian,4,129,guess,neutral,5,left,14,guess_start,670,space,0,0,490,129359,2577571
10,18,female,Belgian,4,129,guess,neutral,5,left,14,guess_choice,776,f,0,0,490,128579,2578351
10,18,female,Belgian,4,129,guess,neutral,5,left,14,guess_outcome,0,undefined,0,0,490,127004,2579926
10,18,female,Belgian,4,129,ITC,neutral,5,left,14,ITC_start,1093,space,0,0,490,125908,2581022
10,18,female,Belgian,4,129,ITC,neutral,5,left,14,ITC_choice,605,j,0,0,490,125301,2581629
10,18,female,Belgian,4,129,ITC,neutral,5,left,14,ITC_wait,0,undefined,0,0,490,125296,2581634
10,18,female,Belgian,4,129,ITC,neutral,5,left,14,ITC_collect,536,k,0,0,490,124757,2582173
10,18,female,Belgian,4,129,ITC,neutral,5,left,14,ITC_outcome,0,undefined,0,0,504,123747,2583183
10,18,female,Belgian,4,130,guess,loss,10,left,2,guess_start,474,space,0,0,504,123270,2583660
10,18,female,Belgian,4,130,guess,loss,10,left,2,guess_choice,509,j,0,0,504,122758,2584172
10,18,female,Belgian,4,130,guess,loss,10,left,2,guess_outcome,0,undefined,0,0,489,121190,2585740
10,18,female,Belgian,4,130,ITC,loss,10,left,2,ITC_start,447,space,0,0,489,120740,2586190
10,18,female,Belgian,4,130,ITC,loss,10,left,2,ITC_choice,521,f,0,0,489,120216,2586714
10,18,female,Belgian,4,130,ITC,loss,10,left,2,ITC_wait,0,undefined,0,0,489,110203,2596727
10,18,female,Belgian,4,130,ITC,loss,10,left,2,ITC_collect,2792,k,0,0,489,107408,2599522
10,18,female,Belgian,4,130,ITC,loss,10,left,2,ITC_outcome,0,undefined,0,0,509,106379,2600551
10,18,female,Belgian,4,131,guess,win,10,left,7,guess_start,5026,space,0,0,509,101345,2605585
10,18,female,Belgian,4,131,guess,win,10,left,7,guess_choice,546,j,0,0,509,100795,2606135
10,18,female,Belgian,4,131,guess,win,10,left,7,guess_outcome,0,undefined,0,0,529,99237,2607693
10,18,female,Belgian,4,131,ITC,win,10,left,7,ITC_start,2523,space,0,0,529,96711,2610219
10,18,female,Belgian,4,131,ITC,win,10,left,7,ITC_choice,765,f,0,0,529,95942,2610988
10,18,female,Belgian,4,131,ITC,win,10,left,7,ITC_wait,0,undefined,0,0,529,85929,2621001
10,18,female,Belgian,4,131,ITC,win,10,left,7,ITC_collect,1752,k,0,0,529,84173,2622757
10,18,female,Belgian,4,131,ITC,win,10,left,7,ITC_outcome,0,undefined,0,0,549,83161,2623769
10,18,female,Belgian,4,132,guess,win,5,left,2,guess_start,438,space,0,0,549,82721,2624209
10,18,female,Belgian,4,132,guess,win,5,left,2,guess_choice,493,j,0,0,549,82224,2624706
10,18,female,Belgian,4,132,guess,win,5,left,2,guess_outcome,0,undefined,0,0,569,80665,2626265
10,18,female,Belgian,4,132,ITC,win,5,left,2,ITC_start,1396,space,0,0,569,79267,2627663
10,18,female,Belgian,4,132,ITC,win,5,left,2,ITC_choice,1210,f,0,0,569,78055,2628875
10,18,female,Belgian,4,132,ITC,win,5,left,2,ITC_wait,0,undefined,0,0,569,73038,2633892
10,18,female,Belgian,4,132,ITC,win,5,left,2,ITC_collect,1256,k,0,0,569,71780,2635150
10,18,female,Belgian,4,132,ITC,win,5,left,2,ITC_outcome,0,undefined,0,0,589,70762,2636168
10,18,female,Belgian,4,133,guess,win,5,right,16,guess_start,3951,space,0,0,589,66806,2640124
10,18,female,Belgian,4,133,guess,win,5,right,16,guess_choice,507,j,0,0,589,66294,2640636
10,18,female,Belgian,4,133,guess,win,5,right,16,guess_outcome,0,undefined,0,0,609,64729,2642201
10,18,female,Belgian,4,133,ITC,win,5,right,16,ITC_start,10382,space,0,0,609,54344,2652586
10,18,female,Belgian,4,133,ITC,win,5,right,16,ITC_choice,644,j,0,0,609,53697,2653233
10,18,female,Belgian,4,133,ITC,win,5,right,16,ITC_wait,0,undefined,0,0,609,48694,2658236
10,18,female,Belgian,4,133,ITC,win,5,right,16,ITC_collect,8545,k,0,0,609,40146,2666784
10,18,female,Belgian,4,133,ITC,win,5,right,16,ITC_outcome,0,undefined,0,0,629,39136,2667794
10,18,female,Belgian,4,134,guess,neutral,5,left,9,guess_start,1962,space,0,0,629,37168,2669762
10,18,female,Belgian,4,134,guess,neutral,5,left,9,guess_choice,781,f,0,0,629,36382,2670548
10,18,female,Belgian,4,134,guess,neutral,5,left,9,guess_outcome,0,undefined,0,0,629,34823,2672107
10,18,female,Belgian,4,134,ITC,neutral,5,left,9,ITC_start,405,space,0,0,629,34415,2672515
10,18,female,Belgian,4,134,ITC,neutral,5,left,9,ITC_choice,811,f,0,0,629,33602,2673328
10,18,female,Belgian,4,134,ITC,neutral,5,left,9,ITC_wait,0,undefined,0,0,629,28583,2678347
10,18,female,Belgian,4,134,ITC,neutral,5,left,9,ITC_collect,347,k,0,0,629,28233,2678697
10,18,female,Belgian,4,134,ITC,neutral,5,left,9,ITC_outcome,0,undefined,0,0,649,27223,2679707
10,18,female,Belgian,4,135,guess,neutral,5,left,15,guess_start,1782,space,0,0,649,25436,2681494
10,18,female,Belgian,4,135,guess,neutral,5,left,15,guess_choice,692,f,0,0,649,24737,2682193
10,18,female,Belgian,4,135,guess,neutral,5,left,15,guess_outcome,0,undefined,0,0,649,23174,2683756
10,18,female,Belgian,4,135,ITC,neutral,5,left,15,ITC_start,1348,space,0,0,649,21823,2685107
10,18,female,Belgian,4,135,ITC,neutral,5,left,15,ITC_choice,889,j,0,0,649,20930,2686000
10,18,female,Belgian,4,135,ITC,neutral,5,left,15,ITC_wait,0,undefined,0,0,649,20926,2686004
10,18,female,Belgian,4,135,ITC,neutral,5,left,15,ITC_collect,572,k,0,0,649,20350,2686580
10,18,female,Belgian,4,135,ITC,neutral,5,left,15,ITC_outcome,0,undefined,0,0,664,19333,2687597
10,18,female,Belgian,4,136,guess,loss,10,right,7,guess_start,363,space,0,0,664,18965,2687965
10,18,female,Belgian,4,136,guess,loss,10,right,7,guess_choice,554,j,0,0,664,18406,2688524
10,18,female,Belgian,4,136,guess,loss,10,right,7,guess_outcome,0,undefined,0,0,649,16839,2690091
10,18,female,Belgian,4,136,ITC,loss,10,right,7,ITC_start,807,space,0,0,649,16029,2690901
10,18,female,Belgian,4,136,ITC,loss,10,right,7,ITC_choice,746,j,0,0,649,15281,2691649
10,18,female,Belgian,4,136,ITC,loss,10,right,7,ITC_wait,0,undefined,0,0,649,5272,2701658
10,18,female,Belgian,4,136,ITC,loss,10,right,7,ITC_collect,0,undefined,0,0,649,-15,2706945
10,18,female,Belgian,5,137,guess,loss,5,right,12,guess_start,2236,space,0,0,0,477762,2733023
10,18,female,Belgian,5,137,guess,loss,5,right,12,guess_choice,595,j,0,0,0,477163,2733622
10,18,female,Belgian,5,137,guess,loss,5,right,12,guess_outcome,0,undefined,0,0,-15,475607,2735178
10,18,female,Belgian,5,137,ITC,loss,5,right,12,ITC_start,666,space,0,0,-15,474939,2735846
10,18,female,Belgian,5,137,ITC,loss,5,right,12,ITC_choice,641,j,0,0,-15,474289,2736496
10,18,female,Belgian,5,137,ITC,loss,5,right,12,ITC_wait,0,undefined,0,0,-15,469271,2741514
10,18,female,Belgian,5,137,ITC,loss,5,right,12,ITC_collect,783,k,0,0,-15,468485,2742300
10,18,female,Belgian,5,137,ITC,loss,5,right,12,ITC_outcome,0,undefined,0,0,5,467468,2743317
10,18,female,Belgian,5,138,guess,win,5,left,3,guess_start,4653,space,0,0,5,462812,2747973
10,18,female,Belgian,5,138,guess,win,5,left,3,guess_choice,754,f,0,0,5,462052,2748733
10,18,female,Belgian,5,138,guess,win,5,left,3,guess_outcome,0,undefined,0,0,25,460482,2750303
10,18,female,Belgian,5,138,ITC,win,5,left,3,ITC_start,444,space,0,0,25,460035,2750750
10,18,female,Belgian,5,138,ITC,win,5,left,3,ITC_choice,757,f,0,0,25,459274,2751511
10,18,female,Belgian,5,138,ITC,win,5,left,3,ITC_wait,0,undefined,0,0,25,454258,2756527
10,18,female,Belgian,5,138,ITC,win,5,left,3,ITC_collect,1156,k,0,0,25,453099,2757686
10,18,female,Belgian,5,138,ITC,win,5,left,3,ITC_outcome,0,undefined,0,0,45,452082,2758703
10,18,female,Belgian,5,139,guess,win,5,left,10,guess_start,647,space,0,0,45,451432,2759353
10,18,female,Belgian,5,139,guess,win,5,left,10,guess_choice,574,j,0,0,45,450853,2759932
10,18,female,Belgian,5,139,guess,win,5,left,10,guess_outcome,0,undefined,0,0,65,449282,2761503
10,18,female,Belgian,5,139,ITC,win,5,left,10,ITC_start,810,space,0,0,65,448469,2762316
10,18,female,Belgian,5,139,ITC,win,5,left,10,ITC_choice,604,f,0,0,65,447862,2762923
10,18,female,Belgian,5,139,ITC,win,5,left,10,ITC_wait,0,undefined,0,0,65,442852,2767933
10,18,female,Belgian,5,139,ITC,win,5,left,10,ITC_collect,518,k,0,0,65,442330,2768455
10,18,female,Belgian,5,139,ITC,win,5,left,10,ITC_outcome,0,undefined,0,0,85,441314,2769471
10,18,female,Belgian,5,140,guess,neutral,10,left,3,guess_start,2847,space,0,0,85,438464,2772321
10,18,female,Belgian,5,140,guess,neutral,10,left,3,guess_choice,970,f,0,0,85,437489,2773296
