subjectID,age,gender,nationality,block_number,trial_number,trial_type,guess_outcome,delay_time,delay_pos,immediate_amount,stage,respRT,respKey,blur_count,focus_count,total_points,remaining_duration,time_elapsed
14,18,female,Belg,1,1,guess,neutral,5,left,8,guess_start,1973,space,0,0,0,478024,111008
14,18,female,Belg,1,1,guess,neutral,5,left,8,guess_choice,1382,j,0,0,0,476635,112397
14,18,female,Belg,1,1,guess,neutral,5,left,8,guess_outcome,0,undefined,0,0,0,475075,113957
14,18,female,Belg,1,1,ITC,neutral,5,left,8,ITC_start,1644,space,0,0,0,473427,115605
14,18,female,Belg,1,1,ITC,neutral,5,left,8,ITC_choice,7414,f,0,0,0,466010,123022
14,18,female,Belg,1,1,ITC,neutral,5,left,8,ITC_wait,0,undefined,0,0,0,461006,128026
14,18,female,Belg,1,1,ITC,neutral,5,left,8,ITC_collect,1291,k,0,0,0,459711,129321
14,18,female,Belg,1,1,ITC,neutral,5,left,8,ITC_outcome,0,undefined,0,0,20,458706,130326
14,18,female,Belg,1,2,guess,loss,10,right,6,guess_start,2050,space,0,0,20,456650,132382
14,18,female,Belg,1,2,guess,loss,10,right,6,guess_choice,1537,f,0,0,20,455109,133923
14,18,female,Belg,1,2,guess,loss,10,right,6,guess_outcome,0,undefined,0,0,5,453549,135483
14,18,female,Belg,1,2,ITC,loss,10,right,6,ITC_start,1162,space,0,0,5,452385,136647
14,18,female,Belg,1,2,ITC,loss,10,right,6,ITC_choice,2149,f,0,0,5,450233,138799
14,18,female,Belg,1,2,ITC,loss,10,right,6,ITC_wait,0,undefined,0,0,5,450229,138803
14,18,female,Belg,1,2,ITC,loss,10,right,6,ITC_collect,1788,k,0,0,5,448439,140593
14,18,female,Belg,1,2,ITC,loss,10,right,6,ITC_outcome,0,undefined,0,0,11,447434,141598
14,18,female,Belg,1,3,guess,win,10,right,7,guess_start,1440,space,0,0,11,445992,143040
14,18,female,Belg,1,3,guess,win,10,right,7,guess_choice,3064,j,0,0,11,442923,146109
14,18,female,Belg,1,3,guess,win,10,right,7,guess_outcome,0,undefined,0,0,31,441363,147669
14,18,female,Belg,1,3,ITC,win,10,right,7,ITC_start,688,space,0,0,31,440673,148359
14,18,female,Belg,1,3,ITC,win,10,right,7,ITC_choice,2281,f,0,0,31,438389,150643
14,18,female,Belg,1,3,ITC,win,10,right,7,ITC_wait,0,undefined,0,0,31,438385,150647
14,18,female,Belg,1,3,ITC,win,10,right,7,ITC_collect,1062,k,0,0,31,437321,151711
14,18,female,Belg,1,3,ITC,win,10,right,7,ITC_outcome,0,undefined,0,0,38,436317,152715
14,18,female,Belg,1,4,guess,loss,5,left,9,guess_start,24,space,0,0,38,436291,152741
14,18,female,Belg,1,4,guess,loss,5,left,9,guess_choice,1221,f,0,0,38,435066,153966
14,18,female,Belg,1,4,guess,loss,5,left,9,guess_outcome,0,undefined,0,0,23,433506,155526
14,18,female,Belg,1,4,ITC,loss,5,left,9,ITC_start,299,space,0,0,23,433204,155828
14,18,female,Belg,1,4,ITC,loss,5,left,9,ITC_choice,1770,j,0,0,23,431432,157600
14,18,female,Belg,1,4,ITC,loss,5,left,9,ITC_wait,0,undefined,0,0,23,431428,157604
14,18,female,Belg,1,4,ITC,loss,5,left,9,ITC_collect,554,k,0,0,23,430872,158160
14,18,female,Belg,1,4,ITC,loss,5,left,9,ITC_outcome,0,undefined,0,0,32,429864,159168
14,18,female,Belg,1,5,guess,win,5,right,14,guess_start,837,space,0,0,32,429023,160009
14,18,female,Belg,1,5,guess,win,5,right,14,guess_choice,1029,j,0,0,32,427989,161043
14,18,female,Belg,1,5,guess,win,5,right,14,guess_outcome,0,undefined,0,0,52,426431,162601
14,18,female,Belg,1,5,ITC,win,5,right,14,ITC_start,787,space,0,0,52,425641,163391
14,18,female,Belg,1,5,ITC,win,5,right,14,ITC_choice,472,f,0,0,52,425166,163866
14,18,female,Belg,1,5,ITC,win,5,right,14,ITC_wait,0,undefined,0,0,52,425162,163870
14,18,female,Belg,1,5,ITC,win,5,right,14,ITC_collect,1922,k,0,0,52,423238,165794
14,18,female,Belg,1,5,ITC,win,5,right,14,ITC_outcome,0,undefined,0,0,66,422234,166798
14,18,female,Belg,1,6,guess,neutral,10,right,4,guess_start,535,space,0,0,66,421696,167336
14,18,female,Belg,1,6,guess,neutral,10,right,4,guess_choice,2163,f,0,0,66,419528,169504
14,18,female,Belg,1,6,guess,neutral,10,right,4,guess_outcome,0,undefined,0,0,66,417973,171059
14,18,female,Belg,1,6,ITC,neutral,10,right,4,ITC_start,658,space,0,0,66,417313,171719
14,18,female,Belg,1,6,ITC,neutral,10,right,4,ITC_choice,1288,j,0,0,66,416023,173009
14,18,female,Belg,1,6,ITC,neutral,10,right,4,ITC_wait,0,undefined,0,0,66,406016,183016
14,18,female,Belg,1,6,ITC,neutral,10,right,4,ITC_collect,5078,k,0,0,66,400935,188097
14,18,female,Belg,1,6,ITC,neutral,10,right,4,ITC_outcome,0,undefined,0,0,86,399927,189105
14,18,female,Belg,1,7,guess,loss,10,right,1,guess_start,1109,space,0,0,86,398815,190217
14,18,female,Belg,1,7,guess,loss,10,right,1,guess_choice,1196,j,0,0,86,397615,191417
14,18,female,Belg,1,7,guess,loss,10,right,1,guess_outcome,0,undefined,0,0,71,396059,192973
14,18,female,Belg,1,7,ITC,loss,10,right,1,ITC_start,269,space,0,0,71,395787,193245
14,18,female,Belg,1,7,ITC,loss,10,right,1,ITC_choice,2405,j,0,0,71,393380,195652
14,18,female,Belg,1,7,ITC,loss,10,right,1,ITC_wait,0,undefined,0,0,71,383375,205657
14,18,female,Belg,1,7,ITC,loss,10,right,1,ITC_collect,3823,k,0,0,71,379550,209482
14,18,female,Belg,1,7,ITC,loss,10,right,1,ITC_outcome,0,undefined,0,0,91,378546,210486
14,18,female,Belg,1,8,guess,neutral,5,left,14,guess_start,17,space,0,0,91,378526,210506
14,18,female,Belg,1,8,guess,neutral,5,left,14,guess_choice,1417,f,0,0,91,377106,211926
14,18,female,Belg,1,8,guess,neutral,5,left,14,guess_outcome,0,undefined,0,0,91,375547,213485
14,18,female,Belg,1,8,ITC,neutral,5,left,14,ITC_start,791,space,0,0,91,374754,214278
14,18,female,Belg,1,8,ITC,neutral,5,left,14,ITC_choice,1242,f,0,0,91,373509,215523
14,18,female,Belg,1,8,ITC,neutral,5,left,14,ITC_wait,0,undefined,0,0,91,368504,220528
14,18,female,Belg,1,8,ITC,neutral,5,left,14,ITC_collect,2422,k,0,0,91,366079,222953
14,18,female,Belg,1,8,ITC,neutral,5,left,14,ITC_outcome,0,undefined,0,0,111,365074,223958
14,18,female,Belg,1,9,guess,loss,5,right,12,guess_start,1092,space,0,0,111,363979,225053
14,18,female,Belg,1,9,guess,loss,5,right,12,guess_choice,945,j,0,0,111,363030,226002
14,18,female,Belg,1,9,guess,loss,5,right,12,guess_outcome,0,undefined,0,0,96,361476,227556
14,18,female,Belg,1,9,ITC,loss,5,right,12,ITC_start,456,space,0,0,96,361017,228015
14,18,female,Belg,1,9,ITC,loss,5,right,12,ITC_choice,2235,f,0,0,96,358780,230252
14,18,female,Belg,1,9,ITC,loss,5,right,12,ITC_wait,0,undefined,0,0,96,358776,230256
14,18,female,Belg,1,9,ITC,loss,5,right,12,ITC_collect,744,k,0,0,96,358031,231001
14,18,female,Belg,1,9,ITC,loss,5,right,12,ITC_outcome,0,undefined,0,0,108,357025,232007
14,18,female,Belg,1,10,guess,loss,10,left,7,guess_start,521,space,0,0,108,356500,232532
14,18,female,Belg,1,10,guess,loss,10,left,7,guess_choice,1135,f,0,0,108,355361,233671
14,18,female,Belg,1,10,guess,loss,10,left,7,guess_outcome,0,undefined,0,0,93,353805,235227
14,18,female,Belg,1,10,ITC,loss,10,left,7,ITC_start,670,space,0,0,93,353132,235900
14,18,female,Belg,1,10,ITC,loss,10,left,7,ITC_choice,592,f,0,0,93,352538,236494
14,18,female,Belg,1,10,ITC,loss,10,left,7,ITC_wait,0,undefined,0,0,93,342530,246502
14,18,female,Belg,1,10,ITC,loss,10,left,7,ITC_collect,4169,k,0,0,93,338358,250674
14,18,female,Belg,1,10,ITC,loss,10,left,7,ITC_outcome,0,undefined,0,0,113,337351,251681
14,18,female,Belg,1,11,guess,neutral,5,left,9,guess_start,489,space,0,0,113,336859,252173
14,18,female,Belg,1,11,guess,neutral,5,left,9,guess_choice,869,j,0,0,113,335986,253046
14,18,female,Belg,1,11,guess,neutral,5,left,9,guess_outcome,0,undefined,0,0,113,334427,254605
14,18,female,Belg,1,11,ITC,neutral,5,left,9,ITC_start,424,space,0,0,113,334000,255032
14,18,female,Belg,1,11,ITC,neutral,5,left,9,ITC_choice,966,j,0,0,113,333031,256001
14,18,female,Belg,1,11,ITC,neutral,5,left,9,ITC_wait,0,undefined,0,0,113,333028,256004
14,18,female,Belg,1,11,ITC,neutral,5,left,9,ITC_collect,603,k,0,0,113,332423,256609
14,18,female,Belg,1,11,ITC,neutral,5,left,9,ITC_outcome,0,undefined,0,0,122,331415,257617
14,18,female,Belg,1,12,guess,win,5,left,9,guess_start,454,space,0,0,122,330959,258073
14,18,female,Belg,1,12,guess,win,5,left,9,guess_choice,1116,j,0,0,122,329838,259194
14,18,female,Belg,1,12,guess,win,5,left,9,guess_outcome,0,undefined,0,0,142,328283,260749
14,18,female,Belg,1,12,ITC,win,5,left,9,ITC_start,26,space,0,0,142,328255,260777
14,18,female,Belg,1,12,ITC,win,5,left,9,ITC_choice,681,j,0,0,142,327572,261460
14,18,female,Belg,1,12,ITC,win,5,left,9,ITC_wait,0,undefined,0,0,142,327569,261463
14,18,female,Belg,1,12,ITC,win,5,left,9,ITC_collect,497,k,0,0,142,327070,261962
14,18,female,Belg,1,12,ITC,win,5,left,9,ITC_outcome,0,undefined,0,0,151,326066,262966
14,18,female,Belg,1,13,guess,win,10,left,4,guess_start,434,space,0,0,151,325629,263403
14,18,female,Belg,1,13,guess,win,10,left,4,guess_choice,784,j,0,0,151,324841,264191
14,18,female,Belg,1,13,guess,win,10,left,4,guess_outcome,0,undefined,0,0,171,323282,265750
14,18,female,Belg,1,13,ITC,win,10,left,4,ITC_start,1197,space,0,0,171,322082,266950
14,18,female,Belg,1,13,ITC,win,10,left,4,ITC_choice,1038,j,0,0,171,321042,267990
14,18,female,Belg,1,13,ITC,win,10,left,4,ITC_wait,0,undefined,0,0,171,321036,267996
14,18,female,Belg,1,13,ITC,win,10,left,4,ITC_collect,300,k,0,0,171,320735,268297
14,18,female,Belg,1,13,ITC,win,10,left,4,ITC_outcome,0,undefined,0,0,175,319727,269305
14,18,female,Belg,1,14,guess,loss,5,right,7,guess_start,702,space,0,0,175,319022,270010
14,18,female,Belg,1,14,guess,loss,5,right,7,guess_choice,441,j,0,0,175,318578,270454
14,18,female,Belg,1,14,guess,loss,5,right,7,guess_outcome,0,undefined,0,0,160,317019,272013
14,18,female,Belg,1,14,ITC,loss,5,right,7,ITC_start,386,space,0,0,160,316631,272401
14,18,female,Belg,1,14,ITC,loss,5,right,7,ITC_choice,1518,f,0,0,160,315110,273922
14,18,female,Belg,1,14,ITC,loss,5,right,7,ITC_wait,0,undefined,0,0,160,315106,273926
14,18,female,Belg,1,14,ITC,loss,5,right,7,ITC_collect,528,k,0,0,160,314576,274456
14,18,female,Belg,1,14,ITC,loss,5,right,7,ITC_outcome,0,undefined,0,0,167,313571,275461
14,18,female,Belg,1,15,guess,loss,10,right,3,guess_start,33,space,0,0,167,313535,275497
14,18,female,Belg,1,15,guess,loss,10,right,3,guess_choice,857,f,0,0,167,312675,276357
14,18,female,Belg,1,15,guess,loss,10,right,3,guess_outcome,0,undefined,0,0,152,311115,277917
14,18,female,Belg,1,15,ITC,loss,10,right,3,ITC_start,556,space,0,0,152,310557,278475
14,18,female,Belg,1,15,ITC,loss,10,right,3,ITC_choice,1185,f,0,0,152,309370,279662
14,18,female,Belg,1,15,ITC,loss,10,right,3,ITC_wait,0,undefined,0,0,152,309366,279666
14,18,female,Belg,1,15,ITC,loss,10,right,3,ITC_collect,445,k,0,0,152,308920,280112
14,18,female,Belg,1,15,ITC,loss,10,right,3,ITC_outcome,0,undefined,0,0,155,307912,281120
14,18,female,Belg,1,16,guess,win,5,left,13,guess_start,528,space,0,0,155,307381,281651
14,18,female,Belg,1,16,guess,win,5,left,13,guess_choice,278,f,0,0,155,307099,281933
14,18,female,Belg,1,16,guess,win,5,left,13,guess_outcome,0,undefined,0,0,175,305544,283488
14,18,female,Belg,1,16,ITC,win,5,left,13,ITC_start,660,space,0,0,175,304882,284150
14,18,female,Belg,1,16,ITC,win,5,left,13,ITC_choice,1186,j,0,0,175,303693,285339
14,18,female,Belg,1,16,ITC,win,5,left,13,ITC_wait,0,undefined,0,0,175,303689,285343
14,18,female,Belg,1,16,ITC,win,5,left,13,ITC_collect,225,k,0,0,175,303463,285569
14,18,female,Belg,1,16,ITC,win,5,left,13,ITC_outcome,0,undefined,0,0,188,302458,286574
14,18,female,Belg,1,17,guess,win,5,right,3,guess_start,524,space,0,0,188,301932,287100
14,18,female,Belg,1,17,guess,win,5,right,3,guess_choice,684,j,0,0,188,301244,287788
14,18,female,Belg,1,17,guess,win,5,right,3,guess_outcome,0,undefined,0,0,208,299685,289347
14,18,female,Belg,1,17,ITC,win,5,right,3,ITC_start,495,space,0,0,208,299187,289845
14,18,female,Belg,1,17,ITC,win,5,right,3,ITC_choice,666,j,0,0,208,298519,290513
14,18,female,Belg,1,17,ITC,win,5,right,3,ITC_wait,0,undefined,0,0,208,293513,295519
14,18,female,Belg,1,17,ITC,win,5,right,3,ITC_collect,3454,k,0,0,208,290056,298976
14,18,female,Belg,1,17,ITC,win,5,right,3,ITC_outcome,0,undefined,0,0,228,289048,299984
14,18,female,Belg,1,18,guess,loss,5,left,10,guess_start,582,space,0,0,228,288463,300569
14,18,female,Belg,1,18,guess,loss,5,left,10,guess_choice,1073,f,0,0,228,287386,301646
14,18,female,Belg,1,18,guess,loss,5,left,10,guess_outcome,0,undefined,0,0,213,285828,303204
14,18,female,Belg,1,18,ITC,loss,5,left,10,ITC_start,808,space,0,0,213,285017,304015
14,18,female,Belg,1,18,ITC,loss,5,left,10,ITC_wait,0,undefined,0,0,213,284350,304682
14,18,female,Belg,1,18,ITC,loss,5,left,10,ITC_choice,661,j,0,0,213,284353,304679
14,18,female,Belg,1,18,ITC,loss,5,left,10,ITC_collect,877,k,0,0,213,283471,305561
14,18,female,Belg,1,18,ITC,loss,5,left,10,ITC_outcome,0,undefined,0,0,223,282463,306569
14,18,female,Belg,1,19,guess,neutral,5,left,16,guess_start,431,space,0,0,223,282029,307003
14,18,female,Belg,1,19,guess,neutral,5,left,16,guess_choice,1439,f,0,0,223,280586,308446
14,18,female,Belg,1,19,guess,neutral,5,left,16,guess_outcome,0,undefined,0,0,223,279027,310005
14,18,female,Belg,1,19,ITC,neutral,5,left,16,ITC_start,388,space,0,0,223,278636,310396
14,18,female,Belg,1,19,ITC,neutral,5,left,16,ITC_choice,580,j,0,0,223,278053,310979
14,18,female,Belg,1,19,ITC,neutral,5,left,16,ITC_wait,0,undefined,0,0,223,278050,310982
14,18,female,Belg,1,19,ITC,neutral,5,left,16,ITC_collect,327,k,0,0,223,277721,311311
14,18,female,Belg,1,19,ITC,neutral,5,left,16,ITC_outcome,0,undefined,0,0,239,276717,312315
14,18,female,Belg,1,20,guess,win,5,left,4,guess_start,491,space,0,0,239,276223,312809
14,18,female,Belg,1,20,guess,win,5,left,4,guess_choice,1184,j,0,0,239,275034,313998
14,18,female,Belg,1,20,guess,win,5,left,4,guess_outcome,0,undefined,0,0,259,273477,315555
14,18,female,Belg,1,20,ITC,win,5,left,4,ITC_start,780,space,0,0,259,272695,316337
14,18,female,Belg,1,20,ITC,win,5,left,4,ITC_choice,1367,j,0,0,259,271326,317706
14,18,female,Belg,1,20,ITC,win,5,left,4,ITC_wait,0,undefined,0,0,259,271322,317710
14,18,female,Belg,1,20,ITC,win,5,left,4,ITC_collect,151,k,0,0,259,271170,317862
14,18,female,Belg,1,20,ITC,win,5,left,4,ITC_outcome,0,undefined,0,0,263,270165,318867
14,18,female,Belg,1,21,guess,neutral,5,left,5,guess_start,523,space,0,0,263,269639,319393
14,18,female,Belg,1,21,guess,neutral,5,left,5,guess_choice,541,j,0,0,263,269095,319937
14,18,female,Belg,1,21,guess,neutral,5,left,5,guess_outcome,0,undefined,0,0,263,267537,321495
14,18,female,Belg,1,21,ITC,neutral,5,left,5,ITC_start,490,space,0,0,263,267044,321988
14,18,female,Belg,1,21,ITC,neutral,5,left,5,ITC_choice,568,j,0,0,263,266474,322558
14,18,female,Belg,1,21,ITC,neutral,5,left,5,ITC_wait,0,undefined,0,0,263,266471,322561
14,18,female,Belg,1,21,ITC,neutral,5,left,5,ITC_collect,247,k,0,0,263,266223,322809
14,18,female,Belg,1,21,ITC,neutral,5,left,5,ITC_outcome,0,undefined,0,0,268,265216,323816
14,18,female,Belg,1,22,guess,loss,5,right,13,guess_start,436,space,0,0,268,264778,324254
14,18,female,Belg,1,22,guess,loss,5,right,13,guess_choice,602,j,0,0,268,264172,324860
14,18,female,Belg,1,22,guess,loss,5,right,13,guess_outcome,0,undefined,0,0,253,262613,326419
14,18,female,Belg,1,22,ITC,loss,5,right,13,ITC_start,328,space,0,0,253,262283,326749
14,18,female,Belg,1,22,ITC,loss,5,right,13,ITC_choice,1192,f,0,0,253,261089,327943
14,18,female,Belg,1,22,ITC,loss,5,right,13,ITC_wait,0,undefined,0,0,253,261085,327947
14,18,female,Belg,1,22,ITC,loss,5,right,13,ITC_collect,410,k,0,0,253,260674,328358
14,18,female,Belg,1,22,ITC,loss,5,right,13,ITC_outcome,0,undefined,0,0,266,259667,329365
14,18,female,Belg,1,23,guess,win,5,right,12,guess_start,549,space,0,0,266,259115,329917
14,18,female,Belg,1,23,guess,win,5,right,12,guess_choice,388,f,0,0,266,258724,330308
14,18,female,Belg,1,23,guess,win,5,right,12,guess_outcome,0,undefined,0,0,286,257170,331862
14,18,female,Belg,1,23,ITC,win,5,right,12,ITC_start,763,space,0,0,286,256404,332628
14,18,female,Belg,1,23,ITC,win,5,right,12,ITC_choice,1829,f,0,0,286,254573,334459
14,18,female,Belg,1,23,ITC,win,5,right,12,ITC_wait,0,undefined,0,0,286,254569,334463
14,18,female,Belg,1,23,ITC,win,5,right,12,ITC_collect,694,k,0,0,286,253874,335158
14,18,female,Belg,1,23,ITC,win,5,right,12,ITC_outcome,0,undefined,0,0,298,252866,336166
14,18,female,Belg,1,24,guess,loss,5,left,1,guess_start,399,space,0,0,298,252464,336568
14,18,female,Belg,1,24,guess,loss,5,left,1,guess_choice,679,j,0,0,298,251781,337251
14,18,female,Belg,1,24,guess,loss,5,left,1,guess_outcome,0,undefined,0,0,283,250224,338808
14,18,female,Belg,1,24,ITC,loss,5,left,1,ITC_start,607,space,0,0,283,249615,339417
14,18,female,Belg,1,24,ITC,loss,5,left,1,ITC_choice,684,j,0,0,283,248929,340103
14,18,female,Belg,1,24,ITC,loss,5,left,1,ITC_wait,0,undefined,0,0,283,248925,340107
14,18,female,Belg,1,24,ITC,loss,5,left,1,ITC_collect,700,k,0,0,283,248224,340808
14,18,female,Belg,1,24,ITC,loss,5,left,1,ITC_outcome,0,undefined,0,0,284,247219,341813
14,18,female,Belg,1,25,guess,win,10,left,8,guess_start,416,space,0,0,284,246800,342232
14,18,female,Belg,1,25,guess,win,10,left,8,guess_choice,1094,f,0,0,284,245701,343331
14,18,female,Belg,1,25,guess,win,10,left,8,guess_outcome,0,undefined,0,0,304,244142,344890
14,18,female,Belg,1,25,ITC,win,10,left,8,ITC_start,498,space,0,0,304,243642,345390
14,18,female,Belg,1,25,ITC,win,10,left,8,ITC_choice,1037,j,0,0,304,242603,346429
14,18,female,Belg,1,25,ITC,win,10,left,8,ITC_wait,0,undefined,0,0,304,242600,346432
14,18,female,Belg,1,25,ITC,win,10,left,8,ITC_collect,586,k,0,0,304,242012,347020
14,18,female,Belg,1,25,ITC,win,10,left,8,ITC_outcome,0,undefined,0,0,312,241004,348028
14,18,female,Belg,1,26,guess,win,10,right,3,guess_start,492,space,0,0,312,240510,348522
14,18,female,Belg,1,26,guess,win,10,right,3,guess_choice,693,j,0,0,312,239813,349219
14,18,female,Belg,1,26,guess,win,10,right,3,guess_outcome,0,undefined,0,0,332,238256,350776
14,18,female,Belg,1,26,ITC,win,10,right,3,ITC_start,536,space,0,0,332,237716,351316
14,18,female,Belg,1,26,ITC,win,10,right,3,ITC_choice,860,f,0,0,332,236853,352179
14,18,female,Belg,1,26,ITC,win,10,right,3,ITC_wait,0,undefined,0,0,332,236850,352182
14,18,female,Belg,1,26,ITC,win,10,right,3,ITC_collect,545,k,0,0,332,236303,352729
14,18,female,Belg,1,26,ITC,win,10,right,3,ITC_outcome,0,undefined,0,0,335,235295,353737
14,18,female,Belg,1,27,guess,neutral,5,left,3,guess_start,669,space,0,0,335,234624,354408
14,18,female,Belg,1,27,guess,neutral,5,left,3,guess_choice,726,f,0,0,335,233894,355138
14,18,female,Belg,1,27,guess,neutral,5,left,3,guess_outcome,0,undefined,0,0,335,232339,356693
14,18,female,Belg,1,27,ITC,neutral,5,left,3,ITC_start,67,space,0,0,335,232271,356761
14,18,female,Belg,1,27,ITC,neutral,5,left,3,ITC_wait,0,undefined,0,0,335,231212,357820
14,18,female,Belg,1,27,ITC,neutral,5,left,3,ITC_choice,1053,j,0,0,335,231216,357816
14,18,female,Belg,1,27,ITC,neutral,5,left,3,ITC_collect,287,k,0,0,335,230924,358108
14,18,female,Belg,1,27,ITC,neutral,5,left,3,ITC_outcome,0,undefined,0,0,338,229917,359115
14,18,female,Belg,1,28,guess,loss,5,left,3,guess_start,275,space,0,0,338,229639,359393
14,18,female,Belg,1,28,guess,loss,5,left,3,guess_choice,700,j,0,0,338,228935,360097
14,18,female,Belg,1,28,guess,loss,5,left,3,guess_outcome,0,undefined,0,0,323,227380,361652
14,18,female,Belg,1,28,ITC,loss,5,left,3,ITC_start,294,space,0,0,323,227083,361949
14,18,female,Belg,1,28,ITC,loss,5,left,3,ITC_choice,729,j,0,0,323,226351,362681
14,18,female,Belg,1,28,ITC,loss,5,left,3,ITC_wait,0,undefined,0,0,323,226348,362684
14,18,female,Belg,1,28,ITC,loss,5,left,3,ITC_collect,235,k,0,0,323,226112,362920
14,18,female,Belg,1,28,ITC,loss,5,left,3,ITC_outcome,0,undefined,0,0,326,225105,363927
14,18,female,Belg,1,29,guess,win,5,left,16,guess_start,701,space,0,0,326,224400,364632
14,18,female,Belg,1,29,guess,win,5,left,16,guess_choice,744,j,0,0,326,223652,365380
14,18,female,Belg,1,29,guess,win,5,left,16,guess_outcome,0,undefined,0,0,346,222093,366939
14,18,female,Belg,1,29,ITC,win,5,left,16,ITC_start,389,space,0,0,346,221702,367330
14,18,female,Belg,1,29,ITC,win,5,left,16,ITC_choice,17,f,0,0,346,221682,367350
14,18,female,Belg,1,29,ITC,win,5,left,16,ITC_wait,0,undefined,0,0,346,216675,372357
14,18,female,Belg,1,29,ITC,win,5,left,16,ITC_collect,15640,k,0,0,346,201032,388000
14,18,female,Belg,1,29,ITC,win,5,left,16,ITC_outcome,0,undefined,0,0,366,200026,389006
14,18,female,Belg,1,30,guess,win,5,right,15,guess_start,957,space,0,0,366,199067,389965
14,18,female,Belg,1,30,guess,win,5,right,15,guess_choice,829,j,0,0,366,198234,390798
14,18,female,Belg,1,30,guess,win,5,right,15,guess_outcome,0,undefined,0,0,386,196675,392357
14,18,female,Belg,1,30,ITC,win,5,right,15,ITC_start,651,space,0,0,386,196022,393010
14,18,female,Belg,1,30,ITC,win,5,right,15,ITC_choice,3555,f,0,0,386,192466,396566
14,18,female,Belg,1,30,ITC,win,5,right,15,ITC_wait,0,undefined,0,0,386,192462,396570
14,18,female,Belg,1,30,ITC,win,5,right,15,ITC_collect,292,k,0,0,386,192169,396863
14,18,female,Belg,1,30,ITC,win,5,right,15,ITC_outcome,0,undefined,0,0,401,191161,397871
14,18,female,Belg,1,31,guess,win,10,left,2,guess_start,158,space,0,0,401,191000,398032
14,18,female,Belg,1,31,guess,win,10,left,2,guess_choice,645,f,0,0,401,190351,398681
14,18,female,Belg,1,31,guess,win,10,left,2,guess_outcome,0,undefined,0,0,421,188793,400239
14,18,female,Belg,1,31,ITC,win,10,left,2,ITC_start,139,space,0,0,421,188651,400381
14,18,female,Belg,1,31,ITC,win,10,left,2,ITC_choice,1696,j,0,0,421,186953,402079
14,18,female,Belg,1,31,ITC,win,10,left,2,ITC_wait,0,undefined,0,0,421,186949,402083
14,18,female,Belg,1,31,ITC,win,10,left,2,ITC_collect,173,k,0,0,421,186775,402257
14,18,female,Belg,1,31,ITC,win,10,left,2,ITC_outcome,0,undefined,0,0,423,185768,403264
14,18,female,Belg,1,32,guess,win,10,left,1,guess_start,302,space,0,0,423,185463,403569
14,18,female,Belg,1,32,guess,win,10,left,1,guess_choice,718,j,0,0,423,184741,404291
14,18,female,Belg,1,32,guess,win,10,left,1,guess_outcome,0,undefined,0,0,443,183182,405850
14,18,female,Belg,1,32,ITC,win,10,left,1,ITC_start,451,space,0,0,443,182729,406303
14,18,female,Belg,1,32,ITC,win,10,left,1,ITC_choice,1978,f,0,0,443,180748,408284
14,18,female,Belg,1,32,ITC,win,10,left,1,ITC_wait,0,undefined,0,0,443,170741,418291
14,18,female,Belg,1,32,ITC,win,10,left,1,ITC_collect,585,k,0,0,443,170153,418879
14,18,female,Belg,1,32,ITC,win,10,left,1,ITC_outcome,0,undefined,0,0,463,169146,419886
14,18,female,Belg,1,33,guess,neutral,10,right,5,guess_start,270,space,0,0,463,168871,420161
14,18,female,Belg,1,33,guess,neutral,10,right,5,guess_choice,491,f,0,0,463,168375,420657
14,18,female,Belg,1,33,guess,neutral,10,right,5,guess_outcome,0,undefined,0,0,463,166820,422212
14,18,female,Belg,1,33,ITC,neutral,10,right,5,ITC_start,443,space,0,0,463,166374,422658
14,18,female,Belg,1,33,ITC,neutral,10,right,5,ITC_choice,793,f,0,0,463,165578,423454
14,18,female,Belg,1,33,ITC,neutral,10,right,5,ITC_wait,0,undefined,0,0,463,165575,423457
14,18,female,Belg,1,33,ITC,neutral,10,right,5,ITC_collect,348,k,0,0,463,165225,423807
14,18,female,Belg,1,33,ITC,neutral,10,right,5,ITC_outcome,0,undefined,0,0,468,164222,424810
14,18,female,Belg,1,34,guess,neutral,10,right,6,guess_start,428,space,0,0,468,163790,425242
14,18,female,Belg,1,34,guess,neutral,10,right,6,guess_choice,577,f,0,0,468,163209,425823
14,18,female,Belg,1,34,guess,neutral,10,right,6,guess_outcome,0,undefined,0,0,468,161652,427380
14,18,female,Belg,1,34,ITC,neutral,10,right,6,ITC_start,791,space,0,0,468,160858,428174
14,18,female,Belg,1,34,ITC,neutral,10,right,6,ITC_choice,595,f,0,0,468,160260,428772
14,18,female,Belg,1,34,ITC,neutral,10,right,6,ITC_wait,0,undefined,0,0,468,160257,428775
14,18,female,Belg,1,34,ITC,neutral,10,right,6,ITC_collect,343,k,0,0,468,159913,429119
14,18,female,Belg,1,34,ITC,neutral,10,right,6,ITC_outcome,0,undefined,0,0,474,158909,430123
14,18,female,Belg,1,35,guess,win,5,left,11,guess_start,423,space,0,0,474,158484,430548
14,18,female,Belg,1,35,guess,win,5,left,11,guess_choice,646,f,0,0,474,157834,431198
14,18,female,Belg,1,35,guess,win,5,left,11,guess_outcome,0,undefined,0,0,494,156275,432757
14,18,female,Belg,1,35,ITC,win,5,left,11,ITC_start,372,space,0,0,494,155901,433131
14,18,female,Belg,1,35,ITC,win,5,left,11,ITC_choice,1132,j,0,0,494,154766,434266
14,18,female,Belg,1,35,ITC,win,5,left,11,ITC_wait,0,undefined,0,0,494,154762,434270
14,18,female,Belg,1,35,ITC,win,5,left,11,ITC_collect,157,k,0,0,494,154603,434429
14,18,female,Belg,1,35,ITC,win,5,left,11,ITC_outcome,0,undefined,0,0,505,153596,435436
14,18,female,Belg,1,36,guess,loss,5,right,6,guess_start,478,space,0,0,505,153116,435916
14,18,female,Belg,1,36,guess,loss,5,right,6,guess_choice,632,j,0,0,505,152480,436552
14,18,female,Belg,1,36,guess,loss,5,right,6,guess_outcome,0,undefined,0,0,490,150921,438111
14,18,female,Belg,1,36,ITC,loss,5,right,6,ITC_start,573,space,0,0,490,150346,438686
14,18,female,Belg,1,36,ITC,loss,5,right,6,ITC_choice,622,f,0,0,490,149721,439311
14,18,female,Belg,1,36,ITC,loss,5,right,6,ITC_wait,0,undefined,0,0,490,149718,439314
14,18,female,Belg,1,36,ITC,loss,5,right,6,ITC_collect,488,k,0,0,490,149229,439803
14,18,female,Belg,1,36,ITC,loss,5,right,6,ITC_outcome,0,undefined,0,0,496,148222,440810
14,18,female,Belg,1,37,guess,neutral,5,left,6,guess_start,546,space,0,0,496,147673,441359
14,18,female,Belg,1,37,guess,neutral,5,left,6,guess_choice,770,j,0,0,496,146900,442132
14,18,female,Belg,1,37,guess,neutral,5,left,6,guess_outcome,0,undefined,0,0,496,145341,443691
14,18,female,Belg,1,37,ITC,neutral,5,left,6,ITC_start,487,space,0,0,496,144851,444181
14,18,female,Belg,1,37,ITC,neutral,5,left,6,ITC_wait,0,undefined,0,0,496,143589,445443
14,18,female,Belg,1,37,ITC,neutral,5,left,6,ITC_choice,1256,j,0,0,496,143593,445439
14,18,female,Belg,1,37,ITC,neutral,5,left,6,ITC_collect,149,k,0,0,496,143438,445594
14,18,female,Belg,1,37,ITC,neutral,5,left,6,ITC_outcome,0,undefined,0,0,502,142431,446601
14,18,female,Belg,1,38,guess,win,5,right,6,guess_start,54,space,0,0,502,142375,446657
14,18,female,Belg,1,38,guess,win,5,right,6,guess_choice,1040,f,0,0,502,141331,447701
14,18,female,Belg,1,38,guess,win,5,right,6,guess_outcome,0,undefined,0,0,522,139773,449259
14,18,female,Belg,1,38,ITC,win,5,right,6,ITC_start,403,space,0,0,522,139367,449665
14,18,female,Belg,1,38,ITC,win,5,right,6,ITC_choice,1316,f,0,0,522,138048,450984
14,18,female,Belg,1,38,ITC,win,5,right,6,ITC_wait,0,undefined,0,0,522,138045,450987
14,18,female,Belg,1,38,ITC,win,5,right,6,ITC_collect,87,k,0,0,522,137956,451076
14,18,female,Belg,1,38,ITC,win,5,right,6,ITC_outcome,0,undefined,0,0,528,136950,452082
14,18,female,Belg,1,39,guess,neutral,10,right,3,guess_start,520,space,0,0,528,136427,452605
14,18,female,Belg,1,39,guess,neutral,10,right,3,guess_choice,1460,f,0,0,528,134965,454067
14,18,female,Belg,1,39,guess,neutral,10,right,3,guess_outcome,0,undefined,0,0,528,133406,455626
14,18,female,Belg,1,39,ITC,neutral,10,right,3,ITC_start,668,space,0,0,528,132736,456296
14,18,female,Belg,1,39,ITC,neutral,10,right,3,ITC_choice,741,f,0,0,528,131992,457040
14,18,female,Belg,1,39,ITC,neutral,10,right,3,ITC_wait,0,undefined,0,0,528,131989,457043
14,18,female,Belg,1,39,ITC,neutral,10,right,3,ITC_collect,779,k,0,0,528,131208,457824
14,18,female,Belg,1,39,ITC,neutral,10,right,3,ITC_outcome,0,undefined,0,0,531,130200,458832
14,18,female,Belg,1,40,guess,win,5,right,10,guess_start,476,space,0,0,531,129722,459310
14,18,female,Belg,1,40,guess,win,5,right,10,guess_choice,823,f,0,0,531,128895,460137
14,18,female,Belg,1,40,guess,win,5,right,10,guess_outcome,0,undefined,0,0,551,127338,461694
14,18,female,Belg,1,40,ITC,win,5,right,10,ITC_start,483,space,0,0,551,126853,462179
14,18,female,Belg,1,40,ITC,win,5,right,10,ITC_choice,673,f,0,0,551,126176,462856
14,18,female,Belg,1,40,ITC,win,5,right,10,ITC_wait,0,undefined,0,0,551,126172,462860
14,18,female,Belg,1,40,ITC,win,5,right,10,ITC_collect,416,k,0,0,551,125755,463277
14,18,female,Belg,1,40,ITC,win,5,right,10,ITC_outcome,0,undefined,0,0,561,124747,464285
14,18,female,Belg,1,41,guess,neutral,5,right,1,guess_start,356,space,0,0,561,124388,464644
14,18,female,Belg,1,41,guess,neutral,5,right,1,guess_choice,587,j,0,0,561,123797,465235
14,18,female,Belg,1,41,guess,neutral,5,right,1,guess_outcome,0,undefined,0,0,561,122242,466790
14,18,female,Belg,1,41,ITC,neutral,5,right,1,ITC_start,467,space,0,0,561,121772,467260
14,18,female,Belg,1,41,ITC,neutral,5,right,1,ITC_choice,593,j,0,0,561,121176,467856
14,18,female,Belg,1,41,ITC,neutral,5,right,1,ITC_wait,0,undefined,0,0,561,116172,472860
14,18,female,Belg,1,41,ITC,neutral,5,right,1,ITC_collect,234,k,0,0,561,115935,473097
14,18,female,Belg,1,41,ITC,neutral,5,right,1,ITC_outcome,0,undefined,0,0,581,114930,474102
14,18,female,Belg,1,42,guess,neutral,5,right,2,guess_start,333,space,0,0,581,114593,474439
14,18,female,Belg,1,42,guess,neutral,5,right,2,guess_choice,584,f,0,0,581,114005,475027
14,18,female,Belg,1,42,guess,neutral,5,right,2,guess_outcome,0,undefined,0,0,581,112451,476581
14,18,female,Belg,1,42,ITC,neutral,5,right,2,ITC_start,415,space,0,0,581,112034,476998
14,18,female,Belg,1,42,ITC,neutral,5,right,2,ITC_choice,571,f,0,0,581,111461,477571
14,18,female,Belg,1,42,ITC,neutral,5,right,2,ITC_wait,0,undefined,0,0,581,111457,477575
14,18,female,Belg,1,42,ITC,neutral,5,right,2,ITC_collect,586,k,0,0,581,110870,478162
14,18,female,Belg,1,42,ITC,neutral,5,right,2,ITC_outcome,0,undefined,0,0,583,109864,479168
14,18,female,Belg,1,43,guess,win,5,left,7,guess_start,344,space,0,0,583,109517,479515
14,18,female,Belg,1,43,guess,win,5,left,7,guess_choice,388,f,0,0,583,109124,479908
14,18,female,Belg,1,43,guess,win,5,left,7,guess_outcome,0,undefined,0,0,603,107564,481468
14,18,female,Belg,1,43,ITC,win,5,left,7,ITC_start,372,space,0,0,603,107190,481842
14,18,female,Belg,1,43,ITC,win,5,left,7,ITC_choice,898,j,0,0,603,106289,482743
14,18,female,Belg,1,43,ITC,win,5,left,7,ITC_wait,0,undefined,0,0,603,106285,482747
14,18,female,Belg,1,43,ITC,win,5,left,7,ITC_collect,227,k,0,0,603,106058,482974
14,18,female,Belg,1,43,ITC,win,5,left,7,ITC_outcome,0,undefined,0,0,610,105050,483982
14,18,female,Belg,1,44,guess,neutral,5,right,4,guess_start,430,space,0,0,610,104617,484415
14,18,female,Belg,1,44,guess,neutral,5,right,4,guess_choice,549,j,0,0,610,104064,484968
14,18,female,Belg,1,44,guess,neutral,5,right,4,guess_outcome,0,undefined,0,0,610,102504,486528
14,18,female,Belg,1,44,ITC,neutral,5,right,4,ITC_start,420,space,0,0,610,102082,486950
14,18,female,Belg,1,44,ITC,neutral,5,right,4,ITC_choice,551,f,0,0,610,101529,487503
14,18,female,Belg,1,44,ITC,neutral,5,right,4,ITC_wait,0,undefined,0,0,610,101525,487507
14,18,female,Belg,1,44,ITC,neutral,5,right,4,ITC_collect,259,k,0,0,610,101265,487767
14,18,female,Belg,1,44,ITC,neutral,5,right,4,ITC_outcome,0,undefined,0,0,614,100259,488773
14,18,female,Belg,1,45,guess,neutral,5,right,12,guess_start,324,space,0,0,614,99932,489100
14,18,female,Belg,1,45,guess,neutral,5,right,12,guess_choice,434,f,0,0,614,99493,489539
14,18,female,Belg,1,45,guess,neutral,5,right,12,guess_outcome,0,undefined,0,0,614,97934,491098
14,18,female,Belg,1,45,ITC,neutral,5,right,12,ITC_start,851,space,0,0,614,97081,491951
14,18,female,Belg,1,45,ITC,neutral,5,right,12,ITC_choice,663,j,0,0,614,96415,492617
14,18,female,Belg,1,45,ITC,neutral,5,right,12,ITC_wait,0,undefined,0,0,614,91409,497623
14,18,female,Belg,1,45,ITC,neutral,5,right,12,ITC_collect,18,k,0,0,614,91388,497644
14,18,female,Belg,1,45,ITC,neutral,5,right,12,ITC_outcome,0,undefined,0,0,634,90384,498648
14,18,female,Belg,1,46,guess,loss,5,right,11,guess_start,529,space,0,0,634,89852,499180
14,18,female,Belg,1,46,guess,loss,5,right,11,guess_choice,605,f,0,0,634,89242,499790
14,18,female,Belg,1,46,guess,loss,5,right,11,guess_outcome,0,undefined,0,0,619,87683,501349
14,18,female,Belg,1,46,ITC,loss,5,right,11,ITC_start,741,space,0,0,619,86940,502092
14,18,female,Belg,1,46,ITC,loss,5,right,11,ITC_choice,492,f,0,0,619,86445,502587
14,18,female,Belg,1,46,ITC,loss,5,right,11,ITC_wait,0,undefined,0,0,619,86441,502591
14,18,female,Belg,1,46,ITC,loss,5,right,11,ITC_collect,372,k,0,0,619,86068,502964
14,18,female,Belg,1,46,ITC,loss,5,right,11,ITC_outcome,0,undefined,0,0,630,85060,503972
14,18,female,Belg,1,47,guess,loss,10,right,5,guess_start,387,space,0,0,630,84670,504362
14,18,female,Belg,1,47,guess,loss,10,right,5,guess_choice,512,j,0,0,630,84154,504878
14,18,female,Belg,1,47,guess,loss,10,right,5,guess_outcome,0,undefined,0,0,615,82599,506433
14,18,female,Belg,1,47,ITC,loss,10,right,5,ITC_start,264,space,0,0,615,82333,506699
14,18,female,Belg,1,47,ITC,loss,10,right,5,ITC_choice,759,f,0,0,615,81571,507461
14,18,female,Belg,1,47,ITC,loss,10,right,5,ITC_wait,0,undefined,0,0,615,81567,507465
14,18,female,Belg,1,47,ITC,loss,10,right,5,ITC_collect,259,k,0,0,615,81308,507724
14,18,female,Belg,1,47,ITC,loss,10,right,5,ITC_outcome,0,undefined,0,0,620,80300,508732
14,18,female,Belg,1,48,guess,loss,10,right,8,guess_start,493,space,0,0,620,79804,509228
14,18,female,Belg,1,48,guess,loss,10,right,8,guess_choice,260,j,0,0,620,79539,509493
14,18,female,Belg,1,48,guess,loss,10,right,8,guess_outcome,0,undefined,0,0,605,77980,511052
14,18,female,Belg,1,48,ITC,loss,10,right,8,ITC_start,120,space,0,0,605,77857,511175
14,18,female,Belg,1,48,ITC,loss,10,right,8,ITC_wait,0,undefined,0,0,605,77304,511728
14,18,female,Belg,1,48,ITC,loss,10,right,8,ITC_choice,546,f,0,0,605,77308,511724
14,18,female,Belg,1,48,ITC,loss,10,right,8,ITC_collect,324,k,0,0,605,76979,512053
14,18,female,Belg,1,48,ITC,loss,10,right,8,ITC_outcome,0,undefined,0,0,613,75973,513059
14,18,female,Belg,1,49,guess,loss,5,left,2,guess_start,468,space,0,0,613,75503,513529
14,18,female,Belg,1,49,guess,loss,5,left,2,guess_choice,225,j,0,0,613,75273,513759
14,18,female,Belg,1,49,guess,loss,5,left,2,guess_outcome,0,undefined,0,0,598,73717,515315
14,18,female,Belg,1,49,ITC,loss,5,left,2,ITC_start,118,space,0,0,598,73597,515435
14,18,female,Belg,1,49,ITC,loss,5,left,2,ITC_choice,1529,j,0,0,598,72066,516966
14,18,female,Belg,1,49,ITC,loss,5,left,2,ITC_wait,0,undefined,0,0,598,72062,516970
14,18,female,Belg,1,49,ITC,loss,5,left,2,ITC_collect,149,k,0,0,598,71911,517121
14,18,female,Belg,1,49,ITC,loss,5,left,2,ITC_outcome,0,undefined,0,0,600,70907,518125
14,18,female,Belg,1,50,guess,win,10,right,6,guess_start,444,space,0,0,600,70460,518572
14,18,female,Belg,1,50,guess,win,10,right,6,guess_choice,290,j,0,0,600,70166,518866
14,18,female,Belg,1,50,guess,win,10,right,6,guess_outcome,0,undefined,0,0,620,68607,520425
14,18,female,Belg,1,50,ITC,win,10,right,6,ITC_start,447,space,0,0,620,68157,520875
14,18,female,Belg,1,50,ITC,win,10,right,6,ITC_choice,615,f,0,0,620,67540,521492
14,18,female,Belg,1,50,ITC,win,10,right,6,ITC_wait,0,undefined,0,0,620,67536,521496
14,18,female,Belg,1,50,ITC,win,10,right,6,ITC_collect,301,k,0,0,620,67233,521799
14,18,female,Belg,1,50,ITC,win,10,right,6,ITC_outcome,0,undefined,0,0,626,66226,522806
14,18,female,Belg,1,51,guess,win,5,left,5,guess_start,387,space,0,0,626,65835,523197
14,18,female,Belg,1,51,guess,win,5,left,5,guess_choice,314,j,0,0,626,65517,523515
14,18,female,Belg,1,51,guess,win,5,left,5,guess_outcome,0,undefined,0,0,646,63959,525073
14,18,female,Belg,1,51,ITC,win,5,left,5,ITC_start,302,space,0,0,646,63654,525378
14,18,female,Belg,1,51,ITC,win,5,left,5,ITC_choice,671,j,0,0,646,62981,526051
14,18,female,Belg,1,51,ITC,win,5,left,5,ITC_wait,0,undefined,0,0,646,62977,526055
14,18,female,Belg,1,51,ITC,win,5,left,5,ITC_collect,347,k,0,0,646,62629,526403
14,18,female,Belg,1,51,ITC,win,5,left,5,ITC_outcome,0,undefined,0,0,651,61625,527407
14,18,female,Belg,1,52,guess,loss,5,right,4,guess_start,541,space,0,0,651,61082,527950
14,18,female,Belg,1,52,guess,loss,5,right,4,guess_choice,323,f,0,0,651,60755,528277
14,18,female,Belg,1,52,guess,loss,5,right,4,guess_outcome,0,undefined,0,0,636,59197,529835
14,18,female,Belg,1,52,ITC,loss,5,right,4,ITC_start,305,space,0,0,636,58889,530143
14,18,female,Belg,1,52,ITC,loss,5,right,4,ITC_wait,0,undefined,0,0,636,58363,530669
14,18,female,Belg,1,52,ITC,loss,5,right,4,ITC_choice,520,f,0,0,636,58366,530666
14,18,female,Belg,1,52,ITC,loss,5,right,4,ITC_collect,233,k,0,0,636,58128,530904
14,18,female,Belg,1,52,ITC,loss,5,right,4,ITC_outcome,0,undefined,0,0,640,57124,531908
14,18,female,Belg,1,53,guess,neutral,5,right,13,guess_start,424,space,0,0,640,56697,532335
14,18,female,Belg,1,53,guess,neutral,5,right,13,guess_choice,1319,f,0,0,640,55374,533658
14,18,female,Belg,1,53,guess,neutral,5,right,13,guess_outcome,0,undefined,0,0,640,53818,535214
14,18,female,Belg,1,53,ITC,neutral,5,right,13,ITC_start,805,space,0,0,640,53011,536021
14,18,female,Belg,1,53,ITC,neutral,5,right,13,ITC_choice,546,f,0,0,640,52462,536570
14,18,female,Belg,1,53,ITC,neutral,5,right,13,ITC_wait,0,undefined,0,0,640,52458,536574
14,18,female,Belg,1,53,ITC,neutral,5,right,13,ITC_collect,754,k,0,0,640,51703,537329
14,18,female,Belg,1,53,ITC,neutral,5,right,13,ITC_outcome,0,undefined,0,0,653,50699,538333
14,18,female,Belg,1,54,guess,loss,5,right,15,guess_start,484,space,0,0,653,50211,538821
14,18,female,Belg,1,54,guess,loss,5,right,15,guess_choice,649,j,0,0,653,49558,539474
14,18,female,Belg,1,54,guess,loss,5,right,15,guess_outcome,0,undefined,0,0,638,47999,541033
14,18,female,Belg,1,54,ITC,loss,5,right,15,ITC_start,160,space,0,0,638,47837,541195
14,18,female,Belg,1,54,ITC,loss,5,right,15,ITC_choice,498,f,0,0,638,47336,541696
14,18,female,Belg,1,54,ITC,loss,5,right,15,ITC_wait,0,undefined,0,0,638,47332,541700
14,18,female,Belg,1,54,ITC,loss,5,right,15,ITC_collect,175,k,0,0,638,47156,541876
14,18,female,Belg,1,54,ITC,loss,5,right,15,ITC_outcome,0,undefined,0,0,653,46152,542880
14,18,female,Belg,1,55,guess,neutral,5,right,11,guess_start,458,space,0,0,653,45691,543341
14,18,female,Belg,1,55,guess,neutral,5,right,11,guess_choice,1168,j,0,0,653,44519,544513
14,18,female,Belg,1,55,guess,neutral,5,right,11,guess_outcome,0,undefined,0,0,653,42964,546068
14,18,female,Belg,1,55,ITC,neutral,5,right,11,ITC_start,540,space,0,0,653,42422,546610
14,18,female,Belg,1,55,ITC,neutral,5,right,11,ITC_choice,643,f,0,0,653,41776,547256
14,18,female,Belg,1,55,ITC,neutral,5,right,11,ITC_wait,0,undefined,0,0,653,41773,547259
14,18,female,Belg,1,55,ITC,neutral,5,right,11,ITC_collect,244,k,0,0,653,41528,547504
14,18,female,Belg,1,55,ITC,neutral,5,right,11,ITC_outcome,0,undefined,0,0,664,40521,548511
14,18,female,Belg,1,56,guess,neutral,10,right,1,guess_start,402,space,0,0,664,40117,548915
14,18,female,Belg,1,56,guess,neutral,10,right,1,guess_choice,499,f,0,0,664,39613,549419
14,18,female,Belg,1,56,guess,neutral,10,right,1,guess_outcome,0,undefined,0,0,664,38053,550979
14,18,female,Belg,1,56,ITC,neutral,10,right,1,ITC_start,277,space,0,0,664,37773,551259
14,18,female,Belg,1,56,ITC,neutral,10,right,1,ITC_choice,283,f,0,0,664,37488,551544
14,18,female,Belg,1,56,ITC,neutral,10,right,1,ITC_wait,0,undefined,0,0,664,37483,551549
14,18,female,Belg,1,56,ITC,neutral,10,right,1,ITC_collect,316,k,0,0,664,37165,551867
14,18,female,Belg,1,56,ITC,neutral,10,right,1,ITC_outcome,0,undefined,0,0,665,36158,552874
14,18,female,Belg,1,57,guess,neutral,10,left,8,guess_start,359,space,0,0,665,35796,553236
14,18,female,Belg,1,57,guess,neutral,10,left,8,guess_choice,488,f,0,0,665,35304,553728
14,18,female,Belg,1,57,guess,neutral,10,left,8,guess_outcome,0,undefined,0,0,665,33749,555283
14,18,female,Belg,1,57,ITC,neutral,10,left,8,ITC_start,513,space,0,0,665,33233,555799
14,18,female,Belg,1,57,ITC,neutral,10,left,8,ITC_choice,863,j,0,0,665,32367,556665
14,18,female,Belg,1,57,ITC,neutral,10,left,8,ITC_wait,0,undefined,0,0,665,32364,556668
14,18,female,Belg,1,57,ITC,neutral,10,left,8,ITC_collect,202,k,0,0,665,32160,556872
14,18,female,Belg,1,57,ITC,neutral,10,left,8,ITC_outcome,0,undefined,0,0,673,31153,557879
14,18,female,Belg,1,58,guess,neutral,5,right,7,guess_start,415,space,0,0,673,30735,558297
14,18,female,Belg,1,58,guess,neutral,5,right,7,guess_choice,590,j,0,0,673,30141,558891
14,18,female,Belg,1,58,guess,neutral,5,right,7,guess_outcome,0,undefined,0,0,673,28585,560447
14,18,female,Belg,1,58,ITC,neutral,5,right,7,ITC_start,448,space,0,0,673,28135,560897
14,18,female,Belg,1,58,ITC,neutral,5,right,7,ITC_choice,614,f,0,0,673,27518,561514
14,18,female,Belg,1,58,ITC,neutral,5,right,7,ITC_wait,0,undefined,0,0,673,27515,561517
14,18,female,Belg,1,58,ITC,neutral,5,right,7,ITC_collect,282,k,0,0,673,27231,561801
14,18,female,Belg,1,58,ITC,neutral,5,right,7,ITC_outcome,0,undefined,0,0,680,26227,562805
14,18,female,Belg,1,59,guess,neutral,5,left,15,guess_start,243,space,0,0,680,25981,563051
14,18,female,Belg,1,59,guess,neutral,5,left,15,guess_choice,447,j,0,0,680,25530,563502
14,18,female,Belg,1,59,guess,neutral,5,left,15,guess_outcome,0,undefined,0,0,680,23973,565059
14,18,female,Belg,1,59,ITC,neutral,5,left,15,ITC_start,312,space,0,0,680,23659,565373
14,18,female,Belg,1,59,ITC,neutral,5,left,15,ITC_choice,744,j,0,0,680,22913,566119
14,18,female,Belg,1,59,ITC,neutral,5,left,15,ITC_wait,0,undefined,0,0,680,22909,566123
14,18,female,Belg,1,59,ITC,neutral,5,left,15,ITC_collect,196,k,0,0,680,22713,566319
14,18,female,Belg,1,59,ITC,neutral,5,left,15,ITC_outcome,0,undefined,0,0,695,21705,567327
14,18,female,Belg,1,60,guess,loss,5,left,14,guess_start,278,space,0,0,695,21423,567609
14,18,female,Belg,1,60,guess,loss,5,left,14,guess_choice,626,j,0,0,695,20793,568239
14,18,female,Belg,1,60,guess,loss,5,left,14,guess_outcome,0,undefined,0,0,680,19234,569798
14,18,female,Belg,1,60,ITC,loss,5,left,14,ITC_start,353,space,0,0,680,18878,570154
14,18,female,Belg,1,60,ITC,loss,5,left,14,ITC_choice,426,j,0,0,680,18450,570582
14,18,female,Belg,1,60,ITC,loss,5,left,14,ITC_wait,0,undefined,0,0,680,18447,570585
14,18,female,Belg,1,60,ITC,loss,5,left,14,ITC_collect,239,k,0,0,680,18207,570825
14,18,female,Belg,1,60,ITC,loss,5,left,14,ITC_outcome,0,undefined,0,0,694,17203,571829
14,18,female,Belg,1,61,guess,neutral,5,right,10,guess_start,552,space,0,0,694,16648,572384
14,18,female,Belg,1,61,guess,neutral,5,right,10,guess_choice,299,f,0,0,694,16345,572687
14,18,female,Belg,1,61,guess,neutral,5,right,10,guess_outcome,0,undefined,0,0,694,14789,574243
14,18,female,Belg,1,61,ITC,neutral,5,right,10,ITC_start,415,space,0,0,694,14371,574661
14,18,female,Belg,1,61,ITC,neutral,5,right,10,ITC_choice,539,f,0,0,694,13830,575202
14,18,female,Belg,1,61,ITC,neutral,5,right,10,ITC_wait,0,undefined,0,0,694,13826,575206
14,18,female,Belg,1,61,ITC,neutral,5,right,10,ITC_collect,451,k,0,0,694,13373,575659
14,18,female,Belg,1,61,ITC,neutral,5,right,10,ITC_outcome,0,undefined,0,0,704,12368,576664
14,18,female,Belg,1,62,guess,win,5,left,8,guess_start,237,space,0,0,704,12128,576904
14,18,female,Belg,1,62,guess,win,5,left,8,guess_choice,600,f,0,0,704,11525,577507
14,18,female,Belg,1,62,guess,win,5,left,8,guess_outcome,0,undefined,0,0,724,9966,579066
14,18,female,Belg,1,62,ITC,win,5,left,8,ITC_start,195,space,0,0,724,9769,579263
14,18,female,Belg,1,62,ITC,win,5,left,8,ITC_choice,277,j,0,0,724,9490,579542
14,18,female,Belg,1,62,ITC,win,5,left,8,ITC_wait,0,undefined,0,0,724,9486,579546
14,18,female,Belg,1,62,ITC,win,5,left,8,ITC_collect,1166,k,0,0,724,8319,580713
14,18,female,Belg,1,62,ITC,win,5,left,8,ITC_outcome,0,undefined,0,0,732,7312,581720
14,18,female,Belg,1,63,guess,neutral,10,right,2,guess_start,268,space,0,0,732,7041,581991
14,18,female,Belg,1,63,guess,neutral,10,right,2,guess_choice,397,f,0,0,732,6640,582392
14,18,female,Belg,1,63,guess,neutral,10,right,2,guess_outcome,0,undefined,0,0,732,5082,583950
14,18,female,Belg,1,63,ITC,neutral,10,right,2,ITC_start,4,space,0,0,732,5075,583957
14,18,female,Belg,1,63,ITC,neutral,10,right,2,ITC_choice,531,f,0,0,732,4542,584490
14,18,female,Belg,1,63,ITC,neutral,10,right,2,ITC_wait,0,undefined,0,0,732,4539,584493
14,18,female,Belg,1,63,ITC,neutral,10,right,2,ITC_collect,289,k,0,0,732,4250,584782
14,18,female,Belg,1,63,ITC,neutral,10,right,2,ITC_outcome,0,undefined,0,0,734,3245,585787
14,18,female,Belg,1,64,guess,neutral,10,left,7,guess_start,259,space,0,0,734,2984,586048
14,18,female,Belg,1,64,guess,neutral,10,left,7,guess_choice,1037,f,0,0,734,1942,587090
14,18,female,Belg,1,64,guess,neutral,10,left,7,guess_outcome,0,undefined,0,0,734,386,588646
14,18,female,Belg,1,64,ITC,neutral,10,left,7,ITC_start,0,undefined,0,0,734,-4,589036
14,18,female,Belg,2,65,ITC,win,10,right,5,ITC_wait,0,undefined,0,0,20,474162,607175
14,18,female,Belg,2,65,guess,win,10,right,5,guess_outcome,0,undefined,0,0,20,476115,605222
14,18,female,Belg,2,65,ITC,win,10,right,5,ITC_start,839,space,0,0,20,475273,606064
14,18,female,Belg,2,65,guess,win,10,right,5,guess_choice,997,j,0,0,0,477674,603663
14,18,female,Belg,2,65,guess,win,10,right,5,guess_start,1323,space,0,0,0,478676,602661
14,18,female,Belg,2,65,ITC,win,10,right,5,ITC_choice,1104,f,0,0,20,474167,607170
14,18,female,Belg,2,65,ITC,win,10,right,5,ITC_collect,145,k,0,0,20,474017,607320
14,18,female,Belg,2,66,guess,win,5,right,1,guess_start,473,space,0,0,25,472533,608804
14,18,female,Belg,2,65,ITC,win,10,right,5,ITC_outcome,0,undefined,0,0,25,473009,608328
14,18,female,Belg,2,66,guess,win,5,right,1,guess_choice,917,f,0,0,25,471613,609724
14,18,female,Belg,2,66,guess,win,5,right,1,guess_outcome,0,undefined,0,0,45,470059,611278
14,18,female,Belg,2,66,ITC,win,5,right,1,ITC_start,944,space,0,0,45,469113,612224
14,18,female,Belg,2,66,ITC,win,5,right,1,ITC_choice,516,f,0,0,45,468595,612742
14,18,female,Belg,2,66,ITC,win,5,right,1,ITC_wait,0,undefined,0,0,45,468592,612745
14,18,female,Belg,2,66,ITC,win,5,right,1,ITC_collect,373,k,0,0,45,468217,613120
14,18,female,Belg,2,66,ITC,win,5,right,1,ITC_outcome,0,undefined,0,0,46,467212,614125
14,18,female,Belg,2,67,guess,loss,5,left,16,guess_start,501,space,0,0,46,466707,614630
14,18,female,Belg,2,67,guess,loss,5,left,16,guess_choice,506,f,0,0,46,466197,615140
14,18,female,Belg,2,67,guess,loss,5,left,16,guess_outcome,0,undefined,0,0,31,464643,616694
14,18,female,Belg,2,67,ITC,loss,5,left,16,ITC_start,359,space,0,0,31,464282,617055
14,18,female,Belg,2,67,ITC,loss,5,left,16,ITC_choice,571,j,0,0,31,463707,617630
14,18,female,Belg,2,67,ITC,loss,5,left,16,ITC_wait,0,undefined,0,0,31,463703,617634
14,18,female,Belg,2,67,ITC,loss,5,left,16,ITC_collect,248,k,0,0,31,463454,617883
14,18,female,Belg,2,67,ITC,loss,5,left,16,ITC_outcome,0,undefined,0,0,47,462446,618891
14,18,female,Belg,2,68,guess,loss,5,left,8,guess_start,480,space,0,0,47,461963,619374
14,18,female,Belg,2,68,guess,loss,5,left,8,guess_choice,202,f,0,0,47,461757,619580
14,18,female,Belg,2,68,guess,loss,5,left,8,guess_outcome,0,undefined,0,0,32,460200,621137
14,18,female,Belg,2,68,ITC,loss,5,left,8,ITC_start,687,space,0,0,32,459511,621826
14,18,female,Belg,2,68,ITC,loss,5,left,8,ITC_choice,695,j,0,0,32,458813,622524
14,18,female,Belg,2,68,ITC,loss,5,left,8,ITC_wait,0,undefined,0,0,32,458810,622527
14,18,female,Belg,2,68,ITC,loss,5,left,8,ITC_collect,174,k,0,0,32,458635,622702
14,18,female,Belg,2,68,ITC,loss,5,left,8,ITC_outcome,0,undefined,0,0,40,457629,623708
14,18,female,Belg,2,69,guess,loss,10,right,2,guess_start,701,space,0,0,40,456925,624412
14,18,female,Belg,2,69,guess,loss,10,right,2,guess_choice,258,f,0,0,40,456663,624674
14,18,female,Belg,2,69,guess,loss,10,right,2,guess_outcome,0,undefined,0,0,25,455105,626232
14,18,female,Belg,2,69,ITC,loss,10,right,2,ITC_start,1031,space,0,0,25,454071,627266
14,18,female,Belg,2,69,ITC,loss,10,right,2,ITC_choice,1073,f,0,0,25,452996,628341
14,18,female,Belg,2,69,ITC,loss,10,right,2,ITC_wait,0,undefined,0,0,25,452992,628345
14,18,female,Belg,2,69,ITC,loss,10,right,2,ITC_collect,95,k,0,0,25,452896,628441
14,18,female,Belg,2,69,ITC,loss,10,right,2,ITC_outcome,0,undefined,0,0,27,451889,629448
14,18,female,Belg,2,70,guess,loss,10,left,4,guess_start,1366,space,0,0,27,450521,630816
14,18,female,Belg,2,70,guess,loss,10,left,4,guess_choice,294,f,0,0,27,450222,631115
14,18,female,Belg,2,70,guess,loss,10,left,4,guess_outcome,0,undefined,0,0,12,448663,632674
14,18,female,Belg,2,70,ITC,loss,10,left,4,ITC_start,683,space,0,0,12,447978,633359
14,18,female,Belg,2,70,ITC,loss,10,left,4,ITC_choice,1742,j,0,0,12,446234,635103
14,18,female,Belg,2,70,ITC,loss,10,left,4,ITC_wait,0,undefined,0,0,12,446230,635107
14,18,female,Belg,2,70,ITC,loss,10,left,4,ITC_collect,268,k,0,0,12,445961,635376
14,18,female,Belg,2,70,ITC,loss,10,left,4,ITC_outcome,0,undefined,0,0,16,444953,636384
14,18,female,Belg,2,71,guess,win,5,right,2,guess_start,501,space,0,0,16,444449,636888
14,18,female,Belg,2,71,guess,win,5,right,2,guess_choice,679,j,0,0,16,443766,637571
14,18,female,Belg,2,71,guess,win,5,right,2,guess_outcome,0,undefined,0,0,36,442211,639126
14,18,female,Belg,2,71,ITC,win,5,right,2,ITC_start,403,space,0,0,36,441806,639531
14,18,female,Belg,2,71,ITC,win,5,right,2,ITC_choice,1015,f,0,0,36,440789,640548
14,18,female,Belg,2,71,ITC,win,5,right,2,ITC_wait,0,undefined,0,0,36,440785,640552
14,18,female,Belg,2,71,ITC,win,5,right,2,ITC_collect,65,k,0,0,36,440719,640618
14,18,female,Belg,2,71,ITC,win,5,right,2,ITC_outcome,0,undefined,0,0,38,439711,641626
14,18,female,Belg,2,72,guess,loss,5,right,5,guess_start,279,space,0,0,38,439429,641908
14,18,female,Belg,2,72,guess,loss,5,right,5,guess_choice,435,j,0,0,38,438989,642348
14,18,female,Belg,2,72,guess,loss,5,right,5,guess_outcome,0,undefined,0,0,23,437432,643905
14,18,female,Belg,2,72,ITC,loss,5,right,5,ITC_start,295,space,0,0,23,437135,644202
14,18,female,Belg,2,72,ITC,loss,5,right,5,ITC_wait,0,undefined,0,0,23,436671,644666
14,18,female,Belg,2,72,ITC,loss,5,right,5,ITC_choice,458,f,0,0,23,436674,644663
14,18,female,Belg,2,72,ITC,loss,5,right,5,ITC_collect,459,k,0,0,23,436210,645127
14,18,female,Belg,2,72,ITC,loss,5,right,5,ITC_outcome,0,undefined,0,0,28,435203,646134
14,18,female,Belg,2,73,guess,win,5,left,7,guess_start,536,space,0,0,28,434664,646673
14,18,female,Belg,2,73,guess,win,5,left,7,guess_choice,500,j,0,0,28,434160,647177
14,18,female,Belg,2,73,guess,win,5,left,7,guess_outcome,0,undefined,0,0,48,432601,648736
14,18,female,Belg,2,73,ITC,win,5,left,7,ITC_start,569,space,0,0,48,432030,649307
14,18,female,Belg,2,73,ITC,win,5,left,7,ITC_choice,637,j,0,0,48,431391,649946
14,18,female,Belg,2,73,ITC,win,5,left,7,ITC_wait,0,undefined,0,0,48,431387,649950
14,18,female,Belg,2,73,ITC,win,5,left,7,ITC_collect,133,k,0,0,48,431252,650085
14,18,female,Belg,2,73,ITC,win,5,left,7,ITC_outcome,0,undefined,0,0,55,430245,651092
14,18,female,Belg,2,74,guess,loss,10,right,6,guess_start,421,space,0,0,55,429822,651515
14,18,female,Belg,2,74,guess,loss,10,right,6,guess_choice,553,j,0,0,55,429264,652073
14,18,female,Belg,2,74,guess,loss,10,right,6,guess_outcome,0,undefined,0,0,40,427710,653627
14,18,female,Belg,2,74,ITC,loss,10,right,6,ITC_start,159,space,0,0,40,427549,653788
14,18,female,Belg,2,74,ITC,loss,10,right,6,ITC_wait,0,undefined,0,0,40,426621,654716
14,18,female,Belg,2,74,ITC,loss,10,right,6,ITC_choice,922,f,0,0,40,426624,654713
14,18,female,Belg,2,74,ITC,loss,10,right,6,ITC_collect,244,k,0,0,40,426376,654961
14,18,female,Belg,2,74,ITC,loss,10,right,6,ITC_outcome,0,undefined,0,0,46,425368,655969
14,18,female,Belg,2,75,guess,win,10,left,7,guess_start,896,space,0,0,46,424470,656867
14,18,female,Belg,2,75,guess,win,10,left,7,guess_choice,236,j,0,0,46,424230,657107
14,18,female,Belg,2,75,guess,win,10,left,7,guess_outcome,0,undefined,0,0,66,422675,658662
14,18,female,Belg,2,75,ITC,win,10,left,7,ITC_start,238,space,0,0,66,422434,658903
14,18,female,Belg,2,75,ITC,win,10,left,7,ITC_choice,1204,j,0,0,66,421228,660109
14,18,female,Belg,2,75,ITC,win,10,left,7,ITC_wait,0,undefined,0,0,66,421224,660113
14,18,female,Belg,2,75,ITC,win,10,left,7,ITC_collect,239,k,0,0,66,420983,660354
14,18,female,Belg,2,75,ITC,win,10,left,7,ITC_outcome,0,undefined,0,0,73,419976,661361
14,18,female,Belg,2,76,guess,neutral,5,right,6,guess_start,267,space,0,0,73,419706,661631
14,18,female,Belg,2,76,guess,neutral,5,right,6,guess_choice,1048,f,0,0,73,418654,662683
14,18,female,Belg,2,76,guess,neutral,5,right,6,guess_outcome,0,undefined,0,0,73,417098,664239
14,18,female,Belg,2,76,ITC,neutral,5,right,6,ITC_start,588,space,0,0,73,416508,664829
14,18,female,Belg,2,76,ITC,neutral,5,right,6,ITC_choice,747,f,0,0,73,415757,665580
14,18,female,Belg,2,76,ITC,neutral,5,right,6,ITC_wait,0,undefined,0,0,73,415754,665583
14,18,female,Belg,2,76,ITC,neutral,5,right,6,ITC_collect,1842,k,0,0,73,413910,667427
14,18,female,Belg,2,76,ITC,neutral,5,right,6,ITC_outcome,0,undefined,0,0,79,412906,668431
14,18,female,Belg,2,77,guess,loss,5,right,10,guess_start,400,space,0,0,79,412502,668835
14,18,female,Belg,2,77,guess,loss,5,right,10,guess_choice,1008,j,0,0,79,411490,669847
14,18,female,Belg,2,77,guess,loss,5,right,10,guess_outcome,0,undefined,0,0,64,409935,671402
14,18,female,Belg,2,77,ITC,loss,5,right,10,ITC_start,169,space,0,0,64,409764,671573
14,18,female,Belg,2,77,ITC,loss,5,right,10,ITC_choice,593,f,0,0,64,409168,672169
14,18,female,Belg,2,77,ITC,loss,5,right,10,ITC_wait,0,undefined,0,0,64,409164,672173
14,18,female,Belg,2,77,ITC,loss,5,right,10,ITC_collect,454,k,0,0,64,408709,672628
14,18,female,Belg,2,77,ITC,loss,5,right,10,ITC_outcome,0,undefined,0,0,74,407701,673636
14,18,female,Belg,2,78,guess,neutral,5,right,13,guess_start,537,space,0,0,74,407160,674177
14,18,female,Belg,2,78,guess,neutral,5,right,13,guess_choice,339,j,0,0,74,406817,674520
14,18,female,Belg,2,78,guess,neutral,5,right,13,guess_outcome,0,undefined,0,0,74,405258,676079
14,18,female,Belg,2,78,ITC,neutral,5,right,13,ITC_start,685,space,0,0,74,404570,676767
14,18,female,Belg,2,78,ITC,neutral,5,right,13,ITC_choice,601,f,0,0,74,403967,677370
14,18,female,Belg,2,78,ITC,neutral,5,right,13,ITC_wait,0,undefined,0,0,74,403963,677374
14,18,female,Belg,2,78,ITC,neutral,5,right,13,ITC_collect,269,k,0,0,74,403692,677645
14,18,female,Belg,2,78,ITC,neutral,5,right,13,ITC_outcome,0,undefined,0,0,87,402688,678649
14,18,female,Belg,2,79,guess,neutral,5,left,14,guess_start,517,space,0,0,87,402168,679169
14,18,female,Belg,2,79,guess,neutral,5,left,14,guess_choice,571,j,0,0,87,401594,679743
14,18,female,Belg,2,79,guess,neutral,5,left,14,guess_outcome,0,undefined,0,0,87,400037,681300
14,18,female,Belg,2,79,ITC,neutral,5,left,14,ITC_start,462,space,0,0,87,399573,681764
14,18,female,Belg,2,79,ITC,neutral,5,left,14,ITC_choice,616,f,0,0,87,398954,682383
14,18,female,Belg,2,79,ITC,neutral,5,left,14,ITC_wait,0,undefined,0,0,87,393949,687388
14,18,female,Belg,2,79,ITC,neutral,5,left,14,ITC_collect,25,k,0,0,87,393921,687416
14,18,female,Belg,2,79,ITC,neutral,5,left,14,ITC_outcome,0,undefined,0,0,107,392916,688421
14,18,female,Belg,2,80,guess,win,5,left,10,guess_start,254,space,0,0,107,392659,688678
14,18,female,Belg,2,80,guess,win,5,left,10,guess_choice,735,j,0,0,107,391920,689417
14,18,female,Belg,2,80,guess,win,5,left,10,guess_outcome,0,undefined,0,0,127,390366,690971
14,18,female,Belg,2,80,ITC,win,5,left,10,ITC_start,629,space,0,0,127,389734,691603
14,18,female,Belg,2,80,ITC,win,5,left,10,ITC_choice,634,f,0,0,127,389098,692239
14,18,female,Belg,2,80,ITC,win,5,left,10,ITC_wait,0,undefined,0,0,127,384095,697242
14,18,female,Belg,2,80,ITC,win,5,left,10,ITC_collect,277,k,0,0,127,383815,697522
14,18,female,Belg,2,80,ITC,win,5,left,10,ITC_outcome,0,undefined,0,0,147,382811,698526
14,18,female,Belg,2,81,guess,loss,5,left,8,guess_start,1265,space,0,0,147,381542,699795
14,18,female,Belg,2,81,guess,loss,5,left,8,guess_choice,910,j,0,0,147,380628,700709
14,18,female,Belg,2,81,guess,loss,5,left,8,guess_outcome,0,undefined,0,0,132,379074,702263
14,18,female,Belg,2,81,ITC,loss,5,left,8,ITC_start,586,space,0,0,132,378486,702851
14,18,female,Belg,2,81,ITC,loss,5,left,8,ITC_choice,776,j,0,0,132,377707,703630
14,18,female,Belg,2,81,ITC,loss,5,left,8,ITC_wait,0,undefined,0,0,132,377703,703634
14,18,female,Belg,2,81,ITC,loss,5,left,8,ITC_collect,1443,k,0,0,132,376259,705078
14,18,female,Belg,2,81,ITC,loss,5,left,8,ITC_outcome,0,undefined,0,0,140,375251,706086
14,18,female,Belg,2,82,guess,loss,5,right,13,guess_start,3848,space,0,0,140,371400,709937
14,18,female,Belg,2,82,guess,loss,5,right,13,guess_choice,2824,f,0,0,140,368572,712765
14,18,female,Belg,2,82,guess,loss,5,right,13,guess_outcome,0,undefined,0,0,125,367014,714323
14,18,female,Belg,2,82,ITC,loss,5,right,13,ITC_start,1593,space,0,0,125,365418,715919
14,18,female,Belg,2,82,ITC,loss,5,right,13,ITC_choice,1983,f,0,0,125,363433,717904
14,18,female,Belg,2,82,ITC,loss,5,right,13,ITC_wait,0,undefined,0,0,125,363429,717908
14,18,female,Belg,2,82,ITC,loss,5,right,13,ITC_collect,407,k,0,0,125,363020,718317
14,18,female,Belg,2,82,ITC,loss,5,right,13,ITC_outcome,0,undefined,0,0,138,362014,719323
14,18,female,Belg,2,83,guess,win,10,left,4,guess_start,762,space,0,0,138,361249,720088
14,18,female,Belg,2,83,guess,win,10,left,4,guess_choice,631,j,0,0,138,360614,720723
14,18,female,Belg,2,83,guess,win,10,left,4,guess_outcome,0,undefined,0,0,158,359055,722282
14,18,female,Belg,2,83,ITC,win,10,left,4,ITC_start,663,space,0,0,158,358389,722948
14,18,female,Belg,2,83,ITC,win,10,left,4,ITC_choice,791,j,0,0,158,357596,723741
14,18,female,Belg,2,83,ITC,win,10,left,4,ITC_wait,0,undefined,0,0,158,357593,723744
14,18,female,Belg,2,83,ITC,win,10,left,4,ITC_collect,195,k,0,0,158,357396,723941
14,18,female,Belg,2,83,ITC,win,10,left,4,ITC_outcome,0,undefined,0,0,162,356390,724947
14,18,female,Belg,2,84,guess,win,5,right,4,guess_start,70,space,0,0,162,356317,725020
14,18,female,Belg,2,84,guess,win,5,right,4,guess_choice,574,j,0,0,162,355739,725598
14,18,female,Belg,2,84,guess,win,5,right,4,guess_outcome,0,undefined,0,0,182,354181,727156
14,18,female,Belg,2,84,ITC,win,5,right,4,ITC_start,826,space,0,0,182,353352,727985
14,18,female,Belg,2,84,ITC,win,5,right,4,ITC_choice,753,j,0,0,182,352597,728740
14,18,female,Belg,2,84,ITC,win,5,right,4,ITC_wait,0,undefined,0,0,182,347593,733744
14,18,female,Belg,2,84,ITC,win,5,right,4,ITC_collect,341,k,0,0,182,347249,734088
14,18,female,Belg,2,84,ITC,win,5,right,4,ITC_outcome,0,undefined,0,0,202,346244,735093
14,18,female,Belg,2,85,guess,loss,10,right,3,guess_start,1559,space,0,0,202,344681,736656
14,18,female,Belg,2,85,guess,loss,10,right,3,guess_choice,915,f,0,0,202,343762,737575
14,18,female,Belg,2,85,guess,loss,10,right,3,guess_outcome,0,undefined,0,0,187,342206,739131
14,18,female,Belg,2,85,ITC,loss,10,right,3,ITC_start,511,space,0,0,187,341692,739645
14,18,female,Belg,2,85,ITC,loss,10,right,3,ITC_choice,1975,f,0,0,187,339715,741622
14,18,female,Belg,2,85,ITC,loss,10,right,3,ITC_wait,0,undefined,0,0,187,339712,741625
14,18,female,Belg,2,85,ITC,loss,10,right,3,ITC_collect,1074,k,0,0,187,338637,742700
14,18,female,Belg,2,85,ITC,loss,10,right,3,ITC_outcome,0,undefined,0,0,190,337632,743705
14,18,female,Belg,2,86,guess,neutral,5,left,8,guess_start,1125,space,0,0,190,336505,744832
14,18,female,Belg,2,86,guess,neutral,5,left,8,guess_choice,593,f,0,0,190,335908,745429
14,18,female,Belg,2,86,guess,neutral,5,left,8,guess_outcome,0,undefined,0,0,190,334348,746989
14,18,female,Belg,2,86,ITC,neutral,5,left,8,ITC_start,419,space,0,0,190,333927,747410
14,18,female,Belg,2,86,ITC,neutral,5,left,8,ITC_choice,813,j,0,0,190,333111,748226
14,18,female,Belg,2,86,ITC,neutral,5,left,8,ITC_wait,0,undefined,0,0,190,333107,748230
14,18,female,Belg,2,86,ITC,neutral,5,left,8,ITC_collect,334,k,0,0,190,332772,748565
14,18,female,Belg,2,86,ITC,neutral,5,left,8,ITC_outcome,0,undefined,0,0,198,331764,749573
14,18,female,Belg,2,87,guess,loss,10,left,4,guess_start,1284,space,0,0,198,330477,750860
14,18,female,Belg,2,87,guess,loss,10,left,4,guess_choice,1318,j,0,0,198,329155,752182
14,18,female,Belg,2,87,guess,loss,10,left,4,guess_outcome,0,undefined,0,0,183,327595,753742
14,18,female,Belg,2,87,ITC,loss,10,left,4,ITC_start,1011,space,0,0,183,326580,754757
14,18,female,Belg,2,87,ITC,loss,10,left,4,ITC_choice,823,j,0,0,183,325754,755583
14,18,female,Belg,2,87,ITC,loss,10,left,4,ITC_wait,0,undefined,0,0,183,325751,755586
14,18,female,Belg,2,87,ITC,loss,10,left,4,ITC_collect,165,k,0,0,183,325585,755752
14,18,female,Belg,2,87,ITC,loss,10,left,4,ITC_outcome,0,undefined,0,0,187,324577,756760
14,18,female,Belg,2,88,guess,loss,5,left,5,guess_start,829,space,0,0,187,323745,757592
14,18,female,Belg,2,88,guess,loss,5,left,5,guess_choice,238,f,0,0,187,323503,757834
14,18,female,Belg,2,88,guess,loss,5,left,5,guess_outcome,0,undefined,0,0,172,321946,759391
14,18,female,Belg,2,88,ITC,loss,5,left,5,ITC_start,1023,space,0,0,172,320920,760417
14,18,female,Belg,2,88,ITC,loss,5,left,5,ITC_choice,2018,f,0,0,172,318900,762437
14,18,female,Belg,2,88,ITC,loss,5,left,5,ITC_wait,0,undefined,0,0,172,313892,767445
14,18,female,Belg,2,88,ITC,loss,5,left,5,ITC_collect,2303,k,0,0,172,311586,769751
14,18,female,Belg,2,88,ITC,loss,5,left,5,ITC_outcome,0,undefined,0,0,192,310578,770759
14,18,female,Belg,2,89,guess,neutral,10,right,6,guess_start,978,space,0,0,192,309597,771740
14,18,female,Belg,2,89,guess,neutral,10,right,6,guess_choice,1192,j,0,0,192,308400,772937
14,18,female,Belg,2,89,guess,neutral,10,right,6,guess_outcome,0,undefined,0,0,192,306845,774492
14,18,female,Belg,2,89,ITC,neutral,10,right,6,ITC_start,801,space,0,0,192,306042,775295
14,18,female,Belg,2,89,ITC,neutral,10,right,6,ITC_choice,851,j,0,0,192,305189,776148
14,18,female,Belg,2,89,ITC,neutral,10,right,6,ITC_wait,0,undefined,0,0,192,295181,786156
14,18,female,Belg,2,89,ITC,neutral,10,right,6,ITC_collect,357,k,0,0,192,294821,786516
14,18,female,Belg,2,89,ITC,neutral,10,right,6,ITC_outcome,0,undefined,0,0,212,293813,787524
14,18,female,Belg,2,90,guess,neutral,5,left,9,guess_start,675,space,0,0,212,293135,788202
14,18,female,Belg,2,90,guess,neutral,5,left,9,guess_choice,1120,j,0,0,212,292010,789327
14,18,female,Belg,2,90,guess,neutral,5,left,9,guess_outcome,0,undefined,0,0,212,290451,790886
14,18,female,Belg,2,90,ITC,neutral,5,left,9,ITC_start,759,space,0,0,212,289690,791647
14,18,female,Belg,2,90,ITC,neutral,5,left,9,ITC_choice,907,f,0,0,212,288780,792557
14,18,female,Belg,2,90,ITC,neutral,5,left,9,ITC_wait,0,undefined,0,0,212,283773,797564
14,18,female,Belg,2,90,ITC,neutral,5,left,9,ITC_collect,551,k,0,0,212,283219,798118
14,18,female,Belg,2,90,ITC,neutral,5,left,9,ITC_outcome,0,undefined,0,0,232,282211,799126
14,18,female,Belg,2,91,guess,loss,10,right,2,guess_start,1025,space,0,0,232,281183,800154
14,18,female,Belg,2,91,guess,loss,10,right,2,guess_choice,729,j,0,0,232,280450,800887
14,18,female,Belg,2,91,guess,loss,10,right,2,guess_outcome,0,undefined,0,0,217,278891,802446
14,18,female,Belg,2,91,ITC,loss,10,right,2,ITC_start,452,space,0,0,217,278435,802902
14,18,female,Belg,2,91,ITC,loss,10,right,2,ITC_choice,906,f,0,0,217,277527,803810
14,18,female,Belg,2,91,ITC,loss,10,right,2,ITC_collect,47,k,0,0,217,277475,803862
14,18,female,Belg,2,91,ITC,loss,10,right,2,ITC_wait,0,undefined,0,0,217,277523,803814
14,18,female,Belg,2,91,ITC,loss,10,right,2,ITC_outcome,0,undefined,0,0,219,276467,804870
14,18,female,Belg,2,92,guess,loss,10,left,5,guess_start,575,space,0,0,219,275889,805448
14,18,female,Belg,2,92,guess,loss,10,left,5,guess_choice,625,f,0,0,219,275259,806078
14,18,female,Belg,2,92,guess,loss,10,left,5,guess_outcome,0,undefined,0,0,204,273700,807637
14,18,female,Belg,2,92,ITC,loss,10,left,5,ITC_start,161,space,0,0,204,273536,807801
14,18,female,Belg,2,92,ITC,loss,10,left,5,ITC_choice,622,j,0,0,204,272911,808426
14,18,female,Belg,2,92,ITC,loss,10,left,5,ITC_wait,0,undefined,0,0,204,272908,808429
14,18,female,Belg,2,92,ITC,loss,10,left,5,ITC_collect,169,k,0,0,204,272737,808600
14,18,female,Belg,2,92,ITC,loss,10,left,5,ITC_outcome,0,undefined,0,0,209,271731,809606
14,18,female,Belg,2,93,guess,win,10,left,8,guess_start,552,space,0,0,209,271176,810161
14,18,female,Belg,2,93,guess,win,10,left,8,guess_choice,407,f,0,0,209,270764,810573
14,18,female,Belg,2,93,guess,win,10,left,8,guess_outcome,0,undefined,0,0,229,269209,812128
14,18,female,Belg,2,93,ITC,win,10,left,8,ITC_start,516,space,0,0,229,268690,812647
14,18,female,Belg,2,93,ITC,win,10,left,8,ITC_choice,570,j,0,0,229,268117,813220
14,18,female,Belg,2,93,ITC,win,10,left,8,ITC_wait,0,undefined,0,0,229,268114,813223
14,18,female,Belg,2,93,ITC,win,10,left,8,ITC_collect,197,k,0,0,229,267916,813421
14,18,female,Belg,2,93,ITC,win,10,left,8,ITC_outcome,0,undefined,0,0,237,266907,814430
14,18,female,Belg,2,94,guess,win,5,right,1,guess_start,444,space,0,0,237,266460,814877
14,18,female,Belg,2,94,guess,win,5,right,1,guess_choice,410,j,0,0,237,266046,815291
14,18,female,Belg,2,94,guess,win,5,right,1,guess_outcome,0,undefined,0,0,257,264488,816849
14,18,female,Belg,2,94,ITC,win,5,right,1,ITC_start,181,space,0,0,257,264304,817033
14,18,female,Belg,2,94,ITC,win,5,right,1,ITC_choice,621,f,0,0,257,263680,817657
14,18,female,Belg,2,94,ITC,win,5,right,1,ITC_wait,0,undefined,0,0,257,263677,817660
14,18,female,Belg,2,94,ITC,win,5,right,1,ITC_collect,421,k,0,0,257,263255,818082
14,18,female,Belg,2,94,ITC,win,5,right,1,ITC_outcome,0,undefined,0,0,258,262247,819090
14,18,female,Belg,2,95,guess,win,5,left,8,guess_start,330,space,0,0,258,261914,819423
14,18,female,Belg,2,95,guess,win,5,left,8,guess_choice,270,j,0,0,258,261640,819697
14,18,female,Belg,2,95,guess,win,5,left,8,guess_outcome,0,undefined,0,0,278,260081,821256
14,18,female,Belg,2,95,ITC,win,5,left,8,ITC_start,269,space,0,0,278,259809,821528
14,18,female,Belg,2,95,ITC,win,5,left,8,ITC_choice,804,j,0,0,278,259003,822334
14,18,female,Belg,2,95,ITC,win,5,left,8,ITC_wait,0,undefined,0,0,278,258999,822338
14,18,female,Belg,2,95,ITC,win,5,left,8,ITC_collect,179,k,0,0,278,258819,822518
14,18,female,Belg,2,95,ITC,win,5,left,8,ITC_outcome,0,undefined,0,0,286,257812,823525
14,18,female,Belg,2,96,guess,win,5,right,5,guess_start,420,space,0,0,286,257390,823947
14,18,female,Belg,2,96,guess,win,5,right,5,guess_choice,216,f,0,0,286,257170,824167
14,18,female,Belg,2,96,guess,win,5,right,5,guess_outcome,0,undefined,0,0,306,255615,825722
14,18,female,Belg,2,96,ITC,win,5,right,5,ITC_start,261,space,0,0,306,255351,825986
14,18,female,Belg,2,96,ITC,win,5,right,5,ITC_choice,521,f,0,0,306,254828,826509
14,18,female,Belg,2,96,ITC,win,5,right,5,ITC_wait,0,undefined,0,0,306,254824,826513
14,18,female,Belg,2,96,ITC,win,5,right,5,ITC_collect,302,k,0,0,306,254521,826816
14,18,female,Belg,2,96,ITC,win,5,right,5,ITC_outcome,0,undefined,0,0,311,253515,827822
14,18,female,Belg,2,97,guess,loss,10,left,1,guess_start,530,space,0,0,311,252982,828355
14,18,female,Belg,2,97,guess,loss,10,left,1,guess_choice,225,f,0,0,311,252753,828584
14,18,female,Belg,2,97,guess,loss,10,left,1,guess_outcome,0,undefined,0,0,296,251194,830143
14,18,female,Belg,2,97,ITC,loss,10,left,1,ITC_start,328,space,0,0,296,250864,830473
14,18,female,Belg,2,97,ITC,loss,10,left,1,ITC_choice,508,j,0,0,296,250353,830984
14,18,female,Belg,2,97,ITC,loss,10,left,1,ITC_wait,0,undefined,0,0,296,250350,830987
14,18,female,Belg,2,97,ITC,loss,10,left,1,ITC_collect,134,k,0,0,296,250215,831122
14,18,female,Belg,2,97,ITC,loss,10,left,1,ITC_outcome,0,undefined,0,0,297,249210,832127
14,18,female,Belg,2,98,guess,win,5,left,11,guess_start,420,space,0,0,297,248786,832551
14,18,female,Belg,2,98,guess,win,5,left,11,guess_choice,184,j,0,0,297,248598,832739
14,18,female,Belg,2,98,guess,win,5,left,11,guess_outcome,0,undefined,0,0,317,247039,834298
14,18,female,Belg,2,98,ITC,win,5,left,11,ITC_start,323,space,0,0,317,246713,834624
14,18,female,Belg,2,98,ITC,win,5,left,11,ITC_choice,747,f,0,0,317,245964,835373
14,18,female,Belg,2,98,ITC,win,5,left,11,ITC_wait,0,undefined,0,0,317,240959,840378
14,18,female,Belg,2,98,ITC,win,5,left,11,ITC_collect,104,k,0,0,317,240852,840485
14,18,female,Belg,2,98,ITC,win,5,left,11,ITC_outcome,0,undefined,0,0,337,239846,841491
14,18,female,Belg,2,99,guess,win,5,right,16,guess_start,209,space,0,0,337,239633,841704
14,18,female,Belg,2,99,guess,win,5,right,16,guess_choice,340,j,0,0,337,239289,842048
14,18,female,Belg,2,99,guess,win,5,right,16,guess_outcome,0,undefined,0,0,357,237732,843605
14,18,female,Belg,2,99,ITC,win,5,right,16,ITC_start,61,space,0,0,357,237668,843669
14,18,female,Belg,2,99,ITC,win,5,right,16,ITC_choice,700,j,0,0,357,236965,844372
14,18,female,Belg,2,99,ITC,win,5,right,16,ITC_wait,0,undefined,0,0,357,231958,849379
14,18,female,Belg,2,99,ITC,win,5,right,16,ITC_collect,62,k,0,0,357,231893,849444
14,18,female,Belg,2,99,ITC,win,5,right,16,ITC_outcome,0,undefined,0,0,377,230886,850451
14,18,female,Belg,2,100,guess,neutral,5,right,2,guess_start,324,space,0,0,377,230559,850778
14,18,female,Belg,2,100,guess,neutral,5,right,2,guess_choice,830,f,0,0,377,229724,851613
14,18,female,Belg,2,100,guess,neutral,5,right,2,guess_outcome,0,undefined,0,0,377,228165,853172
14,18,female,Belg,2,100,ITC,neutral,5,right,2,ITC_start,473,space,0,0,377,227689,853648
14,18,female,Belg,2,100,ITC,neutral,5,right,2,ITC_choice,677,f,0,0,377,227010,854327
14,18,female,Belg,2,100,ITC,neutral,5,right,2,ITC_wait,0,undefined,0,0,377,227006,854331
14,18,female,Belg,2,100,ITC,neutral,5,right,2,ITC_collect,832,k,0,0,377,226172,855165
14,18,female,Belg,2,100,ITC,neutral,5,right,2,ITC_outcome,0,undefined,0,0,379,225164,856173
14,18,female,Belg,2,101,guess,win,10,left,6,guess_start,333,space,0,0,379,224828,856509
14,18,female,Belg,2,101,guess,win,10,left,6,guess_choice,658,j,0,0,379,224166,857171
14,18,female,Belg,2,101,guess,win,10,left,6,guess_outcome,0,undefined,0,0,399,222607,858730
14,18,female,Belg,2,101,ITC,win,10,left,6,ITC_start,408,space,0,0,399,222196,859141
14,18,female,Belg,2,101,ITC,win,10,left,6,ITC_choice,491,j,0,0,399,221702,859635
14,18,female,Belg,2,101,ITC,win,10,left,6,ITC_wait,0,undefined,0,0,399,221699,859638
14,18,female,Belg,2,101,ITC,win,10,left,6,ITC_collect,195,k,0,0,399,221503,859834
14,18,female,Belg,2,101,ITC,win,10,left,6,ITC_outcome,0,undefined,0,0,405,220496,860841
14,18,female,Belg,2,102,guess,win,10,right,1,guess_start,249,space,0,0,405,220243,861094
14,18,female,Belg,2,102,guess,win,10,right,1,guess_choice,272,f,0,0,405,219967,861370
14,18,female,Belg,2,102,guess,win,10,right,1,guess_outcome,0,undefined,0,0,425,218411,862926
14,18,female,Belg,2,102,ITC,win,10,right,1,ITC_start,219,space,0,0,425,218189,863148
14,18,female,Belg,2,102,ITC,win,10,right,1,ITC_choice,508,f,0,0,425,217678,863659
14,18,female,Belg,2,102,ITC,win,10,right,1,ITC_wait,0,undefined,0,0,425,217674,863663
14,18,female,Belg,2,102,ITC,win,10,right,1,ITC_collect,388,k,0,0,425,217286,864051
14,18,female,Belg,2,102,ITC,win,10,right,1,ITC_outcome,0,undefined,0,0,426,216279,865058
14,18,female,Belg,2,103,guess,neutral,5,right,12,guess_start,375,space,0,0,426,215901,865436
14,18,female,Belg,2,103,guess,neutral,5,right,12,guess_choice,1809,f,0,0,426,214087,867250
14,18,female,Belg,2,103,guess,neutral,5,right,12,guess_outcome,0,undefined,0,0,426,212533,868804
14,18,female,Belg,2,103,ITC,neutral,5,right,12,ITC_start,627,space,0,0,426,211903,869434
14,18,female,Belg,2,103,ITC,neutral,5,right,12,ITC_choice,692,f,0,0,426,211208,870129
14,18,female,Belg,2,103,ITC,neutral,5,right,12,ITC_wait,0,undefined,0,0,426,211204,870133
14,18,female,Belg,2,103,ITC,neutral,5,right,12,ITC_collect,156,k,0,0,426,211047,870290
14,18,female,Belg,2,103,ITC,neutral,5,right,12,ITC_outcome,0,undefined,0,0,438,210043,871294
14,18,female,Belg,2,104,guess,loss,5,right,1,guess_start,137,space,0,0,438,209903,871434
14,18,female,Belg,2,104,guess,loss,5,right,1,guess_choice,495,j,0,0,438,209404,871933
14,18,female,Belg,2,104,guess,loss,5,right,1,guess_outcome,0,undefined,0,0,423,207846,873491
14,18,female,Belg,2,104,ITC,loss,5,right,1,ITC_start,304,space,0,0,423,207539,873798
14,18,female,Belg,2,104,ITC,loss,5,right,1,ITC_wait,0,undefined,0,0,423,207049,874288
14,18,female,Belg,2,104,ITC,loss,5,right,1,ITC_choice,483,f,0,0,423,207053,874284
14,18,female,Belg,2,104,ITC,loss,5,right,1,ITC_collect,157,k,0,0,423,206891,874446
14,18,female,Belg,2,104,ITC,loss,5,right,1,ITC_outcome,0,undefined,0,0,424,205886,875451
14,18,female,Belg,2,105,guess,loss,5,right,9,guess_start,528,space,0,0,424,205355,875982
14,18,female,Belg,2,105,guess,loss,5,right,9,guess_choice,223,j,0,0,424,205128,876209
14,18,female,Belg,2,105,guess,loss,5,right,9,guess_outcome,0,undefined,0,0,409,203569,877768
14,18,female,Belg,2,105,ITC,loss,5,right,9,ITC_start,32,space,0,0,409,203535,877802
14,18,female,Belg,2,105,ITC,loss,5,right,9,ITC_choice,575,f,0,0,409,202958,878379
14,18,female,Belg,2,105,ITC,loss,5,right,9,ITC_wait,0,undefined,0,0,409,202954,878383
14,18,female,Belg,2,105,ITC,loss,5,right,9,ITC_collect,268,k,0,0,409,202684,878653
14,18,female,Belg,2,105,ITC,loss,5,right,9,ITC_outcome,0,undefined,0,0,418,201679,879658
14,18,female,Belg,2,106,guess,neutral,10,left,3,guess_start,445,space,0,0,418,201231,880106
14,18,female,Belg,2,106,guess,neutral,10,left,3,guess_choice,1096,j,0,0,418,200131,881206
14,18,female,Belg,2,106,guess,neutral,10,left,3,guess_outcome,0,undefined,0,0,418,198572,882765
14,18,female,Belg,2,106,ITC,neutral,10,left,3,ITC_start,654,space,0,0,418,197915,883422
14,18,female,Belg,2,106,ITC,neutral,10,left,3,ITC_choice,745,j,0,0,418,197167,884170
14,18,female,Belg,2,106,ITC,neutral,10,left,3,ITC_wait,0,undefined,0,0,418,197164,884173
14,18,female,Belg,2,106,ITC,neutral,10,left,3,ITC_collect,136,k,0,0,418,197026,884311
14,18,female,Belg,2,106,ITC,neutral,10,left,3,ITC_outcome,0,undefined,0,0,421,196022,885315
14,18,female,Belg,2,107,guess,win,5,left,13,guess_start,403,space,0,0,421,195616,885721
14,18,female,Belg,2,107,guess,win,5,left,13,guess_choice,482,j,0,0,421,195130,886207
14,18,female,Belg,2,107,guess,win,5,left,13,guess_outcome,0,undefined,0,0,441,193571,887766
14,18,female,Belg,2,107,ITC,win,5,left,13,ITC_start,366,space,0,0,441,193202,888135
14,18,female,Belg,2,107,ITC,win,5,left,13,ITC_choice,546,j,0,0,441,192653,888684
14,18,female,Belg,2,107,ITC,win,5,left,13,ITC_wait,0,undefined,0,0,441,192649,888688
14,18,female,Belg,2,107,ITC,win,5,left,13,ITC_collect,215,k,0,0,441,192433,888904
14,18,female,Belg,2,107,ITC,win,5,left,13,ITC_outcome,0,undefined,0,0,454,191430,889907
14,18,female,Belg,2,108,guess,loss,5,right,14,guess_start,253,space,0,0,454,191174,890163
14,18,female,Belg,2,108,guess,loss,5,right,14,guess_choice,502,f,0,0,454,190668,890669
14,18,female,Belg,2,108,guess,loss,5,right,14,guess_outcome,0,undefined,0,0,439,189109,892228
14,18,female,Belg,2,108,ITC,loss,5,right,14,ITC_start,3,space,0,0,439,189103,892234
14,18,female,Belg,2,108,ITC,loss,5,right,14,ITC_wait,0,undefined,0,0,439,188599,892738
14,18,female,Belg,2,108,ITC,loss,5,right,14,ITC_choice,498,f,0,0,439,188603,892734
14,18,female,Belg,2,108,ITC,loss,5,right,14,ITC_collect,146,k,0,0,439,188453,892884
14,18,female,Belg,2,108,ITC,loss,5,right,14,ITC_outcome,0,undefined,0,0,453,187446,893891
14,18,female,Belg,2,109,guess,neutral,5,right,15,guess_start,361,space,0,0,453,187082,894255
14,18,female,Belg,2,109,guess,neutral,5,right,15,guess_choice,1132,f,0,0,453,185946,895391
14,18,female,Belg,2,109,guess,neutral,5,right,15,guess_outcome,0,undefined,0,0,453,184387,896950
14,18,female,Belg,2,109,ITC,neutral,5,right,15,ITC_start,434,space,0,0,453,183950,897387
14,18,female,Belg,2,109,ITC,neutral,5,right,15,ITC_choice,493,f,0,0,453,183454,897883
14,18,female,Belg,2,109,ITC,neutral,5,right,15,ITC_wait,0,undefined,0,0,453,183450,897887
14,18,female,Belg,2,109,ITC,neutral,5,right,15,ITC_collect,228,k,0,0,453,183221,898116
14,18,female,Belg,2,109,ITC,neutral,5,right,15,ITC_outcome,0,undefined,0,0,468,182214,899123
14,18,female,Belg,2,110,guess,neutral,10,right,2,guess_start,462,space,0,0,468,181749,899588
14,18,female,Belg,2,110,guess,neutral,10,right,2,guess_choice,1080,j,0,0,468,180665,900672
14,18,female,Belg,2,110,guess,neutral,10,right,2,guess_outcome,0,undefined,0,0,468,179108,902229
14,18,female,Belg,2,110,ITC,neutral,10,right,2,ITC_start,888,space,0,0,468,178217,903120
14,18,female,Belg,2,110,ITC,neutral,10,right,2,ITC_choice,955,f,0,0,468,177259,904078
14,18,female,Belg,2,110,ITC,neutral,10,right,2,ITC_wait,0,undefined,0,0,468,177255,904082
14,18,female,Belg,2,110,ITC,neutral,10,right,2,ITC_collect,106,k,0,0,468,177148,904189
14,18,female,Belg,2,110,ITC,neutral,10,right,2,ITC_outcome,0,undefined,0,0,470,176141,905196
14,18,female,Belg,2,111,guess,neutral,10,left,1,guess_start,333,space,0,0,470,175804,905533
14,18,female,Belg,2,111,guess,neutral,10,left,1,guess_choice,781,f,0,0,470,175019,906318
14,18,female,Belg,2,111,guess,neutral,10,left,1,guess_outcome,0,undefined,0,0,470,173460,907877
14,18,female,Belg,2,111,ITC,neutral,10,left,1,ITC_start,459,space,0,0,470,172998,908339
14,18,female,Belg,2,111,ITC,neutral,10,left,1,ITC_choice,466,j,0,0,470,172529,908808
14,18,female,Belg,2,111,ITC,neutral,10,left,1,ITC_wait,0,undefined,0,0,470,172525,908812
14,18,female,Belg,2,111,ITC,neutral,10,left,1,ITC_collect,283,k,0,0,470,172242,909095
14,18,female,Belg,2,111,ITC,neutral,10,left,1,ITC_outcome,0,undefined,0,0,471,171234,910103
14,18,female,Belg,2,112,guess,loss,5,right,2,guess_start,262,space,0,0,471,170968,910369
14,18,female,Belg,2,112,guess,loss,5,right,2,guess_choice,549,j,0,0,471,170415,910922
14,18,female,Belg,2,112,guess,loss,5,right,2,guess_outcome,0,undefined,0,0,456,168857,912480
14,18,female,Belg,2,112,ITC,loss,5,right,2,ITC_start,218,space,0,0,456,168636,912701
14,18,female,Belg,2,112,ITC,loss,5,right,2,ITC_choice,356,j,0,0,456,168277,913060
14,18,female,Belg,2,112,ITC,loss,5,right,2,ITC_wait,0,undefined,0,0,456,163270,918067
14,18,female,Belg,2,112,ITC,loss,5,right,2,ITC_collect,290,k,0,0,456,162977,918360
14,18,female,Belg,2,112,ITC,loss,5,right,2,ITC_outcome,0,undefined,0,0,476,161971,919366
14,18,female,Belg,2,113,guess,loss,5,right,12,guess_start,686,space,0,0,476,161282,920055
14,18,female,Belg,2,113,guess,loss,5,right,12,guess_choice,523,j,0,0,476,160755,920582
14,18,female,Belg,2,113,guess,loss,5,right,12,guess_outcome,0,undefined,0,0,461,159195,922142
14,18,female,Belg,2,113,ITC,loss,5,right,12,ITC_start,267,space,0,0,461,158925,922412
14,18,female,Belg,2,113,ITC,loss,5,right,12,ITC_choice,581,f,0,0,461,158342,922995
14,18,female,Belg,2,113,ITC,loss,5,right,12,ITC_wait,0,undefined,0,0,461,158338,922999
14,18,female,Belg,2,113,ITC,loss,5,right,12,ITC_collect,642,k,0,0,461,157694,923643
14,18,female,Belg,2,113,ITC,loss,5,right,12,ITC_outcome,0,undefined,0,0,473,156689,924648
14,18,female,Belg,2,114,guess,loss,5,right,11,guess_start,305,space,0,0,473,156380,924957
14,18,female,Belg,2,114,guess,loss,5,right,11,guess_choice,574,j,0,0,473,155802,925535
14,18,female,Belg,2,114,guess,loss,5,right,11,guess_outcome,0,undefined,0,0,458,154246,927091
14,18,female,Belg,2,114,ITC,loss,5,right,11,ITC_start,17,space,0,0,458,154227,927110
14,18,female,Belg,2,114,ITC,loss,5,right,11,ITC_choice,499,j,0,0,458,153725,927612
14,18,female,Belg,2,114,ITC,loss,5,right,11,ITC_wait,0,undefined,0,0,458,148717,932620
14,18,female,Belg,2,114,ITC,loss,5,right,11,ITC_collect,247,k,0,0,458,148467,932870
14,18,female,Belg,2,114,ITC,loss,5,right,11,ITC_outcome,0,undefined,0,0,478,147460,933877
14,18,female,Belg,2,115,guess,neutral,10,left,5,guess_start,136,space,0,0,478,147320,934017
14,18,female,Belg,2,115,guess,neutral,10,left,5,guess_choice,643,j,0,0,478,146673,934664
14,18,female,Belg,2,115,guess,neutral,10,left,5,guess_outcome,0,undefined,0,0,478,145113,936224
14,18,female,Belg,2,115,ITC,neutral,10,left,5,ITC_start,415,space,0,0,478,144696,936641
14,18,female,Belg,2,115,ITC,neutral,10,left,5,ITC_choice,643,j,0,0,478,144050,937287
14,18,female,Belg,2,115,ITC,neutral,10,left,5,ITC_wait,0,undefined,0,0,478,144046,937291
14,18,female,Belg,2,115,ITC,neutral,10,left,5,ITC_collect,219,k,0,0,478,143825,937512
14,18,female,Belg,2,115,ITC,neutral,10,left,5,ITC_outcome,0,undefined,0,0,483,142817,938520
14,18,female,Belg,2,116,guess,neutral,10,right,4,guess_start,432,space,0,0,483,142382,938955
14,18,female,Belg,2,116,guess,neutral,10,right,4,guess_choice,602,f,0,0,483,141776,939561
14,18,female,Belg,2,116,guess,neutral,10,right,4,guess_outcome,0,undefined,0,0,483,140220,941117
14,18,female,Belg,2,116,ITC,neutral,10,right,4,ITC_start,313,space,0,0,483,139904,941433
14,18,female,Belg,2,116,ITC,neutral,10,right,4,ITC_choice,679,f,0,0,483,139223,942114
14,18,female,Belg,2,116,ITC,neutral,10,right,4,ITC_wait,0,undefined,0,0,483,139219,942118
14,18,female,Belg,2,116,ITC,neutral,10,right,4,ITC_collect,828,k,0,0,483,138389,942948
14,18,female,Belg,2,116,ITC,neutral,10,right,4,ITC_outcome,0,undefined,0,0,487,137384,943953
14,18,female,Belg,2,117,guess,neutral,5,left,3,guess_start,249,space,0,0,487,137132,944205
14,18,female,Belg,2,117,guess,neutral,5,left,3,guess_choice,852,f,0,0,487,136276,945061
14,18,female,Belg,2,117,guess,neutral,5,left,3,guess_outcome,0,undefined,0,0,487,134716,946621
14,18,female,Belg,2,117,ITC,neutral,5,left,3,ITC_start,287,space,0,0,487,134426,946911
14,18,female,Belg,2,117,ITC,neutral,5,left,3,ITC_choice,686,j,0,0,487,133738,947599
14,18,female,Belg,2,117,ITC,neutral,5,left,3,ITC_wait,0,undefined,0,0,487,133734,947603
14,18,female,Belg,2,117,ITC,neutral,5,left,3,ITC_collect,378,k,0,0,487,133355,947982
14,18,female,Belg,2,117,ITC,neutral,5,left,3,ITC_outcome,0,undefined,0,0,490,132347,948990
14,18,female,Belg,2,118,guess,neutral,5,left,11,guess_start,552,space,0,0,490,131792,949545
14,18,female,Belg,2,118,guess,neutral,5,left,11,guess_choice,625,j,0,0,490,131162,950175
14,18,female,Belg,2,118,guess,neutral,5,left,11,guess_outcome,0,undefined,0,0,490,129605,951732
14,18,female,Belg,2,118,ITC,neutral,5,left,11,ITC_start,467,space,0,0,490,129136,952201
14,18,female,Belg,2,118,ITC,neutral,5,left,11,ITC_choice,545,j,0,0,490,128588,952749
14,18,female,Belg,2,118,ITC,neutral,5,left,11,ITC_wait,0,undefined,0,0,490,128584,952753
14,18,female,Belg,2,118,ITC,neutral,5,left,11,ITC_collect,308,k,0,0,490,128275,953062
14,18,female,Belg,2,118,ITC,neutral,5,left,11,ITC_outcome,0,undefined,0,0,501,127267,954070
14,18,female,Belg,2,119,guess,loss,5,right,4,guess_start,168,space,0,0,501,127096,954241
14,18,female,Belg,2,119,guess,loss,5,right,4,guess_choice,604,j,0,0,501,126487,954850
14,18,female,Belg,2,119,guess,loss,5,right,4,guess_outcome,0,undefined,0,0,486,124930,956407
14,18,female,Belg,2,119,ITC,loss,5,right,4,ITC_start,1354,space,0,0,486,123574,957763
14,18,female,Belg,2,119,ITC,loss,5,right,4,ITC_choice,840,f,0,0,486,122731,958606
14,18,female,Belg,2,119,ITC,loss,5,right,4,ITC_wait,0,undefined,0,0,486,122727,958610
14,18,female,Belg,2,119,ITC,loss,5,right,4,ITC_collect,705,k,0,0,486,122021,959316
14,18,female,Belg,2,119,ITC,loss,5,right,4,ITC_outcome,0,undefined,0,0,490,121013,960324
14,18,female,Belg,2,120,guess,loss,10,right,8,guess_start,218,space,0,0,490,120791,960546
14,18,female,Belg,2,120,guess,loss,10,right,8,guess_choice,694,j,0,0,490,120092,961245
14,18,female,Belg,2,120,guess,loss,10,right,8,guess_outcome,0,undefined,0,0,475,118536,962801
14,18,female,Belg,2,120,ITC,loss,10,right,8,ITC_start,823,space,0,0,475,117710,963627
14,18,female,Belg,2,120,ITC,loss,10,right,8,ITC_choice,626,f,0,0,475,117081,964256
14,18,female,Belg,2,120,ITC,loss,10,right,8,ITC_wait,0,undefined,0,0,475,117077,964260
14,18,female,Belg,2,120,ITC,loss,10,right,8,ITC_collect,496,k,0,0,475,116579,964758
14,18,female,Belg,2,120,ITC,loss,10,right,8,ITC_outcome,0,undefined,0,0,483,115575,965762
14,18,female,Belg,2,121,guess,loss,5,right,7,guess_start,257,space,0,0,483,115314,966023
14,18,female,Belg,2,121,guess,loss,5,right,7,guess_choice,739,j,0,0,483,114571,966766
14,18,female,Belg,2,121,guess,loss,5,right,7,guess_outcome,0,undefined,0,0,468,113014,968323
14,18,female,Belg,2,121,ITC,loss,5,right,7,ITC_start,245,space,0,0,468,112767,968570
14,18,female,Belg,2,121,ITC,loss,5,right,7,ITC_choice,525,f,0,0,468,112239,969098
14,18,female,Belg,2,121,ITC,loss,5,right,7,ITC_wait,0,undefined,0,0,468,112236,969101
14,18,female,Belg,2,121,ITC,loss,5,right,7,ITC_collect,774,k,0,0,468,111461,969876
14,18,female,Belg,2,121,ITC,loss,5,right,7,ITC_outcome,0,undefined,0,0,475,110453,970884
14,18,female,Belg,2,122,guess,win,10,left,5,guess_start,77,space,0,0,475,110373,970964
14,18,female,Belg,2,122,guess,win,10,left,5,guess_choice,618,f,0,0,475,109750,971587
14,18,female,Belg,2,122,guess,win,10,left,5,guess_outcome,0,undefined,0,0,495,108191,973146
14,18,female,Belg,2,122,ITC,win,10,left,5,ITC_start,187,space,0,0,495,108001,973336
14,18,female,Belg,2,122,ITC,win,10,left,5,ITC_choice,555,j,0,0,495,107443,973894
14,18,female,Belg,2,122,ITC,win,10,left,5,ITC_wait,0,undefined,0,0,495,107439,973898
14,18,female,Belg,2,122,ITC,win,10,left,5,ITC_collect,230,k,0,0,495,107208,974129
14,18,female,Belg,2,122,ITC,win,10,left,5,ITC_outcome,0,undefined,0,0,500,106203,975134
14,18,female,Belg,2,123,guess,neutral,10,right,7,guess_start,566,space,0,0,500,105633,975704
14,18,female,Belg,2,123,guess,neutral,10,right,7,guess_choice,499,f,0,0,500,105130,976207
14,18,female,Belg,2,123,guess,neutral,10,right,7,guess_outcome,0,undefined,0,0,500,103574,977763
14,18,female,Belg,2,123,ITC,neutral,10,right,7,ITC_start,483,space,0,0,500,103089,978248
14,18,female,Belg,2,123,ITC,neutral,10,right,7,ITC_choice,809,f,0,0,500,102277,979060
14,18,female,Belg,2,123,ITC,neutral,10,right,7,ITC_wait,0,undefined,0,0,500,102274,979063
14,18,female,Belg,2,123,ITC,neutral,10,right,7,ITC_collect,476,k,0,0,500,101797,979540
14,18,female,Belg,2,123,ITC,neutral,10,right,7,ITC_outcome,0,undefined,0,0,507,100792,980545
14,18,female,Belg,2,124,guess,loss,5,right,15,guess_start,429,space,0,0,507,100360,980977
14,18,female,Belg,2,124,guess,loss,5,right,15,guess_choice,545,j,0,0,507,99811,981526
14,18,female,Belg,2,124,guess,loss,5,right,15,guess_outcome,0,undefined,0,0,492,98252,983085
14,18,female,Belg,2,124,ITC,loss,5,right,15,ITC_start,406,space,0,0,492,97843,983494
14,18,female,Belg,2,124,ITC,loss,5,right,15,ITC_choice,553,f,0,0,492,97287,984050
14,18,female,Belg,2,124,ITC,loss,5,right,15,ITC_wait,0,undefined,0,0,492,97283,984054
14,18,female,Belg,2,124,ITC,loss,5,right,15,ITC_collect,463,k,0,0,492,96818,984519
14,18,female,Belg,2,124,ITC,loss,5,right,15,ITC_outcome,0,undefined,0,0,507,95813,985524
14,18,female,Belg,2,125,guess,loss,5,left,16,guess_start,491,space,0,0,507,95319,986018
14,18,female,Belg,2,125,guess,loss,5,left,16,guess_choice,568,j,0,0,507,94746,986591
14,18,female,Belg,2,125,guess,loss,5,left,16,guess_outcome,0,undefined,0,0,492,93192,988145
14,18,female,Belg,2,125,ITC,loss,5,left,16,ITC_start,131,space,0,0,492,93058,988279
14,18,female,Belg,2,125,ITC,loss,5,left,16,ITC_choice,815,j,0,0,492,92241,989096
14,18,female,Belg,2,125,ITC,loss,5,left,16,ITC_wait,0,undefined,0,0,492,92237,989100
14,18,female,Belg,2,125,ITC,loss,5,left,16,ITC_collect,185,k,0,0,492,92052,989285
14,18,female,Belg,2,125,ITC,loss,5,left,16,ITC_outcome,0,undefined,0,0,508,91046,990291
14,18,female,Belg,2,126,guess,loss,5,left,3,guess_start,350,space,0,0,508,90693,990644
14,18,female,Belg,2,126,guess,loss,5,left,3,guess_choice,408,f,0,0,508,90281,991056
14,18,female,Belg,2,126,guess,loss,5,left,3,guess_outcome,0,undefined,0,0,493,88725,992612
14,18,female,Belg,2,126,ITC,loss,5,left,3,ITC_start,413,space,0,0,493,88309,993028
14,18,female,Belg,2,126,ITC,loss,5,left,3,ITC_choice,423,j,0,0,493,87883,993454
14,18,female,Belg,2,126,ITC,loss,5,left,3,ITC_wait,0,undefined,0,0,493,87880,993457
14,18,female,Belg,2,126,ITC,loss,5,left,3,ITC_collect,221,k,0,0,493,87657,993680
14,18,female,Belg,2,126,ITC,loss,5,left,3,ITC_outcome,0,undefined,0,0,496,86649,994688
14,18,female,Belg,2,127,guess,win,5,right,6,guess_start,363,space,0,0,496,86283,995054
14,18,female,Belg,2,127,guess,win,5,right,6,guess_choice,329,f,0,0,496,85950,995387
14,18,female,Belg,2,127,guess,win,5,right,6,guess_outcome,0,undefined,0,0,516,84395,996942
14,18,female,Belg,2,127,ITC,win,5,right,6,ITC_start,280,space,0,0,516,84112,997225
14,18,female,Belg,2,127,ITC,win,5,right,6,ITC_choice,562,f,0,0,516,83548,997789
14,18,female,Belg,2,127,ITC,win,5,right,6,ITC_wait,0,undefined,0,0,516,83544,997793
14,18,female,Belg,2,127,ITC,win,5,right,6,ITC_collect,270,k,0,0,516,83272,998065
14,18,female,Belg,2,127,ITC,win,5,right,6,ITC_outcome,0,undefined,0,0,522,82265,999072
14,18,female,Belg,2,128,guess,win,5,right,9,guess_start,632,space,0,0,522,81630,999707
14,18,female,Belg,2,128,guess,win,5,right,9,guess_choice,257,j,0,0,522,81369,999968
14,18,female,Belg,2,128,guess,win,5,right,9,guess_outcome,0,undefined,0,0,542,79814,1001523
14,18,female,Belg,2,128,ITC,win,5,right,9,ITC_start,346,space,0,0,542,79465,1001872
14,18,female,Belg,2,128,ITC,win,5,right,9,ITC_choice,716,j,0,0,542,78746,1002591
14,18,female,Belg,2,128,ITC,win,5,right,9,ITC_wait,0,undefined,0,0,542,73741,1007596
14,18,female,Belg,2,128,ITC,win,5,right,9,ITC_collect,246,k,0,0,542,73492,1007845
14,18,female,Belg,2,128,ITC,win,5,right,9,ITC_outcome,0,undefined,0,0,562,72484,1008853
14,18,female,Belg,2,129,guess,win,10,right,2,guess_start,315,space,0,0,562,72166,1009171
14,18,female,Belg,2,129,guess,win,10,right,2,guess_choice,432,f,0,0,562,71730,1009607
14,18,female,Belg,2,129,guess,win,10,right,2,guess_outcome,0,undefined,0,0,582,70170,1011167
14,18,female,Belg,2,129,ITC,win,10,right,2,ITC_start,435,space,0,0,582,69733,1011604
14,18,female,Belg,2,129,ITC,win,10,right,2,ITC_choice,545,f,0,0,582,69185,1012152
14,18,female,Belg,2,129,ITC,win,10,right,2,ITC_wait,0,undefined,0,0,582,69182,1012155
14,18,female,Belg,2,129,ITC,win,10,right,2,ITC_collect,315,k,0,0,582,68866,1012471
14,18,female,Belg,2,129,ITC,win,10,right,2,ITC_outcome,0,undefined,0,0,584,67859,1013478
14,18,female,Belg,2,130,guess,neutral,10,right,8,guess_start,320,space,0,0,584,67536,1013801
14,18,female,Belg,2,130,guess,neutral,10,right,8,guess_choice,572,f,0,0,584,66959,1014378
14,18,female,Belg,2,130,guess,neutral,10,right,8,guess_outcome,0,undefined,0,0,584,65400,1015937
14,18,female,Belg,2,130,ITC,neutral,10,right,8,ITC_start,450,space,0,0,584,64947,1016390
14,18,female,Belg,2,130,ITC,neutral,10,right,8,ITC_wait,0,undefined,0,0,584,64417,1016920
14,18,female,Belg,2,130,ITC,neutral,10,right,8,ITC_choice,524,f,0,0,584,64421,1016916
14,18,female,Belg,2,130,ITC,neutral,10,right,8,ITC_collect,347,k,0,0,584,64069,1017268
14,18,female,Belg,2,130,ITC,neutral,10,right,8,ITC_outcome,0,undefined,0,0,592,63062,1018275
14,18,female,Belg,2,131,guess,loss,10,left,7,guess_start,702,space,0,0,592,62356,1018981
14,18,female,Belg,2,131,guess,loss,10,left,7,guess_choice,531,f,0,0,592,61820,1019517
14,18,female,Belg,2,131,guess,loss,10,left,7,guess_outcome,0,undefined,0,0,577,60264,1021073
14,18,female,Belg,2,131,ITC,loss,10,left,7,ITC_start,211,space,0,0,577,60050,1021287
14,18,female,Belg,2,131,ITC,loss,10,left,7,ITC_choice,558,j,0,0,577,59490,1021847
14,18,female,Belg,2,131,ITC,loss,10,left,7,ITC_wait,0,undefined,0,0,577,59486,1021851
14,18,female,Belg,2,131,ITC,loss,10,left,7,ITC_collect,274,k,0,0,577,59211,1022126
14,18,female,Belg,2,131,ITC,loss,10,left,7,ITC_outcome,0,undefined,0,0,584,58203,1023134
14,18,female,Belg,2,132,guess,neutral,5,right,7,guess_start,88,space,0,0,584,58112,1023225
14,18,female,Belg,2,132,guess,neutral,5,right,7,guess_choice,530,j,0,0,584,57578,1023759
14,18,female,Belg,2,132,guess,neutral,5,right,7,guess_outcome,0,undefined,0,0,584,56019,1025318
14,18,female,Belg,2,132,ITC,neutral,5,right,7,ITC_start,561,space,0,0,584,55456,1025881
14,18,female,Belg,2,132,ITC,neutral,5,right,7,ITC_choice,859,f,0,0,584,54594,1026743
14,18,female,Belg,2,132,ITC,neutral,5,right,7,ITC_wait,0,undefined,0,0,584,54590,1026747
14,18,female,Belg,2,132,ITC,neutral,5,right,7,ITC_collect,119,k,0,0,584,54471,1026866
14,18,female,Belg,2,132,ITC,neutral,5,right,7,ITC_outcome,0,undefined,0,0,591,53465,1027872
14,18,female,Belg,2,133,guess,win,5,right,14,guess_start,409,space,0,0,591,53053,1028284
14,18,female,Belg,2,133,guess,win,5,right,14,guess_choice,609,j,0,0,591,52440,1028897
14,18,female,Belg,2,133,guess,win,5,right,14,guess_outcome,0,undefined,0,0,611,50881,1030456
14,18,female,Belg,2,133,ITC,win,5,right,14,ITC_start,0,space,0,0,611,50878,1030459
14,18,female,Belg,2,133,ITC,win,5,right,14,ITC_choice,636,j,0,0,611,50241,1031096
14,18,female,Belg,2,133,ITC,win,5,right,14,ITC_wait,0,undefined,0,0,611,45238,1036099
14,18,female,Belg,2,133,ITC,win,5,right,14,ITC_collect,49,k,0,0,611,45186,1036151
14,18,female,Belg,2,133,ITC,win,5,right,14,ITC_outcome,0,undefined,0,0,631,44180,1037157
14,18,female,Belg,2,134,guess,win,5,right,15,guess_start,562,space,0,0,631,43615,1037722
14,18,female,Belg,2,134,guess,win,5,right,15,guess_choice,547,f,0,0,631,43063,1038274
14,18,female,Belg,2,134,guess,win,5,right,15,guess_outcome,0,undefined,0,0,651,41506,1039831
14,18,female,Belg,2,134,ITC,win,5,right,15,ITC_start,316,space,0,0,651,41187,1040150
14,18,female,Belg,2,134,ITC,win,5,right,15,ITC_choice,479,f,0,0,651,40706,1040631
14,18,female,Belg,2,134,ITC,win,5,right,15,ITC_wait,0,undefined,0,0,651,40702,1040635
14,18,female,Belg,2,134,ITC,win,5,right,15,ITC_collect,335,k,0,0,651,40365,1040972
14,18,female,Belg,2,134,ITC,win,5,right,15,ITC_outcome,0,undefined,0,0,666,39356,1041981
14,18,female,Belg,2,135,guess,neutral,5,right,5,guess_start,480,space,0,0,666,38873,1042464
14,18,female,Belg,2,135,guess,neutral,5,right,5,guess_choice,1111,j,0,0,666,37758,1043579
14,18,female,Belg,2,135,guess,neutral,5,right,5,guess_outcome,0,undefined,0,0,666,36202,1045135
14,18,female,Belg,2,135,ITC,neutral,5,right,5,ITC_start,379,space,0,0,666,35821,1045516
14,18,female,Belg,2,135,ITC,neutral,5,right,5,ITC_choice,602,f,0,0,666,35216,1046121
14,18,female,Belg,2,135,ITC,neutral,5,right,5,ITC_wait,0,undefined,0,0,666,35212,1046125
14,18,female,Belg,2,135,ITC,neutral,5,right,5,ITC_collect,151,k,0,0,666,35060,1046277
14,18,female,Belg,2,135,ITC,neutral,5,right,5,ITC_outcome,0,undefined,0,0,671,34052,1047285
14,18,female,Belg,2,136,guess,win,10,right,3,guess_start,352,space,0,0,671,33697,1047640
14,18,female,Belg,2,136,guess,win,10,right,3,guess_choice,421,j,0,0,671,33271,1048066
14,18,female,Belg,2,136,guess,win,10,right,3,guess_outcome,0,undefined,0,0,691,31712,1049625
14,18,female,Belg,2,136,ITC,win,10,right,3,ITC_start,324,space,0,0,691,31385,1049952
14,18,female,Belg,2,136,ITC,win,10,right,3,ITC_choice,538,f,0,0,691,30844,1050493
14,18,female,Belg,2,136,ITC,win,10,right,3,ITC_wait,0,undefined,0,0,691,30840,1050497
14,18,female,Belg,2,136,ITC,win,10,right,3,ITC_collect,191,k,0,0,691,30647,1050690
14,18,female,Belg,2,136,ITC,win,10,right,3,ITC_outcome,0,undefined,0,0,694,29640,1051697
14,18,female,Belg,2,137,guess,win,5,left,3,guess_start,203,space,0,0,694,29432,1051905
14,18,female,Belg,2,137,guess,win,5,left,3,guess_choice,395,f,0,0,694,29033,1052304
14,18,female,Belg,2,137,guess,win,5,left,3,guess_outcome,0,undefined,0,0,714,27478,1053859
14,18,female,Belg,2,137,ITC,win,5,left,3,ITC_start,285,space,0,0,714,27191,1054146
14,18,female,Belg,2,137,ITC,win,5,left,3,ITC_choice,619,j,0,0,714,26569,1054768
14,18,female,Belg,2,137,ITC,win,5,left,3,ITC_wait,0,undefined,0,0,714,26565,1054772
14,18,female,Belg,2,137,ITC,win,5,left,3,ITC_collect,263,k,0,0,714,26300,1055037
14,18,female,Belg,2,137,ITC,win,5,left,3,ITC_outcome,0,undefined,0,0,717,25296,1056041
14,18,female,Belg,2,138,guess,neutral,5,right,16,guess_start,385,space,0,0,717,24908,1056429
14,18,female,Belg,2,138,guess,neutral,5,right,16,guess_choice,1295,j,0,0,717,23608,1057729
14,18,female,Belg,2,138,guess,neutral,5,right,16,guess_outcome,0,undefined,0,0,717,22049,1059288
14,18,female,Belg,2,138,ITC,neutral,5,right,16,ITC_start,409,space,0,0,717,21638,1059699
14,18,female,Belg,2,138,ITC,neutral,5,right,16,ITC_choice,409,f,0,0,717,21226,1060111
14,18,female,Belg,2,138,ITC,neutral,5,right,16,ITC_wait,0,undefined,0,0,717,21221,1060116
14,18,female,Belg,2,138,ITC,neutral,5,right,16,ITC_collect,155,k,0,0,717,21065,1060272
14,18,female,Belg,2,138,ITC,neutral,5,right,16,ITC_outcome,0,undefined,0,0,733,20058,1061279
14,18,female,Belg,2,139,guess,neutral,5,left,1,guess_start,285,space,0,0,733,19769,1061568
14,18,female,Belg,2,139,guess,neutral,5,left,1,guess_choice,722,f,0,0,733,19044,1062293
14,18,female,Belg,2,139,guess,neutral,5,left,1,guess_outcome,0,undefined,0,0,733,17484,1063853
14,18,female,Belg,2,139,ITC,neutral,5,left,1,ITC_start,718,space,0,0,733,16764,1064573
14,18,female,Belg,2,139,ITC,neutral,5,left,1,ITC_choice,732,j,0,0,733,16029,1065308
14,18,female,Belg,2,139,ITC,neutral,5,left,1,ITC_wait,0,undefined,0,0,733,16026,1065311
14,18,female,Belg,2,139,ITC,neutral,5,left,1,ITC_collect,189,k,0,0,733,15836,1065501
14,18,female,Belg,2,139,ITC,neutral,5,left,1,ITC_outcome,0,undefined,0,0,734,14832,1066505
14,18,female,Belg,2,140,guess,neutral,5,right,10,guess_start,308,space,0,0,734,14521,1066816
14,18,female,Belg,2,140,guess,neutral,5,right,10,guess_choice,767,f,0,0,734,13750,1067587
14,18,female,Belg,2,140,guess,neutral,5,right,10,guess_outcome,0,undefined,0,0,734,12191,1069146
14,18,female,Belg,2,140,ITC,neutral,5,right,10,ITC_start,598,space,0,0,734,11591,1069746
14,18,female,Belg,2,140,ITC,neutral,5,right,10,ITC_choice,665,f,0,0,734,10923,1070414
14,18,female,Belg,2,140,ITC,neutral,5,right,10,ITC_wait,0,undefined,0,0,734,10919,1070418
14,18,female,Belg,2,140,ITC,neutral,5,right,10,ITC_collect,239,k,0,0,734,10679,1070658
14,18,female,Belg,2,140,ITC,neutral,5,right,10,ITC_outcome,0,undefined,0,0,744,9673,1071664
14,18,female,Belg,2,141,guess,loss,5,right,6,guess_start,774,space,0,0,744,8896,1072441
14,18,female,Belg,2,141,guess,loss,5,right,6,guess_choice,559,f,0,0,744,8333,1073004
14,18,female,Belg,2,141,guess,loss,5,right,6,guess_outcome,0,undefined,0,0,729,6775,1074562
14,18,female,Belg,2,141,ITC,loss,5,right,6,ITC_start,34,space,0,0,729,6739,1074598
14,18,female,Belg,2,141,ITC,loss,5,right,6,ITC_choice,684,f,0,0,729,6052,1075285
14,18,female,Belg,2,141,ITC,loss,5,right,6,ITC_wait,0,undefined,0,0,729,6048,1075289
14,18,female,Belg,2,141,ITC,loss,5,right,6,ITC_collect,157,k,0,0,729,5890,1075447
14,18,female,Belg,2,141,ITC,loss,5,right,6,ITC_outcome,0,undefined,0,0,735,4882,1076455
14,18,female,Belg,2,142,guess,win,5,right,2,guess_start,322,space,0,0,735,4557,1076780
14,18,female,Belg,2,142,guess,win,5,right,2,guess_choice,610,f,0,0,735,3943,1077394
14,18,female,Belg,2,142,guess,win,5,right,2,guess_outcome,0,undefined,0,0,755,2385,1078952
14,18,female,Belg,2,142,ITC,win,5,right,2,ITC_start,400,space,0,0,755,1983,1079354
14,18,female,Belg,2,142,ITC,win,5,right,2,ITC_choice,496,f,0,0,755,1483,1079854
14,18,female,Belg,2,142,ITC,win,5,right,2,ITC_wait,0,undefined,0,0,755,1480,1079857
14,18,female,Belg,2,142,ITC,win,5,right,2,ITC_collect,123,k,0,0,755,1356,1079981
14,18,female,Belg,2,142,ITC,win,5,right,2,ITC_outcome,0,undefined,0,0,757,348,1080989
14,18,female,Belg,2,143,guess,win,5,left,12,guess_start,310,space,0,0,757,34,1081303
14,18,female,Belg,2,143,guess,win,5,left,12,guess_choice,0,undefined,0,0,757,-5,1081342
14,18,female,Belg,3,144,guess,neutral,5,left,4,guess_start,723,space,0,0,0,479275,1094294
14,18,female,Belg,3,144,guess,neutral,5,left,4,guess_choice,2050,f,0,0,0,477220,1096349
14,18,female,Belg,3,144,guess,neutral,5,left,4,guess_outcome,0,undefined,0,0,0,475662,1097907
14,18,female,Belg,3,144,ITC,neutral,5,left,4,ITC_start,2615,space,0,0,0,473044,1100525
14,18,female,Belg,3,144,ITC,neutral,5,left,4,ITC_choice,2291,f,0,0,0,470751,1102818
14,18,female,Belg,3,144,ITC,neutral,5,left,4,ITC_wait,0,undefined,0,0,0,465743,1107826
14,18,female,Belg,3,144,ITC,neutral,5,left,4,ITC_collect,8835,k,0,0,0,456905,1116664
14,18,female,Belg,3,144,ITC,neutral,5,left,4,ITC_outcome,0,undefined,0,0,20,455901,1117668
14,18,female,Belg,3,145,guess,loss,5,left,14,guess_start,682,space,0,0,20,455216,1118353
14,18,female,Belg,3,145,guess,loss,5,left,14,guess_choice,1077,j,0,0,20,454135,1119434
14,18,female,Belg,3,145,guess,loss,5,left,14,guess_outcome,0,undefined,0,0,5,452577,1120992
14,18,female,Belg,3,145,ITC,loss,5,left,14,ITC_start,640,space,0,0,5,451934,1121635
14,18,female,Belg,3,145,ITC,loss,5,left,14,ITC_choice,1892,f,0,0,5,450039,1123530
14,18,female,Belg,3,145,ITC,loss,5,left,14,ITC_wait,0,undefined,0,0,5,445031,1128538
14,18,female,Belg,3,145,ITC,loss,5,left,14,ITC_collect,528,k,0,0,5,444501,1129068
14,18,female,Belg,3,145,ITC,loss,5,left,14,ITC_outcome,0,undefined,0,0,25,443493,1130076
14,18,female,Belg,3,146,guess,loss,10,left,4,guess_start,561,space,0,0,25,442929,1130640
14,18,female,Belg,3,146,guess,loss,10,left,4,guess_choice,710,j,0,0,25,442215,1131354
14,18,female,Belg,3,146,guess,loss,10,left,4,guess_outcome,0,undefined,0,0,10,440658,1132911
14,18,female,Belg,3,146,ITC,loss,10,left,4,ITC_start,596,space,0,0,10,440059,1133510
