subjectID,age,gender,nationality,block_number,trial_number,trial_type,guess_outcome,delay_time,delay_pos,immediate_amount,stage,respRT,respKey,blur_count,focus_count,total_points,remaining_duration,time_elapsed
13,40,male,Belgian,1,1,guess,neutral,5,left,12,guess_start,1842,space,0,0,0,478158,162922
13,40,male,Belgian,1,1,guess,neutral,5,left,12,guess_choice,1475,f,0,0,0,476675,164405
13,40,male,Belgian,1,1,guess,neutral,5,left,12,guess_outcome,0,undefined,0,0,0,475120,165960
13,40,male,Belgian,1,1,ITC,neutral,5,left,12,ITC_start,2113,space,0,0,0,473005,168075
13,40,male,Belgian,1,1,ITC,neutral,5,left,12,ITC_choice,10542,f,0,0,0,462460,178620
13,40,male,Belgian,1,1,ITC,neutral,5,left,12,ITC_wait,0,undefined,0,0,0,457458,183622
13,40,male,Belgian,1,1,ITC,neutral,5,left,12,ITC_collect,1059,k,0,0,0,456398,184682
13,40,male,Belgian,1,1,ITC,neutral,5,left,12,ITC_outcome,0,undefined,0,0,20,455390,185690
13,40,male,Belgian,1,2,guess,win,5,right,3,guess_start,1007,space,0,0,20,454380,186700
13,40,male,Belgian,1,2,guess,win,5,right,3,guess_choice,1509,j,0,0,20,452867,188213
13,40,male,Belgian,1,2,guess,win,5,right,3,guess_outcome,0,undefined,0,0,40,451308,189772
13,40,male,Belgian,1,2,ITC,win,5,right,3,ITC_start,960,space,0,0,40,450348,190732
13,40,male,Belgian,1,2,ITC,win,5,right,3,ITC_choice,2861,j,0,0,40,447482,193598
13,40,male,Belgian,1,2,ITC,win,5,right,3,ITC_wait,0,undefined,0,0,40,442476,198604
13,40,male,Belgian,1,2,ITC,win,5,right,3,ITC_collect,598,k,0,0,40,441875,199205
13,40,male,Belgian,1,2,ITC,win,5,right,3,ITC_outcome,0,undefined,0,0,60,440870,200210
13,40,male,Belgian,1,3,guess,loss,5,left,15,guess_start,898,space,0,0,60,439971,201109
13,40,male,Belgian,1,3,guess,loss,5,left,15,guess_choice,1331,f,0,0,60,438635,202445
13,40,male,Belgian,1,3,guess,loss,5,left,15,guess_outcome,0,undefined,0,0,45,437074,204006
13,40,male,Belgian,1,3,ITC,loss,5,left,15,ITC_start,1837,space,0,0,45,435235,205845
13,40,male,Belgian,1,3,ITC,loss,5,left,15,ITC_choice,3861,f,0,0,45,431371,209709
13,40,male,Belgian,1,3,ITC,loss,5,left,15,ITC_wait,0,undefined,0,0,45,426368,214712
13,40,male,Belgian,1,3,ITC,loss,5,left,15,ITC_collect,980,k,0,0,45,425387,215693
13,40,male,Belgian,1,3,ITC,loss,5,left,15,ITC_outcome,0,undefined,0,0,65,424379,216701
13,40,male,Belgian,1,4,guess,win,5,right,15,guess_start,647,space,0,0,65,423732,217348
13,40,male,Belgian,1,4,guess,win,5,right,15,guess_choice,1082,j,0,0,65,422644,218436
13,40,male,Belgian,1,4,guess,win,5,right,15,guess_outcome,0,undefined,0,0,85,421085,219995
13,40,male,Belgian,1,4,ITC,win,5,right,15,ITC_start,1288,space,0,0,85,419796,221284
13,40,male,Belgian,1,4,ITC,win,5,right,15,ITC_choice,3520,f,0,0,85,416275,224805
13,40,male,Belgian,1,4,ITC,win,5,right,15,ITC_wait,0,undefined,0,0,85,416272,224808
13,40,male,Belgian,1,4,ITC,win,5,right,15,ITC_collect,1230,k,0,0,85,415042,226038
13,40,male,Belgian,1,4,ITC,win,5,right,15,ITC_outcome,0,undefined,0,0,100,414038,227042
13,40,male,Belgian,1,5,guess,win,5,left,12,guess_start,658,space,0,0,100,413378,227702
13,40,male,Belgian,1,5,guess,win,5,left,12,guess_choice,1203,j,0,0,100,412170,228910
13,40,male,Belgian,1,5,guess,win,5,left,12,guess_outcome,0,undefined,0,0,120,410617,230463
13,40,male,Belgian,1,5,ITC,win,5,left,12,ITC_start,933,space,0,0,120,409683,231397
13,40,male,Belgian,1,5,ITC,win,5,left,12,ITC_choice,1829,f,0,0,120,407851,233229
13,40,male,Belgian,1,5,ITC,win,5,left,12,ITC_wait,0,undefined,0,0,120,402848,238232
13,40,male,Belgian,1,5,ITC,win,5,left,12,ITC_collect,516,k,0,0,120,402330,238750
13,40,male,Belgian,1,5,ITC,win,5,left,12,ITC_outcome,0,undefined,0,0,140,401323,239757
13,40,male,Belgian,1,6,guess,win,5,left,16,guess_start,614,space,0,0,140,400708,240372
13,40,male,Belgian,1,6,guess,win,5,left,16,guess_choice,965,j,0,0,140,399741,241339
13,40,male,Belgian,1,6,guess,win,5,left,16,guess_outcome,0,undefined,0,0,160,398187,242893
13,40,male,Belgian,1,6,ITC,win,5,left,16,ITC_start,1040,space,0,0,160,397146,243934
13,40,male,Belgian,1,6,ITC,win,5,left,16,ITC_choice,2103,j,0,0,160,395043,246037
13,40,male,Belgian,1,6,ITC,win,5,left,16,ITC_wait,0,undefined,0,0,160,395041,246039
13,40,male,Belgian,1,6,ITC,win,5,left,16,ITC_collect,1204,k,0,0,160,393834,247246
13,40,male,Belgian,1,6,ITC,win,5,left,16,ITC_outcome,0,undefined,0,0,176,392829,248251
13,40,male,Belgian,1,7,guess,loss,10,right,3,guess_start,640,space,0,0,176,392186,248894
13,40,male,Belgian,1,7,guess,loss,10,right,3,guess_choice,883,f,0,0,176,391299,249781
13,40,male,Belgian,1,7,guess,loss,10,right,3,guess_outcome,0,undefined,0,0,161,389744,251336
13,40,male,Belgian,1,7,ITC,loss,10,right,3,ITC_start,909,space,0,0,161,388833,252247
13,40,male,Belgian,1,7,ITC,loss,10,right,3,ITC_choice,3820,j,0,0,161,385012,256068
13,40,male,Belgian,1,7,ITC,loss,10,right,3,ITC_wait,0,undefined,0,0,161,375010,266070
13,40,male,Belgian,1,7,ITC,loss,10,right,3,ITC_collect,448,k,0,0,161,374562,266518
13,40,male,Belgian,1,7,ITC,loss,10,right,3,ITC_outcome,0,undefined,0,0,181,373559,267521
13,40,male,Belgian,1,8,guess,win,5,right,10,guess_start,884,space,0,0,181,372673,268407
13,40,male,Belgian,1,8,guess,win,5,right,10,guess_choice,1244,f,0,0,181,371425,269655
13,40,male,Belgian,1,8,guess,win,5,right,10,guess_outcome,0,undefined,0,0,201,369871,271209
13,40,male,Belgian,1,8,ITC,win,5,right,10,ITC_start,660,space,0,0,201,369210,271870
13,40,male,Belgian,1,8,ITC,win,5,right,10,ITC_choice,2287,f,0,0,201,366922,274158
13,40,male,Belgian,1,8,ITC,win,5,right,10,ITC_wait,0,undefined,0,0,201,366918,274162
13,40,male,Belgian,1,8,ITC,win,5,right,10,ITC_collect,858,k,0,0,201,366059,275021
13,40,male,Belgian,1,8,ITC,win,5,right,10,ITC_outcome,0,undefined,0,0,211,365054,276026
13,40,male,Belgian,1,9,guess,neutral,5,left,6,guess_start,611,space,0,0,211,364442,276638
13,40,male,Belgian,1,9,guess,neutral,5,left,6,guess_choice,1333,f,0,0,211,363106,277974
13,40,male,Belgian,1,9,guess,neutral,5,left,6,guess_outcome,0,undefined,0,0,211,361551,279529
13,40,male,Belgian,1,9,ITC,neutral,5,left,6,ITC_start,1868,space,0,0,211,359681,281399
13,40,male,Belgian,1,9,ITC,neutral,5,left,6,ITC_choice,2717,f,0,0,211,356962,284118
13,40,male,Belgian,1,9,ITC,neutral,5,left,6,ITC_wait,0,undefined,0,0,211,351959,289121
13,40,male,Belgian,1,9,ITC,neutral,5,left,6,ITC_collect,300,k,0,0,211,351658,289422
13,40,male,Belgian,1,9,ITC,neutral,5,left,6,ITC_outcome,0,undefined,0,0,231,350656,290424
13,40,male,Belgian,1,10,guess,win,5,left,13,guess_start,629,space,0,0,231,350025,291055
13,40,male,Belgian,1,10,guess,win,5,left,13,guess_choice,1644,f,0,0,231,348376,292704
13,40,male,Belgian,1,10,guess,win,5,left,13,guess_outcome,0,undefined,0,0,251,346821,294259
13,40,male,Belgian,1,10,ITC,win,5,left,13,ITC_start,1036,space,0,0,251,345785,295295
13,40,male,Belgian,1,10,ITC,win,5,left,13,ITC_choice,1333,f,0,0,251,344450,296630
13,40,male,Belgian,1,10,ITC,win,5,left,13,ITC_wait,0,undefined,0,0,251,339447,301633
13,40,male,Belgian,1,10,ITC,win,5,left,13,ITC_collect,883,k,0,0,251,338562,302518
13,40,male,Belgian,1,10,ITC,win,5,left,13,ITC_outcome,0,undefined,0,0,271,337556,303524
13,40,male,Belgian,1,11,guess,loss,10,right,5,guess_start,664,space,0,0,271,336890,304190
13,40,male,Belgian,1,11,guess,loss,10,right,5,guess_choice,814,j,0,0,271,336072,305008
13,40,male,Belgian,1,11,guess,loss,10,right,5,guess_outcome,0,undefined,0,0,256,334516,306564
13,40,male,Belgian,1,11,ITC,loss,10,right,5,ITC_start,919,space,0,0,256,333594,307486
13,40,male,Belgian,1,11,ITC,loss,10,right,5,ITC_choice,2184,j,0,0,256,331410,309670
13,40,male,Belgian,1,11,ITC,loss,10,right,5,ITC_wait,0,undefined,0,0,256,321402,319678
13,40,male,Belgian,1,11,ITC,loss,10,right,5,ITC_collect,330,k,0,0,256,321070,320010
13,40,male,Belgian,1,11,ITC,loss,10,right,5,ITC_outcome,0,undefined,0,0,276,320064,321016
13,40,male,Belgian,1,12,guess,loss,5,right,11,guess_start,701,space,0,0,276,319361,321719
13,40,male,Belgian,1,12,guess,loss,5,right,11,guess_choice,1094,j,0,0,276,318263,322817
13,40,male,Belgian,1,12,guess,loss,5,right,11,guess_outcome,0,undefined,0,0,261,316707,324373
13,40,male,Belgian,1,12,ITC,loss,5,right,11,ITC_start,722,space,0,0,261,315985,325095
13,40,male,Belgian,1,12,ITC,loss,5,right,11,ITC_choice,1655,f,0,0,261,314327,326753
13,40,male,Belgian,1,12,ITC,loss,5,right,11,ITC_wait,0,undefined,0,0,261,314324,326756
13,40,male,Belgian,1,12,ITC,loss,5,right,11,ITC_collect,1163,k,0,0,261,313161,327919
13,40,male,Belgian,1,12,ITC,loss,5,right,11,ITC_outcome,0,undefined,0,0,272,312154,328926
13,40,male,Belgian,1,13,guess,neutral,5,right,1,guess_start,592,space,0,0,272,311560,329520
13,40,male,Belgian,1,13,guess,neutral,5,right,1,guess_choice,1391,f,0,0,272,310166,330914
13,40,male,Belgian,1,13,guess,neutral,5,right,1,guess_outcome,0,undefined,0,0,272,308612,332468
13,40,male,Belgian,1,13,ITC,neutral,5,right,1,ITC_start,748,space,0,0,272,307864,333216
13,40,male,Belgian,1,13,ITC,neutral,5,right,1,ITC_choice,1599,j,0,0,272,306264,334816
13,40,male,Belgian,1,13,ITC,neutral,5,right,1,ITC_wait,0,undefined,0,0,272,301257,339823
13,40,male,Belgian,1,13,ITC,neutral,5,right,1,ITC_collect,263,k,0,0,272,300993,340087
13,40,male,Belgian,1,13,ITC,neutral,5,right,1,ITC_outcome,0,undefined,0,0,292,299991,341089
13,40,male,Belgian,1,14,guess,loss,5,right,13,guess_start,623,space,0,0,292,299368,341712
13,40,male,Belgian,1,14,guess,loss,5,right,13,guess_choice,988,j,0,0,292,298375,342705
13,40,male,Belgian,1,14,guess,loss,5,right,13,guess_outcome,0,undefined,0,0,277,296819,344261
13,40,male,Belgian,1,14,ITC,loss,5,right,13,ITC_start,843,space,0,0,277,295975,345105
13,40,male,Belgian,1,14,ITC,loss,5,right,13,ITC_choice,1222,f,0,0,277,294753,346327
13,40,male,Belgian,1,14,ITC,loss,5,right,13,ITC_wait,0,undefined,0,0,277,294750,346330
13,40,male,Belgian,1,14,ITC,loss,5,right,13,ITC_collect,1405,k,0,0,277,293345,347735
13,40,male,Belgian,1,14,ITC,loss,5,right,13,ITC_outcome,0,undefined,0,0,290,292337,348743
13,40,male,Belgian,1,15,guess,neutral,10,right,8,guess_start,552,space,0,0,290,291785,349295
13,40,male,Belgian,1,15,guess,neutral,10,right,8,guess_choice,1174,j,0,0,290,290608,350472
13,40,male,Belgian,1,15,guess,neutral,10,right,8,guess_outcome,0,undefined,0,0,290,289052,352028
13,40,male,Belgian,1,15,ITC,neutral,10,right,8,ITC_start,789,space,0,0,290,288262,352818
13,40,male,Belgian,1,15,ITC,neutral,10,right,8,ITC_choice,1981,f,0,0,290,286281,354799
13,40,male,Belgian,1,15,ITC,neutral,10,right,8,ITC_wait,0,undefined,0,0,290,286280,354800
13,40,male,Belgian,1,15,ITC,neutral,10,right,8,ITC_collect,800,k,0,0,290,285478,355602
13,40,male,Belgian,1,15,ITC,neutral,10,right,8,ITC_outcome,0,undefined,0,0,298,284473,356607
13,40,male,Belgian,1,16,guess,win,10,left,5,guess_start,767,space,0,0,298,283704,357376
13,40,male,Belgian,1,16,guess,win,10,left,5,guess_choice,2477,f,0,0,298,281222,359858
13,40,male,Belgian,1,16,guess,win,10,left,5,guess_outcome,0,undefined,0,0,318,279664,361416
13,40,male,Belgian,1,16,ITC,win,10,left,5,ITC_start,3030,space,0,0,318,276631,364449
13,40,male,Belgian,1,16,ITC,win,10,left,5,ITC_choice,4333,j,0,0,318,272296,368784
13,40,male,Belgian,1,16,ITC,win,10,left,5,ITC_wait,0,undefined,0,0,318,272294,368786
13,40,male,Belgian,1,16,ITC,win,10,left,5,ITC_collect,797,k,0,0,318,271496,369584
13,40,male,Belgian,1,16,ITC,win,10,left,5,ITC_outcome,0,undefined,0,0,323,270492,370588
13,40,male,Belgian,1,17,guess,win,5,right,4,guess_start,837,space,0,0,323,269654,371426
13,40,male,Belgian,1,17,guess,win,5,right,4,guess_choice,1803,j,0,0,323,267846,373234
13,40,male,Belgian,1,17,guess,win,5,right,4,guess_outcome,0,undefined,0,0,343,266290,374790
13,40,male,Belgian,1,17,ITC,win,5,right,4,ITC_start,2633,space,0,0,343,263656,377424
13,40,male,Belgian,1,17,ITC,win,5,right,4,ITC_choice,2130,j,0,0,343,261526,379554
13,40,male,Belgian,1,17,ITC,win,5,right,4,ITC_wait,0,undefined,0,0,343,256522,384558
13,40,male,Belgian,1,17,ITC,win,5,right,4,ITC_collect,258,k,0,0,343,256262,384818
13,40,male,Belgian,1,17,ITC,win,5,right,4,ITC_outcome,0,undefined,0,0,363,255256,385824
13,40,male,Belgian,1,18,guess,neutral,5,right,14,guess_start,1320,space,0,0,363,253934,387146
13,40,male,Belgian,1,18,guess,neutral,5,right,14,guess_choice,693,j,0,0,363,253240,387840
13,40,male,Belgian,1,18,guess,neutral,5,right,14,guess_outcome,0,undefined,0,0,363,251688,389392
13,40,male,Belgian,1,18,ITC,neutral,5,right,14,ITC_start,848,space,0,0,363,250839,390241
13,40,male,Belgian,1,18,ITC,neutral,5,right,14,ITC_choice,1286,f,0,0,363,249552,391528
13,40,male,Belgian,1,18,ITC,neutral,5,right,14,ITC_wait,0,undefined,0,0,363,249550,391530
13,40,male,Belgian,1,18,ITC,neutral,5,right,14,ITC_collect,1167,k,0,0,363,248382,392698
13,40,male,Belgian,1,18,ITC,neutral,5,right,14,ITC_outcome,0,undefined,0,0,377,247374,393706
13,40,male,Belgian,1,19,guess,neutral,5,right,9,guess_start,726,space,0,0,377,246647,394433
13,40,male,Belgian,1,19,guess,neutral,5,right,9,guess_choice,734,f,0,0,377,245910,395170
13,40,male,Belgian,1,19,guess,neutral,5,right,9,guess_outcome,0,undefined,0,0,377,244355,396725
13,40,male,Belgian,1,19,ITC,neutral,5,right,9,ITC_start,581,space,0,0,377,243773,397307
13,40,male,Belgian,1,19,ITC,neutral,5,right,9,ITC_choice,1733,j,0,0,377,242038,399042
13,40,male,Belgian,1,19,ITC,neutral,5,right,9,ITC_wait,0,undefined,0,0,377,237032,404048
13,40,male,Belgian,1,19,ITC,neutral,5,right,9,ITC_collect,361,k,0,0,377,236669,404411
13,40,male,Belgian,1,19,ITC,neutral,5,right,9,ITC_outcome,0,undefined,0,0,397,235663,405417
13,40,male,Belgian,1,20,guess,win,10,left,7,guess_start,544,space,0,0,397,235116,405964
13,40,male,Belgian,1,20,guess,win,10,left,7,guess_choice,868,f,0,0,397,234245,406835
13,40,male,Belgian,1,20,guess,win,10,left,7,guess_outcome,0,undefined,0,0,417,232686,408394
13,40,male,Belgian,1,20,ITC,win,10,left,7,ITC_start,757,space,0,0,417,231927,409153
13,40,male,Belgian,1,20,ITC,win,10,left,7,ITC_choice,1897,j,0,0,417,230029,411051
13,40,male,Belgian,1,20,ITC,win,10,left,7,ITC_wait,0,undefined,0,0,417,230026,411054
13,40,male,Belgian,1,20,ITC,win,10,left,7,ITC_collect,1356,k,0,0,417,228669,412411
13,40,male,Belgian,1,20,ITC,win,10,left,7,ITC_outcome,0,undefined,0,0,424,227662,413418
13,40,male,Belgian,1,21,guess,win,10,left,1,guess_start,758,space,0,0,424,226901,414179
13,40,male,Belgian,1,21,guess,win,10,left,1,guess_choice,879,j,0,0,424,226021,415059
13,40,male,Belgian,1,21,guess,win,10,left,1,guess_outcome,0,undefined,0,0,444,224466,416614
13,40,male,Belgian,1,21,ITC,win,10,left,1,ITC_start,357,space,0,0,444,224108,416972
13,40,male,Belgian,1,21,ITC,win,10,left,1,ITC_choice,2765,f,0,0,444,221343,419737
13,40,male,Belgian,1,21,ITC,win,10,left,1,ITC_wait,0,undefined,0,0,444,211339,429741
13,40,male,Belgian,1,21,ITC,win,10,left,1,ITC_collect,325,k,0,0,444,211012,430068
13,40,male,Belgian,1,21,ITC,win,10,left,1,ITC_outcome,0,undefined,0,0,464,210005,431075
13,40,male,Belgian,1,22,guess,neutral,5,right,8,guess_start,582,space,0,0,464,209421,431659
13,40,male,Belgian,1,22,guess,neutral,5,right,8,guess_choice,674,j,0,0,464,208742,432338
13,40,male,Belgian,1,22,guess,neutral,5,right,8,guess_outcome,0,undefined,0,0,464,207187,433893
13,40,male,Belgian,1,22,ITC,neutral,5,right,8,ITC_start,508,space,0,0,464,206676,434404
13,40,male,Belgian,1,22,ITC,neutral,5,right,8,ITC_choice,1684,j,0,0,464,204990,436090
13,40,male,Belgian,1,22,ITC,neutral,5,right,8,ITC_wait,0,undefined,0,0,464,199984,441096
13,40,male,Belgian,1,22,ITC,neutral,5,right,8,ITC_collect,275,k,0,0,464,199708,441372
13,40,male,Belgian,1,22,ITC,neutral,5,right,8,ITC_outcome,0,undefined,0,0,484,198704,442376
13,40,male,Belgian,1,23,guess,neutral,10,left,6,guess_start,443,space,0,0,484,198261,442819
13,40,male,Belgian,1,23,guess,neutral,10,left,6,guess_choice,668,j,0,0,484,197587,443493
13,40,male,Belgian,1,23,guess,neutral,10,left,6,guess_outcome,0,undefined,0,0,484,196033,445047
13,40,male,Belgian,1,23,ITC,neutral,10,left,6,ITC_start,667,space,0,0,484,195365,445715
13,40,male,Belgian,1,23,ITC,neutral,10,left,6,ITC_choice,1756,j,0,0,484,193606,447474
13,40,male,Belgian,1,23,ITC,neutral,10,left,6,ITC_wait,0,undefined,0,0,484,193604,447476
13,40,male,Belgian,1,23,ITC,neutral,10,left,6,ITC_collect,1455,k,0,0,484,192148,448932
13,40,male,Belgian,1,23,ITC,neutral,10,left,6,ITC_outcome,0,undefined,0,0,490,191142,449938
13,40,male,Belgian,1,24,guess,win,5,left,11,guess_start,673,space,0,0,490,190468,450612
13,40,male,Belgian,1,24,guess,win,5,left,11,guess_choice,970,j,0,0,490,189494,451586
13,40,male,Belgian,1,24,guess,win,5,left,11,guess_outcome,0,undefined,0,0,510,187941,453139
13,40,male,Belgian,1,24,ITC,win,5,left,11,ITC_start,376,space,0,0,510,187564,453516
13,40,male,Belgian,1,24,ITC,win,5,left,11,ITC_choice,1413,f,0,0,510,186149,454931
13,40,male,Belgian,1,24,ITC,win,5,left,11,ITC_wait,0,undefined,0,0,510,181144,459936
13,40,male,Belgian,1,24,ITC,win,5,left,11,ITC_collect,275,k,0,0,510,180868,460212
13,40,male,Belgian,1,24,ITC,win,5,left,11,ITC_outcome,0,undefined,0,0,530,179863,461217
13,40,male,Belgian,1,25,guess,neutral,10,left,7,guess_start,560,space,0,0,530,179301,461779
13,40,male,Belgian,1,25,guess,neutral,10,left,7,guess_choice,639,j,0,0,530,178659,462421
13,40,male,Belgian,1,25,guess,neutral,10,left,7,guess_outcome,0,undefined,0,0,530,177104,463976
13,40,male,Belgian,1,25,ITC,neutral,10,left,7,ITC_start,874,space,0,0,530,176228,464852
13,40,male,Belgian,1,25,ITC,neutral,10,left,7,ITC_choice,1662,j,0,0,530,174563,466517
13,40,male,Belgian,1,25,ITC,neutral,10,left,7,ITC_wait,0,undefined,0,0,530,174560,466520
13,40,male,Belgian,1,25,ITC,neutral,10,left,7,ITC_collect,762,k,0,0,530,173797,467283
13,40,male,Belgian,1,25,ITC,neutral,10,left,7,ITC_outcome,0,undefined,0,0,537,172791,468289
13,40,male,Belgian,1,26,guess,win,5,left,6,guess_start,731,space,0,0,537,172059,469021
13,40,male,Belgian,1,26,guess,win,5,left,6,guess_choice,1229,f,0,0,537,170826,470254
13,40,male,Belgian,1,26,guess,win,5,left,6,guess_outcome,0,undefined,0,0,557,169268,471812
13,40,male,Belgian,1,26,ITC,win,5,left,6,ITC_start,712,space,0,0,557,168556,472524
13,40,male,Belgian,1,26,ITC,win,5,left,6,ITC_choice,2031,f,0,0,557,166523,474557
13,40,male,Belgian,1,26,ITC,win,5,left,6,ITC_wait,0,undefined,0,0,557,161517,479563
13,40,male,Belgian,1,26,ITC,win,5,left,6,ITC_collect,273,k,0,0,557,161243,479837
13,40,male,Belgian,1,26,ITC,win,5,left,6,ITC_outcome,0,undefined,0,0,577,160238,480842
13,40,male,Belgian,1,27,guess,neutral,10,right,5,guess_start,528,space,0,0,577,159708,481372
13,40,male,Belgian,1,27,guess,neutral,10,right,5,guess_choice,695,f,0,0,577,159011,482069
13,40,male,Belgian,1,27,guess,neutral,10,right,5,guess_outcome,0,undefined,0,0,577,157453,483627
13,40,male,Belgian,1,27,ITC,neutral,10,right,5,ITC_start,656,space,0,0,577,156796,484284
13,40,male,Belgian,1,27,ITC,neutral,10,right,5,ITC_choice,2120,f,0,0,577,154674,486406
13,40,male,Belgian,1,27,ITC,neutral,10,right,5,ITC_wait,0,undefined,0,0,577,154672,486408
13,40,male,Belgian,1,27,ITC,neutral,10,right,5,ITC_collect,881,k,0,0,577,153789,487291
13,40,male,Belgian,1,27,ITC,neutral,10,right,5,ITC_outcome,0,undefined,0,0,582,152787,488293
13,40,male,Belgian,1,28,guess,loss,10,right,1,guess_start,766,space,0,0,582,152019,489061
13,40,male,Belgian,1,28,guess,loss,10,right,1,guess_choice,1140,f,0,0,582,150874,490206
13,40,male,Belgian,1,28,guess,loss,10,right,1,guess_outcome,0,undefined,0,0,567,149315,491765
13,40,male,Belgian,1,28,ITC,loss,10,right,1,ITC_start,509,space,0,0,567,148803,492277
13,40,male,Belgian,1,28,ITC,loss,10,right,1,ITC_choice,2703,f,0,0,567,146100,494980
13,40,male,Belgian,1,28,ITC,loss,10,right,1,ITC_wait,0,undefined,0,0,567,146099,494981
13,40,male,Belgian,1,28,ITC,loss,10,right,1,ITC_collect,725,k,0,0,567,145373,495707
13,40,male,Belgian,1,28,ITC,loss,10,right,1,ITC_outcome,0,undefined,0,0,568,144365,496715
13,40,male,Belgian,1,29,guess,loss,10,left,8,guess_start,601,space,0,0,568,143763,497317
13,40,male,Belgian,1,29,guess,loss,10,left,8,guess_choice,852,j,0,0,568,142908,498172
13,40,male,Belgian,1,29,guess,loss,10,left,8,guess_outcome,0,undefined,0,0,553,141353,499727
13,40,male,Belgian,1,29,ITC,loss,10,left,8,ITC_start,510,space,0,0,553,140841,500239
13,40,male,Belgian,1,29,ITC,loss,10,left,8,ITC_choice,1740,j,0,0,553,139100,501980
13,40,male,Belgian,1,29,ITC,loss,10,left,8,ITC_wait,0,undefined,0,0,553,139098,501982
13,40,male,Belgian,1,29,ITC,loss,10,left,8,ITC_collect,1070,k,0,0,553,138027,503053
13,40,male,Belgian,1,29,ITC,loss,10,left,8,ITC_outcome,0,undefined,0,0,561,137023,504057
13,40,male,Belgian,1,30,guess,neutral,5,right,10,guess_start,617,space,0,0,561,136404,504676
13,40,male,Belgian,1,30,guess,neutral,5,right,10,guess_choice,717,f,0,0,561,135684,505396
13,40,male,Belgian,1,30,guess,neutral,5,right,10,guess_outcome,0,undefined,0,0,561,134125,506955
13,40,male,Belgian,1,30,ITC,neutral,5,right,10,ITC_start,633,space,0,0,561,133492,507588
13,40,male,Belgian,1,30,ITC,neutral,5,right,10,ITC_choice,1799,f,0,0,561,131692,509388
13,40,male,Belgian,1,30,ITC,neutral,5,right,10,ITC_wait,0,undefined,0,0,561,131690,509390
13,40,male,Belgian,1,30,ITC,neutral,5,right,10,ITC_collect,1830,k,0,0,561,129859,511221
13,40,male,Belgian,1,30,ITC,neutral,5,right,10,ITC_outcome,0,undefined,0,0,571,128852,512228
13,40,male,Belgian,1,31,guess,neutral,10,right,2,guess_start,552,space,0,0,571,128299,512781
13,40,male,Belgian,1,31,guess,neutral,10,right,2,guess_choice,774,j,0,0,571,127522,513558
13,40,male,Belgian,1,31,guess,neutral,10,right,2,guess_outcome,0,undefined,0,0,571,125964,515116
13,40,male,Belgian,1,31,ITC,neutral,10,right,2,ITC_start,585,space,0,0,571,125378,515702
13,40,male,Belgian,1,31,ITC,neutral,10,right,2,ITC_choice,2310,f,0,0,571,123066,518014
13,40,male,Belgian,1,31,ITC,neutral,10,right,2,ITC_wait,0,undefined,0,0,571,123064,518016
13,40,male,Belgian,1,31,ITC,neutral,10,right,2,ITC_collect,1020,k,0,0,571,122044,519036
13,40,male,Belgian,1,31,ITC,neutral,10,right,2,ITC_outcome,0,undefined,0,0,573,121040,520040
13,40,male,Belgian,1,32,guess,win,10,left,8,guess_start,868,space,0,0,573,120169,520911
13,40,male,Belgian,1,32,guess,win,10,left,8,guess_choice,1018,j,0,0,573,119146,521934
13,40,male,Belgian,1,32,guess,win,10,left,8,guess_outcome,0,undefined,0,0,593,117589,523491
13,40,male,Belgian,1,32,ITC,win,10,left,8,ITC_start,1018,space,0,0,593,116570,524510
13,40,male,Belgian,1,32,ITC,win,10,left,8,ITC_choice,1654,j,0,0,593,114914,526166
13,40,male,Belgian,1,32,ITC,win,10,left,8,ITC_wait,0,undefined,0,0,593,114911,526169
13,40,male,Belgian,1,32,ITC,win,10,left,8,ITC_collect,466,k,0,0,593,114443,526637
13,40,male,Belgian,1,32,ITC,win,10,left,8,ITC_outcome,0,undefined,0,0,601,113440,527640
13,40,male,Belgian,1,33,guess,neutral,10,right,3,guess_start,644,space,0,0,601,112795,528285
13,40,male,Belgian,1,33,guess,neutral,10,right,3,guess_choice,654,j,0,0,601,112139,528941
13,40,male,Belgian,1,33,guess,neutral,10,right,3,guess_outcome,0,undefined,0,0,601,110582,530498
13,40,male,Belgian,1,33,ITC,neutral,10,right,3,ITC_start,419,space,0,0,601,110161,530919
13,40,male,Belgian,1,33,ITC,neutral,10,right,3,ITC_choice,1917,f,0,0,601,108242,532838
13,40,male,Belgian,1,33,ITC,neutral,10,right,3,ITC_wait,0,undefined,0,0,601,108239,532841
13,40,male,Belgian,1,33,ITC,neutral,10,right,3,ITC_collect,581,k,0,0,601,107658,533422
13,40,male,Belgian,1,33,ITC,neutral,10,right,3,ITC_outcome,0,undefined,0,0,604,106649,534431
13,40,male,Belgian,1,34,guess,neutral,10,right,1,guess_start,670,space,0,0,604,105978,535102
13,40,male,Belgian,1,34,guess,neutral,10,right,1,guess_choice,764,f,0,0,604,105210,535870
13,40,male,Belgian,1,34,guess,neutral,10,right,1,guess_outcome,0,undefined,0,0,604,103652,537428
13,40,male,Belgian,1,34,ITC,neutral,10,right,1,ITC_start,481,space,0,0,604,103169,537911
13,40,male,Belgian,1,34,ITC,neutral,10,right,1,ITC_choice,1886,f,0,0,604,101281,539799
13,40,male,Belgian,1,34,ITC,neutral,10,right,1,ITC_wait,0,undefined,0,0,604,101279,539801
13,40,male,Belgian,1,34,ITC,neutral,10,right,1,ITC_collect,482,k,0,0,604,100795,540285
13,40,male,Belgian,1,34,ITC,neutral,10,right,1,ITC_outcome,0,undefined,0,0,605,99789,541291
13,40,male,Belgian,1,35,guess,loss,5,right,7,guess_start,592,space,0,0,605,99195,541885
13,40,male,Belgian,1,35,guess,loss,5,right,7,guess_choice,822,j,0,0,605,98368,542712
13,40,male,Belgian,1,35,guess,loss,5,right,7,guess_outcome,0,undefined,0,0,590,96813,544267
13,40,male,Belgian,1,35,ITC,loss,5,right,7,ITC_start,651,space,0,0,590,96160,544920
13,40,male,Belgian,1,35,ITC,loss,5,right,7,ITC_choice,1973,j,0,0,590,94187,546893
13,40,male,Belgian,1,35,ITC,loss,5,right,7,ITC_wait,0,undefined,0,0,590,89185,551895
13,40,male,Belgian,1,35,ITC,loss,5,right,7,ITC_collect,263,k,0,0,590,88921,552159
13,40,male,Belgian,1,35,ITC,loss,5,right,7,ITC_outcome,0,undefined,0,0,610,87914,553166
13,40,male,Belgian,1,36,guess,win,5,right,9,guess_start,573,space,0,0,610,87339,553741
13,40,male,Belgian,1,36,guess,win,5,right,9,guess_choice,1576,j,0,0,610,85759,555321
13,40,male,Belgian,1,36,guess,win,5,right,9,guess_outcome,0,undefined,0,0,630,84203,556877
13,40,male,Belgian,1,36,ITC,win,5,right,9,ITC_start,577,space,0,0,630,83625,557455
13,40,male,Belgian,1,36,ITC,win,5,right,9,ITC_choice,2292,j,0,0,630,81330,559750
13,40,male,Belgian,1,36,ITC,win,5,right,9,ITC_wait,0,undefined,0,0,630,76326,564754
13,40,male,Belgian,1,36,ITC,win,5,right,9,ITC_collect,283,k,0,0,630,76042,565038
13,40,male,Belgian,1,36,ITC,win,5,right,9,ITC_outcome,0,undefined,0,0,650,75037,566043
13,40,male,Belgian,1,37,guess,loss,10,left,2,guess_start,391,space,0,0,650,74642,566438
13,40,male,Belgian,1,37,guess,loss,10,left,2,guess_choice,766,f,0,0,650,73872,567208
13,40,male,Belgian,1,37,guess,loss,10,left,2,guess_outcome,0,undefined,0,0,635,72314,568766
13,40,male,Belgian,1,37,ITC,loss,10,left,2,ITC_start,736,space,0,0,635,71577,569503
13,40,male,Belgian,1,37,ITC,loss,10,left,2,ITC_choice,1988,j,0,0,635,69587,571493
13,40,male,Belgian,1,37,ITC,loss,10,left,2,ITC_wait,0,undefined,0,0,635,69585,571495
13,40,male,Belgian,1,37,ITC,loss,10,left,2,ITC_collect,646,k,0,0,635,68939,572141
13,40,male,Belgian,1,37,ITC,loss,10,left,2,ITC_outcome,0,undefined,0,0,637,67936,573144
13,40,male,Belgian,1,38,guess,loss,5,left,5,guess_start,558,space,0,0,637,67376,573704
13,40,male,Belgian,1,38,guess,loss,5,left,5,guess_choice,674,j,0,0,637,66698,574382
13,40,male,Belgian,1,38,guess,loss,5,left,5,guess_outcome,0,undefined,0,0,622,65144,575936
13,40,male,Belgian,1,38,ITC,loss,5,left,5,ITC_start,1142,space,0,0,622,64001,577079
13,40,male,Belgian,1,38,ITC,loss,5,left,5,ITC_choice,1623,f,0,0,622,62377,578703
13,40,male,Belgian,1,38,ITC,loss,5,left,5,ITC_wait,0,undefined,0,0,622,57370,583710
13,40,male,Belgian,1,38,ITC,loss,5,left,5,ITC_collect,264,k,0,0,622,57105,583975
13,40,male,Belgian,1,38,ITC,loss,5,left,5,ITC_outcome,0,undefined,0,0,642,56100,584980
13,40,male,Belgian,1,39,guess,win,10,left,3,guess_start,587,space,0,0,642,55512,585568
13,40,male,Belgian,1,39,guess,win,10,left,3,guess_choice,700,f,0,0,642,54807,586273
13,40,male,Belgian,1,39,guess,win,10,left,3,guess_outcome,0,undefined,0,0,662,53250,587830
13,40,male,Belgian,1,39,ITC,win,10,left,3,ITC_start,1114,space,0,0,662,52134,588946
13,40,male,Belgian,1,39,ITC,win,10,left,3,ITC_choice,1717,j,0,0,662,50416,590664
13,40,male,Belgian,1,39,ITC,win,10,left,3,ITC_collect,444,k,0,0,662,49967,591113
13,40,male,Belgian,1,39,ITC,win,10,left,3,ITC_wait,0,undefined,0,0,662,50413,590667
13,40,male,Belgian,1,39,ITC,win,10,left,3,ITC_outcome,0,undefined,0,0,665,48963,592117
13,40,male,Belgian,1,40,guess,loss,5,left,10,guess_start,553,space,0,0,665,48408,592672
13,40,male,Belgian,1,40,guess,loss,5,left,10,guess_choice,780,j,0,0,665,47624,593456
13,40,male,Belgian,1,40,guess,loss,5,left,10,guess_outcome,0,undefined,0,0,650,46071,595009
13,40,male,Belgian,1,40,ITC,loss,5,left,10,ITC_start,701,space,0,0,650,45367,595713
13,40,male,Belgian,1,40,ITC,loss,5,left,10,ITC_choice,1438,f,0,0,650,43927,597153
13,40,male,Belgian,1,40,ITC,loss,5,left,10,ITC_wait,0,undefined,0,0,650,38922,602158
13,40,male,Belgian,1,40,ITC,loss,5,left,10,ITC_collect,271,k,0,0,650,38649,602431
13,40,male,Belgian,1,40,ITC,loss,5,left,10,ITC_outcome,0,undefined,0,0,670,37642,603438
13,40,male,Belgian,1,41,guess,win,5,left,1,guess_start,282,space,0,0,670,37359,603721
13,40,male,Belgian,1,41,guess,win,5,left,1,guess_choice,708,j,0,0,670,36648,604432
13,40,male,Belgian,1,41,guess,win,5,left,1,guess_outcome,0,undefined,0,0,690,35093,605987
13,40,male,Belgian,1,41,ITC,win,5,left,1,ITC_start,507,space,0,0,690,34585,606495
13,40,male,Belgian,1,41,ITC,win,5,left,1,ITC_choice,2056,f,0,0,690,32529,608551
13,40,male,Belgian,1,41,ITC,win,5,left,1,ITC_wait,0,undefined,0,0,690,27524,613556
13,40,male,Belgian,1,41,ITC,win,5,left,1,ITC_collect,330,k,0,0,690,27193,613887
13,40,male,Belgian,1,41,ITC,win,5,left,1,ITC_outcome,0,undefined,0,0,710,26186,614894
13,40,male,Belgian,1,42,guess,loss,5,left,9,guess_start,370,space,0,0,710,25815,615265
13,40,male,Belgian,1,42,guess,loss,5,left,9,guess_choice,642,f,0,0,710,25167,615913
13,40,male,Belgian,1,42,guess,loss,5,left,9,guess_outcome,0,undefined,0,0,695,23611,617469
13,40,male,Belgian,1,42,ITC,loss,5,left,9,ITC_start,586,space,0,0,695,23023,618057
13,40,male,Belgian,1,42,ITC,loss,5,left,9,ITC_choice,1670,j,0,0,695,21351,619729
13,40,male,Belgian,1,42,ITC,loss,5,left,9,ITC_wait,0,undefined,0,0,695,21350,619730
13,40,male,Belgian,1,42,ITC,loss,5,left,9,ITC_collect,517,k,0,0,695,20831,620249
13,40,male,Belgian,1,42,ITC,loss,5,left,9,ITC_outcome,0,undefined,0,0,704,19829,621251
13,40,male,Belgian,1,43,guess,loss,5,right,8,guess_start,690,space,0,0,704,19137,621943
13,40,male,Belgian,1,43,guess,loss,5,right,8,guess_choice,671,j,0,0,704,18462,622618
13,40,male,Belgian,1,43,guess,loss,5,right,8,guess_outcome,0,undefined,0,0,689,16906,624174
13,40,male,Belgian,1,43,ITC,loss,5,right,8,ITC_start,760,space,0,0,689,16143,624937
13,40,male,Belgian,1,43,ITC,loss,5,right,8,ITC_choice,2247,j,0,0,689,13896,627184
13,40,male,Belgian,1,43,ITC,loss,5,right,8,ITC_wait,0,undefined,0,0,689,8891,632189
13,40,male,Belgian,1,43,ITC,loss,5,right,8,ITC_collect,412,k,0,0,689,8478,632602
13,40,male,Belgian,1,43,ITC,loss,5,right,8,ITC_outcome,0,undefined,0,0,709,7471,633609
13,40,male,Belgian,1,44,guess,loss,5,right,14,guess_start,446,space,0,0,709,7022,634058
13,40,male,Belgian,1,44,guess,loss,5,right,14,guess_choice,1026,f,0,0,709,5992,635088
13,40,male,Belgian,1,44,guess,loss,5,right,14,guess_outcome,0,undefined,0,0,694,4436,636644
13,40,male,Belgian,1,44,ITC,loss,5,right,14,ITC_start,917,space,0,0,694,3518,637562
13,40,male,Belgian,1,44,ITC,loss,5,right,14,ITC_choice,2586,f,0,0,694,929,640151
13,40,male,Belgian,1,44,ITC,loss,5,right,14,ITC_wait,0,undefined,0,0,694,927,640153
13,40,male,Belgian,1,44,ITC,loss,5,right,14,ITC_collect,0,undefined,0,0,694,-1,641081
13,40,male,Belgian,2,45,guess,loss,5,left,3,guess_start,847,space,0,0,0,479151,649697
13,40,male,Belgian,2,45,guess,loss,5,left,3,guess_choice,1245,j,0,0,0,477903,650945
13,40,male,Belgian,2,45,guess,loss,5,left,3,guess_outcome,0,undefined,0,0,-15,476347,652501
13,40,male,Belgian,2,45,ITC,loss,5,left,3,ITC_start,745,space,0,0,-15,475599,653249
13,40,male,Belgian,2,45,ITC,loss,5,left,3,ITC_choice,2232,f,0,0,-15,473366,655482
13,40,male,Belgian,2,45,ITC,loss,5,left,3,ITC_wait,0,undefined,0,0,-15,468362,660486
13,40,male,Belgian,2,45,ITC,loss,5,left,3,ITC_collect,272,k,0,0,-15,468088,660760
13,40,male,Belgian,2,45,ITC,loss,5,left,3,ITC_outcome,0,undefined,0,0,5,467084,661764
13,40,male,Belgian,2,46,guess,win,10,left,2,guess_start,578,space,0,0,5,466504,662344
13,40,male,Belgian,2,46,guess,win,10,left,2,guess_choice,758,j,0,0,5,465743,663105
13,40,male,Belgian,2,46,guess,win,10,left,2,guess_outcome,0,undefined,0,0,25,464185,664663
13,40,male,Belgian,2,46,ITC,win,10,left,2,ITC_start,288,space,0,0,25,463895,664953
13,40,male,Belgian,2,46,ITC,win,10,left,2,ITC_choice,1703,j,0,0,25,462189,666659
13,40,male,Belgian,2,46,ITC,win,10,left,2,ITC_wait,0,undefined,0,0,25,462187,666661
13,40,male,Belgian,2,46,ITC,win,10,left,2,ITC_collect,620,k,0,0,25,461566,667282
13,40,male,Belgian,2,46,ITC,win,10,left,2,ITC_outcome,0,undefined,0,0,27,460564,668284
13,40,male,Belgian,2,47,guess,neutral,5,left,3,guess_start,589,space,0,0,27,459974,668874
13,40,male,Belgian,2,47,guess,neutral,5,left,3,guess_choice,1133,f,0,0,27,458837,670011
13,40,male,Belgian,2,47,guess,neutral,5,left,3,guess_outcome,0,undefined,0,0,27,457281,671567
13,40,male,Belgian,2,47,ITC,neutral,5,left,3,ITC_start,1154,space,0,0,27,456126,672722
13,40,male,Belgian,2,47,ITC,neutral,5,left,3,ITC_choice,3380,f,0,0,27,452743,676105
13,40,male,Belgian,2,47,ITC,neutral,5,left,3,ITC_wait,0,undefined,0,0,27,447737,681111
13,40,male,Belgian,2,47,ITC,neutral,5,left,3,ITC_collect,298,k,0,0,27,447436,681412
13,40,male,Belgian,2,47,ITC,neutral,5,left,3,ITC_outcome,0,undefined,0,0,47,446432,682416
13,40,male,Belgian,2,48,guess,loss,10,left,4,guess_start,320,space,0,0,47,446110,682738
13,40,male,Belgian,2,48,guess,loss,10,left,4,guess_choice,823,j,0,0,47,445285,683563
13,40,male,Belgian,2,48,guess,loss,10,left,4,guess_outcome,0,undefined,0,0,32,443728,685120
13,40,male,Belgian,2,48,ITC,loss,10,left,4,ITC_start,263,space,0,0,32,443462,685386
13,40,male,Belgian,2,48,ITC,loss,10,left,4,ITC_choice,1488,j,0,0,32,441973,686875
13,40,male,Belgian,2,48,ITC,loss,10,left,4,ITC_wait,0,undefined,0,0,32,441971,686877
13,40,male,Belgian,2,48,ITC,loss,10,left,4,ITC_collect,932,k,0,0,32,441037,687811
13,40,male,Belgian,2,48,ITC,loss,10,left,4,ITC_outcome,0,undefined,0,0,36,440032,688816
13,40,male,Belgian,2,49,guess,loss,5,left,2,guess_start,690,space,0,0,36,439341,689507
13,40,male,Belgian,2,49,guess,loss,5,left,2,guess_choice,819,j,0,0,36,438518,690330
13,40,male,Belgian,2,49,guess,loss,5,left,2,guess_outcome,0,undefined,0,0,21,436960,691888
13,40,male,Belgian,2,49,ITC,loss,5,left,2,ITC_start,665,space,0,0,21,436292,692556
13,40,male,Belgian,2,49,ITC,loss,5,left,2,ITC_choice,1390,f,0,0,21,434902,693946
13,40,male,Belgian,2,49,ITC,loss,5,left,2,ITC_wait,0,undefined,0,0,21,429900,698948
13,40,male,Belgian,2,49,ITC,loss,5,left,2,ITC_collect,381,k,0,0,21,429518,699330
13,40,male,Belgian,2,49,ITC,loss,5,left,2,ITC_outcome,0,undefined,0,0,41,428511,700337
13,40,male,Belgian,2,50,guess,neutral,5,left,5,guess_start,89,space,0,0,41,428421,700427
13,40,male,Belgian,2,50,guess,neutral,5,left,5,guess_choice,949,j,0,0,41,427470,701378
13,40,male,Belgian,2,50,guess,neutral,5,left,5,guess_outcome,0,undefined,0,0,41,425914,702934
13,40,male,Belgian,2,50,ITC,neutral,5,left,5,ITC_start,699,space,0,0,41,425213,703635
13,40,male,Belgian,2,50,ITC,neutral,5,left,5,ITC_choice,2094,f,0,0,41,423118,705730
13,40,male,Belgian,2,50,ITC,neutral,5,left,5,ITC_wait,0,undefined,0,0,41,418114,710734
13,40,male,Belgian,2,50,ITC,neutral,5,left,5,ITC_collect,590,k,0,0,41,417524,711324
13,40,male,Belgian,2,50,ITC,neutral,5,left,5,ITC_outcome,0,undefined,0,0,61,416516,712332
13,40,male,Belgian,2,51,guess,win,5,right,14,guess_start,383,space,0,0,61,416132,712716
13,40,male,Belgian,2,51,guess,win,5,right,14,guess_choice,681,j,0,0,61,415447,713401
13,40,male,Belgian,2,51,guess,win,5,right,14,guess_outcome,0,undefined,0,0,81,413894,714954
13,40,male,Belgian,2,51,ITC,win,5,right,14,ITC_start,287,space,0,0,81,413606,715242
13,40,male,Belgian,2,51,ITC,win,5,right,14,ITC_choice,1266,f,0,0,81,412339,716509
13,40,male,Belgian,2,51,ITC,win,5,right,14,ITC_wait,0,undefined,0,0,81,412338,716510
13,40,male,Belgian,2,51,ITC,win,5,right,14,ITC_collect,1178,k,0,0,81,411157,717691
13,40,male,Belgian,2,51,ITC,win,5,right,14,ITC_outcome,0,undefined,0,0,95,410154,718694
13,40,male,Belgian,2,52,guess,neutral,5,left,7,guess_start,533,space,0,0,95,409620,719228
13,40,male,Belgian,2,52,guess,neutral,5,left,7,guess_choice,699,f,0,0,95,408917,719931
13,40,male,Belgian,2,52,guess,neutral,5,left,7,guess_outcome,0,undefined,0,0,95,407364,721484
13,40,male,Belgian,2,52,ITC,neutral,5,left,7,ITC_start,414,space,0,0,95,406949,721899
13,40,male,Belgian,2,52,ITC,neutral,5,left,7,ITC_choice,2112,f,0,0,95,404836,724012
13,40,male,Belgian,2,52,ITC,neutral,5,left,7,ITC_wait,0,undefined,0,0,95,399832,729016
13,40,male,Belgian,2,52,ITC,neutral,5,left,7,ITC_collect,314,k,0,0,95,399516,729332
13,40,male,Belgian,2,52,ITC,neutral,5,left,7,ITC_outcome,0,undefined,0,0,115,398513,730335
13,40,male,Belgian,2,53,guess,neutral,5,left,11,guess_start,284,space,0,0,115,398228,730620
13,40,male,Belgian,2,53,guess,neutral,5,left,11,guess_choice,676,f,0,0,115,397548,731300
13,40,male,Belgian,2,53,guess,neutral,5,left,11,guess_outcome,0,undefined,0,0,115,395994,732854
13,40,male,Belgian,2,53,ITC,neutral,5,left,11,ITC_start,557,space,0,0,115,395434,733414
13,40,male,Belgian,2,53,ITC,neutral,5,left,11,ITC_choice,1525,j,0,0,115,393909,734939
13,40,male,Belgian,2,53,ITC,neutral,5,left,11,ITC_wait,0,undefined,0,0,115,393907,734941
13,40,male,Belgian,2,53,ITC,neutral,5,left,11,ITC_collect,583,k,0,0,115,393324,735524
13,40,male,Belgian,2,53,ITC,neutral,5,left,11,ITC_outcome,0,undefined,0,0,126,392319,736529
13,40,male,Belgian,2,54,guess,win,5,left,8,guess_start,578,space,0,0,126,391741,737107
13,40,male,Belgian,2,54,guess,win,5,left,8,guess_choice,733,f,0,0,126,391005,737843
13,40,male,Belgian,2,54,guess,win,5,left,8,guess_outcome,0,undefined,0,0,146,389451,739397
13,40,male,Belgian,2,54,ITC,win,5,left,8,ITC_start,796,space,0,0,146,388653,740195
13,40,male,Belgian,2,54,ITC,win,5,left,8,ITC_choice,2199,f,0,0,146,386452,742396
13,40,male,Belgian,2,54,ITC,win,5,left,8,ITC_wait,0,undefined,0,0,146,381449,747399
13,40,male,Belgian,2,54,ITC,win,5,left,8,ITC_collect,299,k,0,0,146,381149,747699
13,40,male,Belgian,2,54,ITC,win,5,left,8,ITC_outcome,0,undefined,0,0,166,380146,748702
13,40,male,Belgian,2,55,guess,loss,10,left,6,guess_start,276,space,0,0,166,379869,748979
13,40,male,Belgian,2,55,guess,loss,10,left,6,guess_choice,614,j,0,0,166,379252,749596
13,40,male,Belgian,2,55,guess,loss,10,left,6,guess_outcome,0,undefined,0,0,151,377697,751151
13,40,male,Belgian,2,55,ITC,loss,10,left,6,ITC_start,309,space,0,0,151,377387,751461
13,40,male,Belgian,2,55,ITC,loss,10,left,6,ITC_choice,1524,j,0,0,151,375860,752988
13,40,male,Belgian,2,55,ITC,loss,10,left,6,ITC_wait,0,undefined,0,0,151,375858,752990
13,40,male,Belgian,2,55,ITC,loss,10,left,6,ITC_collect,652,k,0,0,151,375205,753643
13,40,male,Belgian,2,55,ITC,loss,10,left,6,ITC_outcome,0,undefined,0,0,157,374201,754647
13,40,male,Belgian,2,56,guess,neutral,5,right,4,guess_start,699,space,0,0,157,373500,755348
13,40,male,Belgian,2,56,guess,neutral,5,right,4,guess_choice,615,f,0,0,157,372883,755965
13,40,male,Belgian,2,56,guess,neutral,5,right,4,guess_outcome,0,undefined,0,0,157,371328,757520
13,40,male,Belgian,2,56,ITC,neutral,5,right,4,ITC_start,530,space,0,0,157,370796,758052
13,40,male,Belgian,2,56,ITC,neutral,5,right,4,ITC_choice,1759,j,0,0,157,369034,759814
13,40,male,Belgian,2,56,ITC,neutral,5,right,4,ITC_wait,0,undefined,0,0,157,364032,764816
13,40,male,Belgian,2,56,ITC,neutral,5,right,4,ITC_collect,275,k,0,0,157,363755,765093
13,40,male,Belgian,2,56,ITC,neutral,5,right,4,ITC_outcome,0,undefined,0,0,177,362750,766098
13,40,male,Belgian,2,57,guess,loss,5,left,1,guess_start,89,space,0,0,177,362660,766188
13,40,male,Belgian,2,57,guess,loss,5,left,1,guess_choice,1148,j,0,0,177,361508,767340
13,40,male,Belgian,2,57,guess,loss,5,left,1,guess_outcome,0,undefined,0,0,162,359950,768898
13,40,male,Belgian,2,57,ITC,loss,5,left,1,ITC_start,497,space,0,0,162,359452,769396
13,40,male,Belgian,2,57,ITC,loss,5,left,1,ITC_choice,1673,f,0,0,162,357778,771070
13,40,male,Belgian,2,57,ITC,loss,5,left,1,ITC_wait,0,undefined,0,0,162,352773,776075
13,40,male,Belgian,2,57,ITC,loss,5,left,1,ITC_collect,250,k,0,0,162,352521,776327
13,40,male,Belgian,2,57,ITC,loss,5,left,1,ITC_outcome,0,undefined,0,0,182,351513,777335
13,40,male,Belgian,2,58,guess,loss,5,left,4,guess_start,2030,space,0,0,182,349481,779367
13,40,male,Belgian,2,58,guess,loss,5,left,4,guess_choice,756,f,0,0,182,348722,780126
13,40,male,Belgian,2,58,guess,loss,5,left,4,guess_outcome,0,undefined,0,0,167,347166,781682
13,40,male,Belgian,2,58,ITC,loss,5,left,4,ITC_start,617,space,0,0,167,346547,782301
13,40,male,Belgian,2,58,ITC,loss,5,left,4,ITC_choice,1853,f,0,0,167,344692,784156
13,40,male,Belgian,2,58,ITC,loss,5,left,4,ITC_wait,0,undefined,0,0,167,339690,789158
13,40,male,Belgian,2,58,ITC,loss,5,left,4,ITC_collect,397,k,0,0,167,339291,789557
13,40,male,Belgian,2,58,ITC,loss,5,left,4,ITC_outcome,0,undefined,0,0,187,338282,790566
13,40,male,Belgian,2,59,guess,loss,5,right,12,guess_start,103,space,0,0,187,338178,790670
13,40,male,Belgian,2,59,guess,loss,5,right,12,guess_choice,674,j,0,0,187,337499,791349
13,40,male,Belgian,2,59,guess,loss,5,right,12,guess_outcome,0,undefined,0,0,172,335945,792903
13,40,male,Belgian,2,59,ITC,loss,5,right,12,ITC_start,64,space,0,0,172,335881,792967
13,40,male,Belgian,2,59,ITC,loss,5,right,12,ITC_choice,1941,f,0,0,172,333938,794910
13,40,male,Belgian,2,59,ITC,loss,5,right,12,ITC_wait,0,undefined,0,0,172,333935,794913
13,40,male,Belgian,2,59,ITC,loss,5,right,12,ITC_collect,1323,k,0,0,172,332611,796237
13,40,male,Belgian,2,59,ITC,loss,5,right,12,ITC_outcome,0,undefined,0,0,184,331607,797241
13,40,male,Belgian,2,60,guess,win,5,left,2,guess_start,507,space,0,0,184,331099,797749
13,40,male,Belgian,2,60,guess,win,5,left,2,guess_choice,871,f,0,0,184,330225,798623
13,40,male,Belgian,2,60,guess,win,5,left,2,guess_outcome,0,undefined,0,0,204,328670,800178
13,40,male,Belgian,2,60,ITC,win,5,left,2,ITC_start,307,space,0,0,204,328362,800486
13,40,male,Belgian,2,60,ITC,win,5,left,2,ITC_choice,1544,f,0,0,204,326818,802030
13,40,male,Belgian,2,60,ITC,win,5,left,2,ITC_wait,0,undefined,0,0,204,321812,807036
13,40,male,Belgian,2,60,ITC,win,5,left,2,ITC_collect,256,k,0,0,204,321554,807294
13,40,male,Belgian,2,60,ITC,win,5,left,2,ITC_outcome,0,undefined,0,0,224,320549,808299
13,40,male,Belgian,2,61,guess,loss,10,left,7,guess_start,371,space,0,0,224,320177,808671
13,40,male,Belgian,2,61,guess,loss,10,left,7,guess_choice,963,j,0,0,224,319210,809638
13,40,male,Belgian,2,61,guess,loss,10,left,7,guess_outcome,0,undefined,0,0,209,317657,811191
13,40,male,Belgian,2,61,ITC,loss,10,left,7,ITC_start,279,space,0,0,209,317378,811470
13,40,male,Belgian,2,61,ITC,loss,10,left,7,ITC_choice,1350,j,0,0,209,316026,812822
13,40,male,Belgian,2,61,ITC,loss,10,left,7,ITC_wait,0,undefined,0,0,209,316022,812826
13,40,male,Belgian,2,61,ITC,loss,10,left,7,ITC_collect,722,k,0,0,209,315300,813548
13,40,male,Belgian,2,61,ITC,loss,10,left,7,ITC_outcome,0,undefined,0,0,216,314292,814556
13,40,male,Belgian,2,62,guess,neutral,10,right,4,guess_start,727,space,0,0,216,313562,815286
13,40,male,Belgian,2,62,guess,neutral,10,right,4,guess_choice,688,j,0,0,216,312872,815976
13,40,male,Belgian,2,62,guess,neutral,10,right,4,guess_outcome,0,undefined,0,0,216,311317,817531
13,40,male,Belgian,2,62,ITC,neutral,10,right,4,ITC_start,299,space,0,0,216,311017,817831
13,40,male,Belgian,2,62,ITC,neutral,10,right,4,ITC_choice,2037,f,0,0,216,308980,819868
13,40,male,Belgian,2,62,ITC,neutral,10,right,4,ITC_wait,0,undefined,0,0,216,308977,819871
13,40,male,Belgian,2,62,ITC,neutral,10,right,4,ITC_collect,1046,k,0,0,216,307931,820917
13,40,male,Belgian,2,62,ITC,neutral,10,right,4,ITC_outcome,0,undefined,0,0,220,306923,821925
13,40,male,Belgian,2,63,guess,neutral,5,left,13,guess_start,206,space,0,0,220,306714,822134
13,40,male,Belgian,2,63,guess,neutral,5,left,13,guess_choice,622,f,0,0,220,306089,822759
13,40,male,Belgian,2,63,guess,neutral,5,left,13,guess_outcome,0,undefined,0,0,220,304531,824317
13,40,male,Belgian,2,63,ITC,neutral,5,left,13,ITC_start,394,space,0,0,220,304136,824712
13,40,male,Belgian,2,63,ITC,neutral,5,left,13,ITC_choice,1293,f,0,0,220,302841,826007
13,40,male,Belgian,2,63,ITC,neutral,5,left,13,ITC_wait,0,undefined,0,0,220,297840,831008
13,40,male,Belgian,2,63,ITC,neutral,5,left,13,ITC_collect,332,k,0,0,220,297506,831342
13,40,male,Belgian,2,63,ITC,neutral,5,left,13,ITC_outcome,0,undefined,0,0,240,296500,832348
13,40,male,Belgian,2,64,guess,win,5,left,7,guess_start,306,space,0,0,240,296194,832654
13,40,male,Belgian,2,64,guess,win,5,left,7,guess_choice,957,j,0,0,240,295233,833615
13,40,male,Belgian,2,64,guess,win,5,left,7,guess_outcome,0,undefined,0,0,260,293673,835175
13,40,male,Belgian,2,64,ITC,win,5,left,7,ITC_start,311,space,0,0,260,293361,835487
13,40,male,Belgian,2,64,ITC,win,5,left,7,ITC_choice,1839,f,0,0,260,291520,837328
13,40,male,Belgian,2,64,ITC,win,5,left,7,ITC_wait,0,undefined,0,0,260,286516,842332
13,40,male,Belgian,2,64,ITC,win,5,left,7,ITC_collect,282,k,0,0,260,286232,842616
13,40,male,Belgian,2,64,ITC,win,5,left,7,ITC_outcome,0,undefined,0,0,280,285225,843623
13,40,male,Belgian,2,65,guess,neutral,5,left,15,guess_start,268,space,0,0,280,284954,843894
13,40,male,Belgian,2,65,guess,neutral,5,left,15,guess_choice,623,j,0,0,280,284327,844521
13,40,male,Belgian,2,65,guess,neutral,5,left,15,guess_outcome,0,undefined,0,0,280,282773,846075
13,40,male,Belgian,2,65,ITC,neutral,5,left,15,ITC_start,265,space,0,0,280,282506,846342
13,40,male,Belgian,2,65,ITC,neutral,5,left,15,ITC_choice,1607,j,0,0,280,280897,847951
13,40,male,Belgian,2,65,ITC,neutral,5,left,15,ITC_wait,0,undefined,0,0,280,280896,847952
13,40,male,Belgian,2,65,ITC,neutral,5,left,15,ITC_collect,1102,k,0,0,280,279794,849054
13,40,male,Belgian,2,65,ITC,neutral,5,left,15,ITC_outcome,0,undefined,0,0,295,278787,850061
13,40,male,Belgian,2,66,guess,neutral,5,right,2,guess_start,561,space,0,0,295,278224,850624
13,40,male,Belgian,2,66,guess,neutral,5,right,2,guess_choice,667,f,0,0,295,277553,851295
13,40,male,Belgian,2,66,guess,neutral,5,right,2,guess_outcome,0,undefined,0,0,295,275995,852853
13,40,male,Belgian,2,66,ITC,neutral,5,right,2,ITC_start,307,space,0,0,295,275687,853161
13,40,male,Belgian,2,66,ITC,neutral,5,right,2,ITC_choice,2492,j,0,0,295,273194,855654
13,40,male,Belgian,2,66,ITC,neutral,5,right,2,ITC_wait,0,undefined,0,0,295,268190,860658
13,40,male,Belgian,2,66,ITC,neutral,5,right,2,ITC_collect,284,k,0,0,295,267905,860943
13,40,male,Belgian,2,66,ITC,neutral,5,right,2,ITC_outcome,0,undefined,0,0,315,266897,861951
13,40,male,Belgian,2,67,guess,win,10,right,4,guess_start,432,space,0,0,315,266464,862384
13,40,male,Belgian,2,67,guess,win,10,right,4,guess_choice,693,j,0,0,315,265767,863081
13,40,male,Belgian,2,67,guess,win,10,right,4,guess_outcome,0,undefined,0,0,335,264209,864639
13,40,male,Belgian,2,67,ITC,win,10,right,4,ITC_start,281,space,0,0,335,263927,864921
13,40,male,Belgian,2,67,ITC,win,10,right,4,ITC_choice,1398,f,0,0,335,262527,866321
13,40,male,Belgian,2,67,ITC,win,10,right,4,ITC_wait,0,undefined,0,0,335,262525,866323
13,40,male,Belgian,2,67,ITC,win,10,right,4,ITC_collect,810,k,0,0,335,261712,867136
13,40,male,Belgian,2,67,ITC,win,10,right,4,ITC_outcome,0,undefined,0,0,339,260707,868141
13,40,male,Belgian,2,68,guess,win,10,left,6,guess_start,648,space,0,0,339,260057,868791
13,40,male,Belgian,2,68,guess,win,10,left,6,guess_choice,734,j,0,0,339,259319,869529
13,40,male,Belgian,2,68,guess,win,10,left,6,guess_outcome,0,undefined,0,0,359,257765,871083
13,40,male,Belgian,2,68,ITC,win,10,left,6,ITC_start,364,space,0,0,359,257401,871447
13,40,male,Belgian,2,68,ITC,win,10,left,6,ITC_choice,1360,j,0,0,359,256040,872808
13,40,male,Belgian,2,68,ITC,win,10,left,6,ITC_wait,0,undefined,0,0,359,256037,872811
13,40,male,Belgian,2,68,ITC,win,10,left,6,ITC_collect,861,k,0,0,359,255175,873673
13,40,male,Belgian,2,68,ITC,win,10,left,6,ITC_outcome,0,undefined,0,0,365,254170,874678
13,40,male,Belgian,2,69,guess,neutral,5,right,16,guess_start,425,space,0,0,365,253743,875105
13,40,male,Belgian,2,69,guess,neutral,5,right,16,guess_choice,716,j,0,0,365,253023,875825
13,40,male,Belgian,2,69,guess,neutral,5,right,16,guess_outcome,0,undefined,0,0,365,251464,877384
13,40,male,Belgian,2,69,ITC,neutral,5,right,16,ITC_start,263,space,0,0,365,251201,877647
13,40,male,Belgian,2,69,ITC,neutral,5,right,16,ITC_choice,3255,f,0,0,365,247945,880903
13,40,male,Belgian,2,69,ITC,neutral,5,right,16,ITC_wait,0,undefined,0,0,365,247943,880905
13,40,male,Belgian,2,69,ITC,neutral,5,right,16,ITC_collect,932,k,0,0,365,247009,881839
13,40,male,Belgian,2,69,ITC,neutral,5,right,16,ITC_outcome,0,undefined,0,0,381,246005,882843
13,40,male,Belgian,2,70,guess,loss,5,right,6,guess_start,251,space,0,0,381,245753,883095
13,40,male,Belgian,2,70,guess,loss,5,right,6,guess_choice,788,j,0,0,381,244961,883887
13,40,male,Belgian,2,70,guess,loss,5,right,6,guess_outcome,0,undefined,0,0,366,243403,885445
13,40,male,Belgian,2,70,ITC,loss,5,right,6,ITC_start,305,space,0,0,366,243097,885751
13,40,male,Belgian,2,70,ITC,loss,5,right,6,ITC_choice,2095,j,0,0,366,240999,887849
13,40,male,Belgian,2,70,ITC,loss,5,right,6,ITC_wait,0,undefined,0,0,366,235996,892852
13,40,male,Belgian,2,70,ITC,loss,5,right,6,ITC_collect,155,k,0,0,366,235840,893008
13,40,male,Belgian,2,70,ITC,loss,5,right,6,ITC_outcome,0,undefined,0,0,386,234837,894011
13,40,male,Belgian,2,71,guess,loss,5,right,16,guess_start,331,space,0,0,386,234504,894344
13,40,male,Belgian,2,71,guess,loss,5,right,16,guess_choice,693,j,0,0,386,233808,895040
13,40,male,Belgian,2,71,guess,loss,5,right,16,guess_outcome,0,undefined,0,0,371,232251,896597
13,40,male,Belgian,2,71,ITC,loss,5,right,16,ITC_start,331,space,0,0,371,231919,896929
13,40,male,Belgian,2,71,ITC,loss,5,right,16,ITC_wait,0,undefined,0,0,371,230885,897963
13,40,male,Belgian,2,71,ITC,loss,5,right,16,ITC_choice,1030,f,0,0,371,230887,897961
13,40,male,Belgian,2,71,ITC,loss,5,right,16,ITC_collect,884,k,0,0,371,230000,898848
13,40,male,Belgian,2,71,ITC,loss,5,right,16,ITC_outcome,0,undefined,0,0,387,228993,899855
13,40,male,Belgian,2,72,guess,win,5,right,5,guess_start,656,space,0,0,387,228336,900512
13,40,male,Belgian,2,72,guess,win,5,right,5,guess_choice,703,f,0,0,387,227630,901218
13,40,male,Belgian,2,72,guess,win,5,right,5,guess_outcome,0,undefined,0,0,407,226074,902774
13,40,male,Belgian,2,72,ITC,win,5,right,5,ITC_start,410,space,0,0,407,225663,903185
13,40,male,Belgian,2,72,ITC,win,5,right,5,ITC_choice,1423,f,0,0,407,224240,904608
13,40,male,Belgian,2,72,ITC,win,5,right,5,ITC_wait,0,undefined,0,0,407,224237,904611
13,40,male,Belgian,2,72,ITC,win,5,right,5,ITC_collect,628,k,0,0,407,223608,905240
13,40,male,Belgian,2,72,ITC,win,5,right,5,ITC_outcome,0,undefined,0,0,412,222605,906243
13,40,male,Belgian,2,73,guess,neutral,10,left,5,guess_start,581,space,0,0,412,222022,906826
13,40,male,Belgian,2,73,guess,neutral,10,left,5,guess_choice,771,j,0,0,412,221248,907600
13,40,male,Belgian,2,73,guess,neutral,10,left,5,guess_outcome,0,undefined,0,0,412,219690,909158
13,40,male,Belgian,2,73,ITC,neutral,10,left,5,ITC_start,448,space,0,0,412,219239,909609
13,40,male,Belgian,2,73,ITC,neutral,10,left,5,ITC_choice,1143,j,0,0,412,218095,910753
13,40,male,Belgian,2,73,ITC,neutral,10,left,5,ITC_wait,0,undefined,0,0,412,218091,910757
13,40,male,Belgian,2,73,ITC,neutral,10,left,5,ITC_collect,795,k,0,0,412,217296,911552
13,40,male,Belgian,2,73,ITC,neutral,10,left,5,ITC_outcome,0,undefined,0,0,417,216290,912558
13,40,male,Belgian,2,74,guess,loss,5,right,3,guess_start,243,space,0,0,417,216047,912801
13,40,male,Belgian,2,74,guess,loss,5,right,3,guess_choice,854,j,0,0,417,215191,913657
13,40,male,Belgian,2,74,guess,loss,5,right,3,guess_outcome,0,undefined,0,0,402,213637,915211
13,40,male,Belgian,2,74,ITC,loss,5,right,3,ITC_start,244,space,0,0,402,213392,915456
13,40,male,Belgian,2,74,ITC,loss,5,right,3,ITC_choice,1721,j,0,0,402,211670,917178
13,40,male,Belgian,2,74,ITC,loss,5,right,3,ITC_wait,0,undefined,0,0,402,206664,922184
13,40,male,Belgian,2,74,ITC,loss,5,right,3,ITC_collect,214,k,0,0,402,206448,922400
13,40,male,Belgian,2,74,ITC,loss,5,right,3,ITC_outcome,0,undefined,0,0,422,205442,923406
13,40,male,Belgian,2,75,guess,win,5,left,8,guess_start,233,space,0,0,422,205208,923640
13,40,male,Belgian,2,75,guess,win,5,left,8,guess_choice,630,f,0,0,422,204573,924275
13,40,male,Belgian,2,75,guess,win,5,left,8,guess_outcome,0,undefined,0,0,442,203015,925833
13,40,male,Belgian,2,75,ITC,win,5,left,8,ITC_start,271,space,0,0,442,202743,926105
13,40,male,Belgian,2,75,ITC,win,5,left,8,ITC_choice,2558,j,0,0,442,200183,928665
13,40,male,Belgian,2,75,ITC,win,5,left,8,ITC_wait,0,undefined,0,0,442,200182,928666
13,40,male,Belgian,2,75,ITC,win,5,left,8,ITC_collect,607,k,0,0,442,199574,929274
13,40,male,Belgian,2,75,ITC,win,5,left,8,ITC_outcome,0,undefined,0,0,450,198567,930281
13,40,male,Belgian,2,76,guess,neutral,5,left,13,guess_start,270,space,0,0,450,198296,930552
13,40,male,Belgian,2,76,guess,neutral,5,left,13,guess_choice,645,j,0,0,450,197648,931200
13,40,male,Belgian,2,76,guess,neutral,5,left,13,guess_outcome,0,undefined,0,0,450,196092,932756
13,40,male,Belgian,2,76,ITC,neutral,5,left,13,ITC_start,510,space,0,0,450,195581,933267
13,40,male,Belgian,2,76,ITC,neutral,5,left,13,ITC_choice,1309,j,0,0,450,194270,934578
13,40,male,Belgian,2,76,ITC,neutral,5,left,13,ITC_wait,0,undefined,0,0,450,194266,934582
13,40,male,Belgian,2,76,ITC,neutral,5,left,13,ITC_collect,796,k,0,0,450,193470,935378
13,40,male,Belgian,2,76,ITC,neutral,5,left,13,ITC_outcome,0,undefined,0,0,463,192462,936386
13,40,male,Belgian,2,77,guess,neutral,5,right,2,guess_start,190,space,0,0,463,192269,936579
13,40,male,Belgian,2,77,guess,neutral,5,right,2,guess_choice,684,j,0,0,463,191581,937267
13,40,male,Belgian,2,77,guess,neutral,5,right,2,guess_outcome,0,undefined,0,0,463,190024,938824
13,40,male,Belgian,2,77,ITC,neutral,5,right,2,ITC_start,297,space,0,0,463,189725,939123
13,40,male,Belgian,2,77,ITC,neutral,5,right,2,ITC_choice,1973,j,0,0,463,187750,941098
13,40,male,Belgian,2,77,ITC,neutral,5,right,2,ITC_wait,0,undefined,0,0,463,182745,946103
13,40,male,Belgian,2,77,ITC,neutral,5,right,2,ITC_collect,234,k,0,0,463,182510,946338
13,40,male,Belgian,2,77,ITC,neutral,5,right,2,ITC_outcome,0,undefined,0,0,483,181507,947341
13,40,male,Belgian,2,78,guess,win,5,left,10,guess_start,115,space,0,0,483,181390,947458
13,40,male,Belgian,2,78,guess,win,5,left,10,guess_choice,765,j,0,0,483,180621,948227
13,40,male,Belgian,2,78,guess,win,5,left,10,guess_outcome,0,undefined,0,0,503,179065,949783
13,40,male,Belgian,2,78,ITC,win,5,left,10,ITC_start,368,space,0,0,503,178695,950153
13,40,male,Belgian,2,78,ITC,win,5,left,10,ITC_choice,1638,j,0,0,503,177054,951794
13,40,male,Belgian,2,78,ITC,win,5,left,10,ITC_wait,0,undefined,0,0,503,177052,951796
13,40,male,Belgian,2,78,ITC,win,5,left,10,ITC_collect,678,k,0,0,503,176373,952475
13,40,male,Belgian,2,78,ITC,win,5,left,10,ITC_outcome,0,undefined,0,0,513,175366,953482
13,40,male,Belgian,2,79,guess,neutral,5,left,1,guess_start,54,space,0,0,513,175310,953538
13,40,male,Belgian,2,79,guess,neutral,5,left,1,guess_choice,805,f,0,0,513,174502,954346
13,40,male,Belgian,2,79,guess,neutral,5,left,1,guess_outcome,0,undefined,0,0,513,172944,955904
13,40,male,Belgian,2,79,ITC,neutral,5,left,1,ITC_start,289,space,0,0,513,172653,956195
13,40,male,Belgian,2,79,ITC,neutral,5,left,1,ITC_choice,2046,f,0,0,513,170605,958243
13,40,male,Belgian,2,79,ITC,neutral,5,left,1,ITC_wait,0,undefined,0,0,513,165600,963248
13,40,male,Belgian,2,79,ITC,neutral,5,left,1,ITC_collect,409,k,0,0,513,165190,963658
13,40,male,Belgian,2,79,ITC,neutral,5,left,1,ITC_outcome,0,undefined,0,0,533,164189,964659
13,40,male,Belgian,2,80,guess,loss,5,right,12,guess_start,37,space,0,0,533,164150,964698
13,40,male,Belgian,2,80,guess,loss,5,right,12,guess_choice,709,j,0,0,533,163438,965410
13,40,male,Belgian,2,80,guess,loss,5,right,12,guess_outcome,0,undefined,0,0,518,161882,966966
13,40,male,Belgian,2,80,ITC,loss,5,right,12,ITC_start,596,space,0,0,518,161284,967564
13,40,male,Belgian,2,80,ITC,loss,5,right,12,ITC_wait,0,undefined,0,0,518,160243,968605
13,40,male,Belgian,2,80,ITC,loss,5,right,12,ITC_choice,1038,f,0,0,518,160246,968602
13,40,male,Belgian,2,80,ITC,loss,5,right,12,ITC_collect,766,k,0,0,518,159477,969371
13,40,male,Belgian,2,80,ITC,loss,5,right,12,ITC_outcome,0,undefined,0,0,530,158469,970379
13,40,male,Belgian,2,81,guess,loss,5,left,13,guess_start,8,space,0,0,530,158459,970389
13,40,male,Belgian,2,81,guess,loss,5,left,13,guess_choice,985,f,0,0,530,157468,971380
13,40,male,Belgian,2,81,guess,loss,5,left,13,guess_outcome,0,undefined,0,0,515,155911,972937
13,40,male,Belgian,2,81,ITC,loss,5,left,13,ITC_start,1130,space,0,0,515,154779,974069
13,40,male,Belgian,2,81,ITC,loss,5,left,13,ITC_choice,1285,j,0,0,515,153494,975354
13,40,male,Belgian,2,81,ITC,loss,5,left,13,ITC_wait,0,undefined,0,0,515,153492,975356
13,40,male,Belgian,2,81,ITC,loss,5,left,13,ITC_collect,788,k,0,0,515,152702,976146
13,40,male,Belgian,2,81,ITC,loss,5,left,13,ITC_outcome,0,undefined,0,0,528,151694,977154
13,40,male,Belgian,2,82,guess,neutral,10,right,7,guess_start,584,space,0,0,528,151109,977739
13,40,male,Belgian,2,82,guess,neutral,10,right,7,guess_choice,725,j,0,0,528,150381,978467
13,40,male,Belgian,2,82,guess,neutral,10,right,7,guess_outcome,0,undefined,0,0,528,148826,980022
13,40,male,Belgian,2,82,ITC,neutral,10,right,7,ITC_start,163,space,0,0,528,148661,980187
13,40,male,Belgian,2,82,ITC,neutral,10,right,7,ITC_choice,2127,f,0,0,528,146531,982317
13,40,male,Belgian,2,82,ITC,neutral,10,right,7,ITC_wait,0,undefined,0,0,528,146529,982319
13,40,male,Belgian,2,82,ITC,neutral,10,right,7,ITC_collect,331,k,0,0,528,146196,982652
13,40,male,Belgian,2,82,ITC,neutral,10,right,7,ITC_outcome,0,undefined,0,0,535,145190,983658
13,40,male,Belgian,2,83,guess,win,5,left,9,guess_start,678,space,0,0,535,144510,984338
13,40,male,Belgian,2,83,guess,win,5,left,9,guess_choice,797,j,0,0,535,143709,985139
13,40,male,Belgian,2,83,guess,win,5,left,9,guess_outcome,0,undefined,0,0,555,142155,986693
13,40,male,Belgian,2,83,ITC,win,5,left,9,ITC_start,604,space,0,0,555,141550,987298
13,40,male,Belgian,2,83,ITC,win,5,left,9,ITC_choice,1689,j,0,0,555,139860,988988
13,40,male,Belgian,2,83,ITC,win,5,left,9,ITC_wait,0,undefined,0,0,555,139858,988990
13,40,male,Belgian,2,83,ITC,win,5,left,9,ITC_collect,726,k,0,0,555,139130,989718
13,40,male,Belgian,2,83,ITC,win,5,left,9,ITC_outcome,0,undefined,0,0,564,138122,990726
13,40,male,Belgian,2,84,guess,loss,10,right,3,guess_start,45,space,0,0,564,138074,990774
13,40,male,Belgian,2,84,guess,loss,10,right,3,guess_choice,700,j,0,0,564,137371,991477
13,40,male,Belgian,2,84,guess,loss,10,right,3,guess_outcome,0,undefined,0,0,549,135814,993034
13,40,male,Belgian,2,84,ITC,loss,10,right,3,ITC_start,448,space,0,0,549,135364,993484
13,40,male,Belgian,2,84,ITC,loss,10,right,3,ITC_choice,1725,f,0,0,549,133636,995212
13,40,male,Belgian,2,84,ITC,loss,10,right,3,ITC_wait,0,undefined,0,0,549,133635,995213
13,40,male,Belgian,2,84,ITC,loss,10,right,3,ITC_collect,462,k,0,0,549,133171,995677
13,40,male,Belgian,2,84,ITC,loss,10,right,3,ITC_outcome,0,undefined,0,0,552,132168,996680
13,40,male,Belgian,2,85,guess,loss,10,right,4,guess_start,457,space,0,0,552,131709,997139
13,40,male,Belgian,2,85,guess,loss,10,right,4,guess_choice,943,f,0,0,552,130763,998085
13,40,male,Belgian,2,85,guess,loss,10,right,4,guess_outcome,0,undefined,0,0,537,129206,999642
13,40,male,Belgian,2,85,ITC,loss,10,right,4,ITC_start,386,space,0,0,537,128820,1000028
13,40,male,Belgian,2,85,ITC,loss,10,right,4,ITC_choice,1798,f,0,0,537,127019,1001829
13,40,male,Belgian,2,85,ITC,loss,10,right,4,ITC_wait,0,undefined,0,0,537,127017,1001831
13,40,male,Belgian,2,85,ITC,loss,10,right,4,ITC_collect,580,k,0,0,537,126436,1002412
13,40,male,Belgian,2,85,ITC,loss,10,right,4,ITC_outcome,0,undefined,0,0,541,125432,1003416
13,40,male,Belgian,2,86,guess,neutral,5,right,4,guess_start,611,space,0,0,541,124819,1004029
13,40,male,Belgian,2,86,guess,neutral,5,right,4,guess_choice,722,j,0,0,541,124093,1004755
13,40,male,Belgian,2,86,guess,neutral,5,right,4,guess_outcome,0,undefined,0,0,541,122535,1006313
13,40,male,Belgian,2,86,ITC,neutral,5,right,4,ITC_start,554,space,0,0,541,121979,1006869
13,40,male,Belgian,2,86,ITC,neutral,5,right,4,ITC_choice,1701,j,0,0,541,120276,1008572
13,40,male,Belgian,2,86,ITC,neutral,5,right,4,ITC_wait,0,undefined,0,0,541,115270,1013578
13,40,male,Belgian,2,86,ITC,neutral,5,right,4,ITC_collect,280,k,0,0,541,114988,1013860
13,40,male,Belgian,2,86,ITC,neutral,5,right,4,ITC_outcome,0,undefined,0,0,561,113983,1014865
13,40,male,Belgian,2,87,guess,neutral,10,left,6,guess_start,330,space,0,0,561,113652,1015196
13,40,male,Belgian,2,87,guess,neutral,10,left,6,guess_choice,765,f,0,0,561,112882,1015966
13,40,male,Belgian,2,87,guess,neutral,10,left,6,guess_outcome,0,undefined,0,0,561,111328,1017520
13,40,male,Belgian,2,87,ITC,neutral,10,left,6,ITC_start,539,space,0,0,561,110787,1018061
13,40,male,Belgian,2,87,ITC,neutral,10,left,6,ITC_choice,1287,j,0,0,561,109497,1019351
13,40,male,Belgian,2,87,ITC,neutral,10,left,6,ITC_wait,0,undefined,0,0,561,109495,1019353
13,40,male,Belgian,2,87,ITC,neutral,10,left,6,ITC_collect,483,k,0,0,561,109011,1019837
13,40,male,Belgian,2,87,ITC,neutral,10,left,6,ITC_outcome,0,undefined,0,0,567,108005,1020843
13,40,male,Belgian,2,88,guess,neutral,5,left,6,guess_start,360,space,0,0,567,107645,1021203
13,40,male,Belgian,2,88,guess,neutral,5,left,6,guess_choice,693,j,0,0,567,106948,1021900
13,40,male,Belgian,2,88,guess,neutral,5,left,6,guess_outcome,0,undefined,0,0,567,105393,1023455
13,40,male,Belgian,2,88,ITC,neutral,5,left,6,ITC_start,338,space,0,0,567,105052,1023796
13,40,male,Belgian,2,88,ITC,neutral,5,left,6,ITC_choice,2681,j,0,0,567,102370,1026478
13,40,male,Belgian,2,88,ITC,neutral,5,left,6,ITC_wait,0,undefined,0,0,567,102367,1026481
13,40,male,Belgian,2,88,ITC,neutral,5,left,6,ITC_collect,700,k,0,0,567,101667,1027181
13,40,male,Belgian,2,88,ITC,neutral,5,left,6,ITC_outcome,0,undefined,0,0,573,100662,1028186
13,40,male,Belgian,2,89,guess,win,10,right,6,guess_start,552,space,0,0,573,100108,1028740
13,40,male,Belgian,2,89,guess,win,10,right,6,guess_choice,742,j,0,0,573,99362,1029486
13,40,male,Belgian,2,89,guess,win,10,right,6,guess_outcome,0,undefined,0,0,593,97805,1031043
13,40,male,Belgian,2,89,ITC,win,10,right,6,ITC_start,489,space,0,0,593,97314,1031534
13,40,male,Belgian,2,89,ITC,win,10,right,6,ITC_choice,1380,f,0,0,593,95932,1032916
13,40,male,Belgian,2,89,ITC,win,10,right,6,ITC_wait,0,undefined,0,0,593,95930,1032918
13,40,male,Belgian,2,89,ITC,win,10,right,6,ITC_collect,580,k,0,0,593,95348,1033500
13,40,male,Belgian,2,89,ITC,win,10,right,6,ITC_outcome,0,undefined,0,0,599,94342,1034506
13,40,male,Belgian,2,90,guess,neutral,10,left,1,guess_start,681,space,0,0,599,93660,1035188
13,40,male,Belgian,2,90,guess,neutral,10,left,1,guess_choice,605,j,0,0,599,93051,1035797
13,40,male,Belgian,2,90,guess,neutral,10,left,1,guess_outcome,0,undefined,0,0,599,91497,1037351
13,40,male,Belgian,2,90,ITC,neutral,10,left,1,ITC_start,457,space,0,0,599,91036,1037812
13,40,male,Belgian,2,90,ITC,neutral,10,left,1,ITC_wait,0,undefined,0,0,599,89028,1039820
13,40,male,Belgian,2,90,ITC,neutral,10,left,1,ITC_choice,2006,j,0,0,599,89029,1039819
13,40,male,Belgian,2,90,ITC,neutral,10,left,1,ITC_collect,870,k,0,0,599,88157,1040691
13,40,male,Belgian,2,90,ITC,neutral,10,left,1,ITC_outcome,0,undefined,0,0,600,87151,1041697
13,40,male,Belgian,2,91,guess,loss,5,left,9,guess_start,373,space,0,0,600,86777,1042071
13,40,male,Belgian,2,91,guess,loss,5,left,9,guess_choice,652,j,0,0,600,86122,1042726
13,40,male,Belgian,2,91,guess,loss,5,left,9,guess_outcome,0,undefined,0,0,585,84565,1044283
13,40,male,Belgian,2,91,ITC,loss,5,left,9,ITC_start,319,space,0,0,585,84244,1044604
13,40,male,Belgian,2,91,ITC,loss,5,left,9,ITC_choice,2040,j,0,0,585,82204,1046644
13,40,male,Belgian,2,91,ITC,loss,5,left,9,ITC_wait,0,undefined,0,0,585,82202,1046646
13,40,male,Belgian,2,91,ITC,loss,5,left,9,ITC_collect,797,k,0,0,585,81403,1047445
13,40,male,Belgian,2,91,ITC,loss,5,left,9,ITC_outcome,0,undefined,0,0,594,80400,1048448
13,40,male,Belgian,2,92,guess,win,5,right,15,guess_start,491,space,0,0,594,79907,1048941
13,40,male,Belgian,2,92,guess,win,5,right,15,guess_choice,917,j,0,0,594,78987,1049861
13,40,male,Belgian,2,92,guess,win,5,right,15,guess_outcome,0,undefined,0,0,614,77429,1051419
13,40,male,Belgian,2,92,ITC,win,5,right,15,ITC_start,489,space,0,0,614,76939,1051909
13,40,male,Belgian,2,92,ITC,win,5,right,15,ITC_wait,0,undefined,0,0,614,75897,1052951
13,40,male,Belgian,2,92,ITC,win,5,right,15,ITC_choice,1040,f,0,0,614,75899,1052949
13,40,male,Belgian,2,92,ITC,win,5,right,15,ITC_collect,814,k,0,0,614,75081,1053767
13,40,male,Belgian,2,92,ITC,win,5,right,15,ITC_outcome,0,undefined,0,0,629,74074,1054774
13,40,male,Belgian,2,93,guess,loss,10,left,7,guess_start,839,space,0,0,629,73234,1055614
13,40,male,Belgian,2,93,guess,loss,10,left,7,guess_choice,764,f,0,0,629,72466,1056382
13,40,male,Belgian,2,93,guess,loss,10,left,7,guess_outcome,0,undefined,0,0,614,70905,1057943
13,40,male,Belgian,2,93,ITC,loss,10,left,7,ITC_start,314,space,0,0,614,70587,1058261
13,40,male,Belgian,2,93,ITC,loss,10,left,7,ITC_choice,1246,j,0,0,614,69340,1059508
13,40,male,Belgian,2,93,ITC,loss,10,left,7,ITC_wait,0,undefined,0,0,614,69338,1059510
13,40,male,Belgian,2,93,ITC,loss,10,left,7,ITC_collect,549,k,0,0,614,68788,1060060
13,40,male,Belgian,2,93,ITC,loss,10,left,7,ITC_outcome,0,undefined,0,0,621,67784,1061064
13,40,male,Belgian,2,94,guess,loss,5,right,15,guess_start,499,space,0,0,621,67283,1061565
13,40,male,Belgian,2,94,guess,loss,5,right,15,guess_choice,655,j,0,0,621,66625,1062223
13,40,male,Belgian,2,94,guess,loss,5,right,15,guess_outcome,0,undefined,0,0,606,65071,1063777
13,40,male,Belgian,2,94,ITC,loss,5,right,15,ITC_start,18,space,0,0,606,65052,1063796
13,40,male,Belgian,2,94,ITC,loss,5,right,15,ITC_choice,1255,f,0,0,606,63795,1065053
13,40,male,Belgian,2,94,ITC,loss,5,right,15,ITC_wait,0,undefined,0,0,606,63793,1065055
13,40,male,Belgian,2,94,ITC,loss,5,right,15,ITC_collect,694,k,0,0,606,63099,1065749
13,40,male,Belgian,2,94,ITC,loss,5,right,15,ITC_outcome,0,undefined,0,0,621,62096,1066752
13,40,male,Belgian,2,95,guess,loss,10,left,2,guess_start,734,space,0,0,621,61360,1067488
13,40,male,Belgian,2,95,guess,loss,10,left,2,guess_choice,713,f,0,0,621,60643,1068205
13,40,male,Belgian,2,95,guess,loss,10,left,2,guess_outcome,0,undefined,0,0,606,59087,1069761
13,40,male,Belgian,2,95,ITC,loss,10,left,2,ITC_start,509,space,0,0,606,58577,1070271
13,40,male,Belgian,2,95,ITC,loss,10,left,2,ITC_choice,1197,j,0,0,606,57378,1071470
13,40,male,Belgian,2,95,ITC,loss,10,left,2,ITC_wait,0,undefined,0,0,606,57376,1071472
13,40,male,Belgian,2,95,ITC,loss,10,left,2,ITC_collect,468,k,0,0,606,56907,1071941
13,40,male,Belgian,2,95,ITC,loss,10,left,2,ITC_outcome,0,undefined,0,0,608,55904,1072944
13,40,male,Belgian,2,96,guess,win,5,left,16,guess_start,379,space,0,0,608,55523,1073325
13,40,male,Belgian,2,96,guess,win,5,left,16,guess_choice,688,j,0,0,608,54833,1074015
13,40,male,Belgian,2,96,guess,win,5,left,16,guess_outcome,0,undefined,0,0,628,53274,1075574
13,40,male,Belgian,2,96,ITC,win,5,left,16,ITC_start,351,space,0,0,628,52921,1075927
13,40,male,Belgian,2,96,ITC,win,5,left,16,ITC_choice,1021,j,0,0,628,51899,1076949
13,40,male,Belgian,2,96,ITC,win,5,left,16,ITC_wait,0,undefined,0,0,628,51897,1076951
13,40,male,Belgian,2,96,ITC,win,5,left,16,ITC_collect,383,k,0,0,628,51513,1077335
13,40,male,Belgian,2,96,ITC,win,5,left,16,ITC_outcome,0,undefined,0,0,644,50510,1078338
13,40,male,Belgian,2,97,guess,neutral,5,right,9,guess_start,371,space,0,0,644,50138,1078710
13,40,male,Belgian,2,97,guess,neutral,5,right,9,guess_choice,740,j,0,0,644,49395,1079453
13,40,male,Belgian,2,97,guess,neutral,5,right,9,guess_outcome,0,undefined,0,0,644,47840,1081008
13,40,male,Belgian,2,97,ITC,neutral,5,right,9,ITC_start,727,space,0,0,644,47113,1081735
13,40,male,Belgian,2,97,ITC,neutral,5,right,9,ITC_choice,1357,f,0,0,644,45754,1083094
13,40,male,Belgian,2,97,ITC,neutral,5,right,9,ITC_wait,0,undefined,0,0,644,45752,1083096
13,40,male,Belgian,2,97,ITC,neutral,5,right,9,ITC_collect,926,k,0,0,644,44825,1084023
13,40,male,Belgian,2,97,ITC,neutral,5,right,9,ITC_outcome,0,undefined,0,0,653,43817,1085031
13,40,male,Belgian,2,98,guess,win,10,left,7,guess_start,1102,space,0,0,653,42713,1086135
13,40,male,Belgian,2,98,guess,win,10,left,7,guess_choice,597,f,0,0,653,42112,1086736
13,40,male,Belgian,2,98,guess,win,10,left,7,guess_outcome,0,undefined,0,0,673,40555,1088293
13,40,male,Belgian,2,98,ITC,win,10,left,7,ITC_start,472,space,0,0,673,40081,1088767
13,40,male,Belgian,2,98,ITC,win,10,left,7,ITC_choice,1374,j,0,0,673,38705,1090143
13,40,male,Belgian,2,98,ITC,win,10,left,7,ITC_wait,0,undefined,0,0,673,38703,1090145
13,40,male,Belgian,2,98,ITC,win,10,left,7,ITC_collect,469,k,0,0,673,38233,1090615
13,40,male,Belgian,2,98,ITC,win,10,left,7,ITC_outcome,0,undefined,0,0,680,37229,1091619
13,40,male,Belgian,2,99,guess,neutral,5,right,14,guess_start,697,space,0,0,680,36530,1092318
13,40,male,Belgian,2,99,guess,neutral,5,right,14,guess_choice,471,j,0,0,680,36057,1092791
13,40,male,Belgian,2,99,guess,neutral,5,right,14,guess_outcome,0,undefined,0,0,680,34500,1094348
13,40,male,Belgian,2,99,ITC,neutral,5,right,14,ITC_start,523,space,0,0,680,33977,1094871
13,40,male,Belgian,2,99,ITC,neutral,5,right,14,ITC_choice,1351,f,0,0,680,32624,1096224
13,40,male,Belgian,2,99,ITC,neutral,5,right,14,ITC_wait,0,undefined,0,0,680,32621,1096227
13,40,male,Belgian,2,99,ITC,neutral,5,right,14,ITC_collect,480,k,0,0,680,32139,1096709
13,40,male,Belgian,2,99,ITC,neutral,5,right,14,ITC_outcome,0,undefined,0,0,694,31131,1097717
13,40,male,Belgian,2,100,guess,loss,5,right,10,guess_start,478,space,0,0,694,30651,1098197
13,40,male,Belgian,2,100,guess,loss,5,right,10,guess_choice,957,j,0,0,694,29689,1099159
13,40,male,Belgian,2,100,guess,loss,5,right,10,guess_outcome,0,undefined,0,0,679,28136,1100712
13,40,male,Belgian,2,100,ITC,loss,5,right,10,ITC_start,358,space,0,0,679,27776,1101072
13,40,male,Belgian,2,100,ITC,loss,5,right,10,ITC_wait,0,undefined,0,0,679,26813,1102035
13,40,male,Belgian,2,100,ITC,loss,5,right,10,ITC_choice,958,f,0,0,679,26816,1102032
13,40,male,Belgian,2,100,ITC,loss,5,right,10,ITC_collect,644,k,0,0,679,26168,1102680
13,40,male,Belgian,2,100,ITC,loss,5,right,10,ITC_outcome,0,undefined,0,0,689,25160,1103688
13,40,male,Belgian,2,101,guess,neutral,10,right,8,guess_start,534,space,0,0,689,24624,1104224
13,40,male,Belgian,2,101,guess,neutral,10,right,8,guess_choice,786,j,0,0,689,23833,1105015
13,40,male,Belgian,2,101,guess,neutral,10,right,8,guess_outcome,0,undefined,0,0,689,22277,1106571
13,40,male,Belgian,2,101,ITC,neutral,10,right,8,ITC_start,321,space,0,0,689,21954,1106894
13,40,male,Belgian,2,101,ITC,neutral,10,right,8,ITC_choice,805,f,0,0,689,21146,1107702
13,40,male,Belgian,2,101,ITC,neutral,10,right,8,ITC_wait,0,undefined,0,0,689,21144,1107704
13,40,male,Belgian,2,101,ITC,neutral,10,right,8,ITC_collect,813,k,0,0,689,20331,1108517
13,40,male,Belgian,2,101,ITC,neutral,10,right,8,ITC_outcome,0,undefined,0,0,697,19329,1109519
13,40,male,Belgian,2,102,guess,loss,5,left,5,guess_start,340,space,0,0,697,18986,1109862
13,40,male,Belgian,2,102,guess,loss,5,left,5,guess_choice,824,j,0,0,697,18160,1110688
13,40,male,Belgian,2,102,guess,loss,5,left,5,guess_outcome,0,undefined,0,0,682,16602,1112246
13,40,male,Belgian,2,102,ITC,loss,5,left,5,ITC_start,480,space,0,0,682,16120,1112728
13,40,male,Belgian,2,102,ITC,loss,5,left,5,ITC_choice,1758,f,0,0,682,14360,1114488
13,40,male,Belgian,2,102,ITC,loss,5,left,5,ITC_wait,0,undefined,0,0,682,9356,1119492
13,40,male,Belgian,2,102,ITC,loss,5,left,5,ITC_collect,266,k,0,0,682,9089,1119759
13,40,male,Belgian,2,102,ITC,loss,5,left,5,ITC_outcome,0,undefined,0,0,702,8085,1120763
13,40,male,Belgian,2,103,guess,win,5,left,5,guess_start,129,space,0,0,702,7953,1120895
13,40,male,Belgian,2,103,guess,win,5,left,5,guess_choice,1191,f,0,0,702,6759,1122089
13,40,male,Belgian,2,103,guess,win,5,left,5,guess_outcome,0,undefined,0,0,722,5202,1123646
13,40,male,Belgian,2,103,ITC,win,5,left,5,ITC_start,425,space,0,0,722,4776,1124072
13,40,male,Belgian,2,103,ITC,win,5,left,5,ITC_choice,1943,j,0,0,722,2832,1126016
13,40,male,Belgian,2,103,ITC,win,5,left,5,ITC_wait,0,undefined,0,0,722,2829,1126019
13,40,male,Belgian,2,103,ITC,win,5,left,5,ITC_collect,523,k,0,0,722,2305,1126543
13,40,male,Belgian,2,103,ITC,win,5,left,5,ITC_outcome,0,undefined,0,0,727,1298,1127550
13,40,male,Belgian,2,104,guess,neutral,5,right,3,guess_start,401,space,0,0,727,896,1127952
13,40,male,Belgian,2,104,guess,neutral,5,right,3,guess_choice,0,undefined,0,0,727,-7,1128855
13,40,male,Belgian,3,105,guess,win,5,right,7,guess_start,636,space,0,0,0,479364,1136032
13,40,male,Belgian,3,105,guess,win,5,right,7,guess_choice,674,j,0,0,0,478686,1136710
13,40,male,Belgian,3,105,guess,win,5,right,7,guess_outcome,0,undefined,0,0,20,477128,1138268
13,40,male,Belgian,3,105,ITC,win,5,right,7,ITC_start,650,space,0,0,20,476475,1138921
13,40,male,Belgian,3,105,ITC,win,5,right,7,ITC_choice,1470,j,0,0,20,475005,1140391
13,40,male,Belgian,3,105,ITC,win,5,right,7,ITC_wait,0,undefined,0,0,20,469998,1145398
13,40,male,Belgian,3,105,ITC,win,5,right,7,ITC_collect,408,k,0,0,20,469589,1145807
13,40,male,Belgian,3,105,ITC,win,5,right,7,ITC_outcome,0,undefined,0,0,40,468586,1146810
13,40,male,Belgian,3,106,guess,win,5,right,11,guess_start,508,space,0,0,40,468076,1147320
13,40,male,Belgian,3,106,guess,win,5,right,11,guess_choice,886,f,0,0,40,467187,1148209
13,40,male,Belgian,3,106,guess,win,5,right,11,guess_outcome,0,undefined,0,0,60,465627,1149769
13,40,male,Belgian,3,106,ITC,win,5,right,11,ITC_start,93,space,0,0,60,465533,1149863
13,40,male,Belgian,3,106,ITC,win,5,right,11,ITC_choice,1352,f,0,0,60,464180,1151216
13,40,male,Belgian,3,106,ITC,win,5,right,11,ITC_collect,997,k,0,0,60,463179,1152217
13,40,male,Belgian,3,106,ITC,win,5,right,11,ITC_outcome,0,undefined,0,0,71,462172,1153224
13,40,male,Belgian,3,107,guess,neutral,5,right,5,guess_start,622,space,0,0,71,461548,1153848
13,40,male,Belgian,3,107,guess,neutral,5,right,5,guess_choice,909,f,0,0,71,460636,1154760
13,40,male,Belgian,3,107,guess,neutral,5,right,5,guess_outcome,0,undefined,0,0,71,459083,1156313
13,40,male,Belgian,3,106,ITC,win,5,right,11,ITC_wait,0,undefined,0,0,60,464177,1151219
13,40,male,Belgian,3,107,ITC,neutral,5,right,5,ITC_start,446,space,0,0,71,458636,1156760
13,40,male,Belgian,3,107,ITC,neutral,5,right,5,ITC_choice,1670,j,0,0,71,456963,1158433
13,40,male,Belgian,3,107,ITC,neutral,5,right,5,ITC_wait,0,undefined,0,0,71,451961,1163435
13,40,male,Belgian,3,107,ITC,neutral,5,right,5,ITC_collect,605,k,0,0,71,451355,1164041
13,40,male,Belgian,3,107,ITC,neutral,5,right,5,ITC_outcome,0,undefined,0,0,91,450348,1165048
13,40,male,Belgian,3,108,guess,loss,5,right,1,guess_start,262,space,0,0,91,450084,1165312
13,40,male,Belgian,3,108,guess,loss,5,right,1,guess_choice,678,j,0,0,91,449403,1165993
13,40,male,Belgian,3,108,guess,loss,5,right,1,guess_outcome,0,undefined,0,0,76,447849,1167547
13,40,male,Belgian,3,108,ITC,loss,5,right,1,ITC_start,190,space,0,0,76,447657,1167739
13,40,male,Belgian,3,108,ITC,loss,5,right,1,ITC_choice,1637,j,0,0,76,446018,1169378
13,40,male,Belgian,3,108,ITC,loss,5,right,1,ITC_wait,0,undefined,0,0,76,441012,1174384
13,40,male,Belgian,3,108,ITC,loss,5,right,1,ITC_collect,221,k,0,0,76,440788,1174608
13,40,male,Belgian,3,108,ITC,loss,5,right,1,ITC_outcome,0,undefined,0,0,96,439782,1175614
13,40,male,Belgian,3,109,guess,win,5,left,4,guess_start,458,space,0,0,96,439322,1176074
13,40,male,Belgian,3,109,guess,win,5,left,4,guess_choice,965,j,0,0,96,438353,1177043
13,40,male,Belgian,3,109,guess,win,5,left,4,guess_outcome,0,undefined,0,0,116,436799,1178597
13,40,male,Belgian,3,109,ITC,win,5,left,4,ITC_start,331,space,0,0,116,436466,1178930
13,40,male,Belgian,3,109,ITC,win,5,left,4,ITC_choice,1063,j,0,0,116,435402,1179994
13,40,male,Belgian,3,109,ITC,win,5,left,4,ITC_wait,0,undefined,0,0,116,435401,1179995
13,40,male,Belgian,3,109,ITC,win,5,left,4,ITC_collect,438,k,0,0,116,434962,1180434
13,40,male,Belgian,3,109,ITC,win,5,left,4,ITC_outcome,0,undefined,0,0,120,433953,1181443
13,40,male,Belgian,3,110,guess,win,5,right,3,guess_start,543,space,0,0,120,433409,1181987
13,40,male,Belgian,3,110,guess,win,5,right,3,guess_choice,691,j,0,0,120,432714,1182682
13,40,male,Belgian,3,110,guess,win,5,right,3,guess_outcome,0,undefined,0,0,140,431155,1184241
13,40,male,Belgian,3,110,ITC,win,5,right,3,ITC_start,551,space,0,0,140,430602,1184794
13,40,male,Belgian,3,110,ITC,win,5,right,3,ITC_choice,1783,j,0,0,140,428818,1186578
13,40,male,Belgian,3,110,ITC,win,5,right,3,ITC_wait,0,undefined,0,0,140,423811,1191585
13,40,male,Belgian,3,110,ITC,win,5,right,3,ITC_collect,38,k,0,0,140,423770,1191626
13,40,male,Belgian,3,110,ITC,win,5,right,3,ITC_outcome,0,undefined,0,0,160,422764,1192632
13,40,male,Belgian,3,111,guess,win,5,right,2,guess_start,97,space,0,0,160,422666,1192730
13,40,male,Belgian,3,111,guess,win,5,right,2,guess_choice,684,f,0,0,160,421978,1193418
13,40,male,Belgian,3,111,guess,win,5,right,2,guess_outcome,0,undefined,0,0,180,420418,1194978
13,40,male,Belgian,3,111,ITC,win,5,right,2,ITC_start,574,space,0,0,180,419843,1195553
13,40,male,Belgian,3,111,ITC,win,5,right,2,ITC_choice,2053,f,0,0,180,417787,1197609
13,40,male,Belgian,3,111,ITC,win,5,right,2,ITC_wait,0,undefined,0,0,180,417785,1197611
13,40,male,Belgian,3,111,ITC,win,5,right,2,ITC_collect,692,k,0,0,180,417091,1198305
13,40,male,Belgian,3,111,ITC,win,5,right,2,ITC_outcome,0,undefined,0,0,182,416083,1199313
13,40,male,Belgian,3,112,guess,loss,5,right,7,guess_start,399,space,0,0,182,415681,1199715
13,40,male,Belgian,3,112,guess,loss,5,right,7,guess_choice,612,j,0,0,182,415065,1200331
13,40,male,Belgian,3,112,guess,loss,5,right,7,guess_outcome,0,undefined,0,0,167,413510,1201886
13,40,male,Belgian,3,112,ITC,loss,5,right,7,ITC_start,433,space,0,0,167,413075,1202321
13,40,male,Belgian,3,112,ITC,loss,5,right,7,ITC_choice,2009,f,0,0,167,411065,1204331
13,40,male,Belgian,3,112,ITC,loss,5,right,7,ITC_wait,0,undefined,0,0,167,411064,1204332
13,40,male,Belgian,3,112,ITC,loss,5,right,7,ITC_collect,780,k,0,0,167,410283,1205113
13,40,male,Belgian,3,112,ITC,loss,5,right,7,ITC_outcome,0,undefined,0,0,174,409278,1206118
13,40,male,Belgian,3,113,guess,win,10,right,2,guess_start,618,space,0,0,174,408658,1206738
13,40,male,Belgian,3,113,guess,win,10,right,2,guess_choice,637,j,0,0,174,408017,1207379
13,40,male,Belgian,3,113,guess,win,10,right,2,guess_outcome,0,undefined,0,0,194,406460,1208936
13,40,male,Belgian,3,113,ITC,win,10,right,2,ITC_start,416,space,0,0,194,406043,1209353
13,40,male,Belgian,3,113,ITC,win,10,right,2,ITC_choice,1655,f,0,0,194,404386,1211010
13,40,male,Belgian,3,113,ITC,win,10,right,2,ITC_wait,0,undefined,0,0,194,404384,1211012
13,40,male,Belgian,3,113,ITC,win,10,right,2,ITC_collect,643,k,0,0,194,403739,1211657
13,40,male,Belgian,3,113,ITC,win,10,right,2,ITC_outcome,0,undefined,0,0,196,402732,1212664
13,40,male,Belgian,3,114,guess,win,5,right,14,guess_start,143,space,0,0,196,402586,1212810
13,40,male,Belgian,3,114,guess,win,5,right,14,guess_choice,823,f,0,0,196,401760,1213636
13,40,male,Belgian,3,114,guess,win,5,right,14,guess_outcome,0,undefined,0,0,216,400204,1215192
13,40,male,Belgian,3,114,ITC,win,5,right,14,ITC_start,394,space,0,0,216,399809,1215587
13,40,male,Belgian,3,114,ITC,win,5,right,14,ITC_wait,0,undefined,0,0,216,398649,1216747
13,40,male,Belgian,3,114,ITC,win,5,right,14,ITC_choice,1157,f,0,0,216,398651,1216745
13,40,male,Belgian,3,114,ITC,win,5,right,14,ITC_collect,909,k,0,0,216,397738,1217658
13,40,male,Belgian,3,114,ITC,win,5,right,14,ITC_outcome,0,undefined,0,0,230,396735,1218661
13,40,male,Belgian,3,115,guess,loss,10,right,8,guess_start,443,space,0,0,230,396291,1219105
13,40,male,Belgian,3,115,guess,loss,10,right,8,guess_choice,598,j,0,0,230,395690,1219706
13,40,male,Belgian,3,115,guess,loss,10,right,8,guess_outcome,0,undefined,0,0,215,394135,1221261
13,40,male,Belgian,3,115,ITC,loss,10,right,8,ITC_start,316,space,0,0,215,393817,1221579
13,40,male,Belgian,3,115,ITC,loss,10,right,8,ITC_choice,1629,f,0,0,215,392187,1223209
13,40,male,Belgian,3,115,ITC,loss,10,right,8,ITC_wait,0,undefined,0,0,215,392185,1223211
13,40,male,Belgian,3,115,ITC,loss,10,right,8,ITC_collect,685,k,0,0,215,391498,1223898
13,40,male,Belgian,3,115,ITC,loss,10,right,8,ITC_outcome,0,undefined,0,0,223,390495,1224901
13,40,male,Belgian,3,116,guess,win,10,right,1,guess_start,644,space,0,0,223,389850,1225546
13,40,male,Belgian,3,116,guess,win,10,right,1,guess_choice,516,j,0,0,223,389329,1226067
13,40,male,Belgian,3,116,guess,win,10,right,1,guess_outcome,0,undefined,0,0,243,387771,1227625
13,40,male,Belgian,3,116,ITC,win,10,right,1,ITC_start,346,space,0,0,243,387425,1227971
13,40,male,Belgian,3,116,ITC,win,10,right,1,ITC_choice,2007,f,0,0,243,385416,1229980
13,40,male,Belgian,3,116,ITC,win,10,right,1,ITC_wait,0,undefined,0,0,243,385414,1229982
13,40,male,Belgian,3,116,ITC,win,10,right,1,ITC_collect,522,k,0,0,243,384890,1230506
13,40,male,Belgian,3,116,ITC,win,10,right,1,ITC_outcome,0,undefined,0,0,244,383884,1231512
13,40,male,Belgian,3,117,guess,win,5,right,12,guess_start,433,space,0,0,244,383449,1231947
13,40,male,Belgian,3,117,guess,win,5,right,12,guess_choice,597,j,0,0,244,382848,1232548
13,40,male,Belgian,3,117,guess,win,5,right,12,guess_outcome,0,undefined,0,0,264,381294,1234102
13,40,male,Belgian,3,117,ITC,win,5,right,12,ITC_start,485,space,0,0,264,380809,1234587
13,40,male,Belgian,3,117,ITC,win,5,right,12,ITC_choice,1358,f,0,0,264,379448,1235948
13,40,male,Belgian,3,117,ITC,win,5,right,12,ITC_wait,0,undefined,0,0,264,379445,1235951
13,40,male,Belgian,3,117,ITC,win,5,right,12,ITC_collect,644,k,0,0,264,378800,1236596
13,40,male,Belgian,3,117,ITC,win,5,right,12,ITC_outcome,0,undefined,0,0,276,377793,1237603
13,40,male,Belgian,3,118,guess,neutral,5,right,12,guess_start,575,space,0,0,276,377217,1238179
13,40,male,Belgian,3,118,guess,neutral,5,right,12,guess_choice,988,f,0,0,276,376226,1239170
13,40,male,Belgian,3,118,guess,neutral,5,right,12,guess_outcome,0,undefined,0,0,276,374667,1240729
13,40,male,Belgian,3,118,ITC,neutral,5,right,12,ITC_start,1064,space,0,0,276,373600,1241796
13,40,male,Belgian,3,118,ITC,neutral,5,right,12,ITC_choice,1935,f,0,0,276,371664,1243732
13,40,male,Belgian,3,118,ITC,neutral,5,right,12,ITC_wait,0,undefined,0,0,276,371662,1243734
13,40,male,Belgian,3,118,ITC,neutral,5,right,12,ITC_collect,556,k,0,0,276,371103,1244293
13,40,male,Belgian,3,118,ITC,neutral,5,right,12,ITC_outcome,0,undefined,0,0,288,370097,1245299
13,40,male,Belgian,3,119,guess,win,10,right,4,guess_start,85,space,0,0,288,370008,1245388
13,40,male,Belgian,3,119,guess,win,10,right,4,guess_choice,754,j,0,0,288,369250,1246146
13,40,male,Belgian,3,119,guess,win,10,right,4,guess_outcome,0,undefined,0,0,308,367691,1247705
13,40,male,Belgian,3,119,ITC,win,10,right,4,ITC_start,601,space,0,0,308,367089,1248307
13,40,male,Belgian,3,119,ITC,win,10,right,4,ITC_choice,1416,f,0,0,308,365672,1249724
13,40,male,Belgian,3,119,ITC,win,10,right,4,ITC_wait,0,undefined,0,0,308,365669,1249727
13,40,male,Belgian,3,119,ITC,win,10,right,4,ITC_collect,491,k,0,0,308,365178,1250218
13,40,male,Belgian,3,119,ITC,win,10,right,4,ITC_outcome,0,undefined,0,0,312,364171,1251225
13,40,male,Belgian,3,120,guess,loss,5,right,14,guess_start,393,space,0,0,312,363776,1251620
13,40,male,Belgian,3,120,guess,loss,5,right,14,guess_choice,573,j,0,0,312,363200,1252196
13,40,male,Belgian,3,120,guess,loss,5,right,14,guess_outcome,0,undefined,0,0,297,361643,1253753
13,40,male,Belgian,3,120,ITC,loss,5,right,14,ITC_start,281,space,0,0,297,361361,1254035
13,40,male,Belgian,3,120,ITC,loss,5,right,14,ITC_choice,980,f,0,0,297,360378,1255018
13,40,male,Belgian,3,120,ITC,loss,5,right,14,ITC_wait,0,undefined,0,0,297,360376,1255020
13,40,male,Belgian,3,120,ITC,loss,5,right,14,ITC_collect,445,k,0,0,297,359930,1255466
13,40,male,Belgian,3,120,ITC,loss,5,right,14,ITC_outcome,0,undefined,0,0,311,358926,1256470
13,40,male,Belgian,3,121,guess,neutral,10,right,3,guess_start,1043,space,0,0,311,357881,1257515
13,40,male,Belgian,3,121,guess,neutral,10,right,3,guess_choice,830,f,0,0,311,357049,1258347
13,40,male,Belgian,3,121,guess,neutral,10,right,3,guess_outcome,0,undefined,0,0,311,355496,1259900
13,40,male,Belgian,3,121,ITC,neutral,10,right,3,ITC_start,310,space,0,0,311,355185,1260211
13,40,male,Belgian,3,121,ITC,neutral,10,right,3,ITC_choice,1983,f,0,0,311,353201,1262195
13,40,male,Belgian,3,121,ITC,neutral,10,right,3,ITC_wait,0,undefined,0,0,311,353198,1262198
13,40,male,Belgian,3,121,ITC,neutral,10,right,3,ITC_collect,1135,k,0,0,311,352063,1263333
13,40,male,Belgian,3,121,ITC,neutral,10,right,3,ITC_outcome,0,undefined,0,0,314,351058,1264338
13,40,male,Belgian,3,122,guess,loss,10,left,6,guess_start,433,space,0,0,314,350623,1264773
13,40,male,Belgian,3,122,guess,loss,10,left,6,guess_choice,549,j,0,0,314,350072,1265324
13,40,male,Belgian,3,122,guess,loss,10,left,6,guess_outcome,0,undefined,0,0,299,348512,1266884
13,40,male,Belgian,3,122,ITC,loss,10,left,6,ITC_start,477,space,0,0,299,348032,1267364
13,40,male,Belgian,3,122,ITC,loss,10,left,6,ITC_choice,1511,j,0,0,299,346520,1268876
13,40,male,Belgian,3,122,ITC,loss,10,left,6,ITC_wait,0,undefined,0,0,299,346517,1268879
13,40,male,Belgian,3,122,ITC,loss,10,left,6,ITC_collect,340,k,0,0,299,346176,1269220
13,40,male,Belgian,3,122,ITC,loss,10,left,6,ITC_outcome,0,undefined,0,0,305,345173,1270223
13,40,male,Belgian,3,123,guess,loss,10,right,1,guess_start,716,space,0,0,305,344455,1270941
13,40,male,Belgian,3,123,guess,loss,10,right,1,guess_choice,580,f,0,0,305,343871,1271525
13,40,male,Belgian,3,123,guess,loss,10,right,1,guess_outcome,0,undefined,0,0,290,342315,1273081
13,40,male,Belgian,3,123,ITC,loss,10,right,1,ITC_start,433,space,0,0,290,341880,1273516
13,40,male,Belgian,3,123,ITC,loss,10,right,1,ITC_choice,1654,f,0,0,290,340226,1275170
13,40,male,Belgian,3,123,ITC,loss,10,right,1,ITC_wait,0,undefined,0,0,290,340224,1275172
13,40,male,Belgian,3,123,ITC,loss,10,right,1,ITC_collect,647,k,0,0,290,339575,1275821
13,40,male,Belgian,3,123,ITC,loss,10,right,1,ITC_outcome,0,undefined,0,0,291,338571,1276825
13,40,male,Belgian,3,124,guess,neutral,5,right,10,guess_start,480,space,0,0,291,338089,1277307
13,40,male,Belgian,3,124,guess,neutral,5,right,10,guess_choice,997,j,0,0,291,337089,1278307
13,40,male,Belgian,3,124,guess,neutral,5,right,10,guess_outcome,0,undefined,0,0,291,335531,1279865
13,40,male,Belgian,3,124,ITC,neutral,5,right,10,ITC_start,362,space,0,0,291,335167,1280229
13,40,male,Belgian,3,124,ITC,neutral,5,right,10,ITC_choice,2502,j,0,0,291,332663,1282733
13,40,male,Belgian,3,124,ITC,neutral,5,right,10,ITC_wait,0,undefined,0,0,291,327658,1287738
13,40,male,Belgian,3,124,ITC,neutral,5,right,10,ITC_collect,280,k,0,0,291,327377,1288019
13,40,male,Belgian,3,124,ITC,neutral,5,right,10,ITC_outcome,0,undefined,0,0,311,326372,1289024
13,40,male,Belgian,3,125,guess,win,5,left,1,guess_start,778,space,0,0,311,325592,1289804
13,40,male,Belgian,3,125,guess,win,5,left,1,guess_choice,630,j,0,0,311,324958,1290438
13,40,male,Belgian,3,125,guess,win,5,left,1,guess_outcome,0,undefined,0,0,331,323403,1291993
13,40,male,Belgian,3,125,ITC,win,5,left,1,ITC_start,465,space,0,0,331,322935,1292461
13,40,male,Belgian,3,125,ITC,win,5,left,1,ITC_choice,1685,f,0,0,331,321248,1294148
13,40,male,Belgian,3,125,ITC,win,5,left,1,ITC_wait,0,undefined,0,0,331,316243,1299153
13,40,male,Belgian,3,125,ITC,win,5,left,1,ITC_collect,835,k,0,0,331,315407,1299989
13,40,male,Belgian,3,125,ITC,win,5,left,1,ITC_outcome,0,undefined,0,0,351,314402,1300994
13,40,male,Belgian,3,126,guess,neutral,5,left,16,guess_start,290,space,0,0,351,314111,1301285
13,40,male,Belgian,3,126,guess,neutral,5,left,16,guess_choice,610,j,0,0,351,313496,1301900
13,40,male,Belgian,3,126,guess,neutral,5,left,16,guess_outcome,0,undefined,0,0,351,311942,1303454
13,40,male,Belgian,3,126,ITC,neutral,5,left,16,ITC_start,270,space,0,0,351,311670,1303726
13,40,male,Belgian,3,126,ITC,neutral,5,left,16,ITC_choice,1510,j,0,0,351,310158,1305238
13,40,male,Belgian,3,126,ITC,neutral,5,left,16,ITC_wait,0,undefined,0,0,351,310155,1305241
13,40,male,Belgian,3,126,ITC,neutral,5,left,16,ITC_collect,361,k,0,0,351,309792,1305604
13,40,male,Belgian,3,126,ITC,neutral,5,left,16,ITC_outcome,0,undefined,0,0,367,308789,1306607
13,40,male,Belgian,3,127,guess,loss,5,right,6,guess_start,620,space,0,0,367,308166,1307230
13,40,male,Belgian,3,127,guess,loss,5,right,6,guess_choice,596,j,0,0,367,307566,1307830
13,40,male,Belgian,3,127,guess,loss,5,right,6,guess_outcome,0,undefined,0,0,352,306008,1309388
13,40,male,Belgian,3,127,ITC,loss,5,right,6,ITC_start,140,space,0,0,352,305865,1309531
13,40,male,Belgian,3,127,ITC,loss,5,right,6,ITC_choice,1481,f,0,0,352,304383,1311013
13,40,male,Belgian,3,127,ITC,loss,5,right,6,ITC_wait,0,undefined,0,0,352,304379,1311017
13,40,male,Belgian,3,127,ITC,loss,5,right,6,ITC_collect,707,k,0,0,352,303671,1311725
13,40,male,Belgian,3,127,ITC,loss,5,right,6,ITC_outcome,0,undefined,0,0,358,302667,1312729
13,40,male,Belgian,3,128,guess,neutral,5,right,11,guess_start,489,space,0,0,358,302175,1313221
13,40,male,Belgian,3,128,guess,neutral,5,right,11,guess_choice,1052,f,0,0,358,301118,1314278
13,40,male,Belgian,3,128,guess,neutral,5,right,11,guess_outcome,0,undefined,0,0,358,299562,1315834
13,40,male,Belgian,3,128,ITC,neutral,5,right,11,ITC_start,313,space,0,0,358,299247,1316149
13,40,male,Belgian,3,128,ITC,neutral,5,right,11,ITC_wait,0,undefined,0,0,358,298348,1317048
13,40,male,Belgian,3,128,ITC,neutral,5,right,11,ITC_choice,894,f,0,0,358,298350,1317046
13,40,male,Belgian,3,128,ITC,neutral,5,right,11,ITC_collect,563,k,0,0,358,297784,1317612
13,40,male,Belgian,3,128,ITC,neutral,5,right,11,ITC_outcome,0,undefined,0,0,369,296778,1318618
13,40,male,Belgian,3,129,guess,neutral,5,left,15,guess_start,642,space,0,0,369,296136,1319260
13,40,male,Belgian,3,129,guess,neutral,5,left,15,guess_choice,879,f,0,0,369,295252,1320144
13,40,male,Belgian,3,129,guess,neutral,5,left,15,guess_outcome,0,undefined,0,0,369,293697,1321699
13,40,male,Belgian,3,129,ITC,neutral,5,left,15,ITC_start,111,space,0,0,369,293584,1321812
13,40,male,Belgian,3,129,ITC,neutral,5,left,15,ITC_choice,2113,j,0,0,369,291470,1323926
13,40,male,Belgian,3,129,ITC,neutral,5,left,15,ITC_wait,0,undefined,0,0,369,291465,1323931
13,40,male,Belgian,3,129,ITC,neutral,5,left,15,ITC_collect,592,k,0,0,369,290872,1324524
13,40,male,Belgian,3,129,ITC,neutral,5,left,15,ITC_outcome,0,undefined,0,0,384,289870,1325526
13,40,male,Belgian,3,130,guess,neutral,5,left,8,guess_start,469,space,0,0,384,289399,1325997
13,40,male,Belgian,3,130,guess,neutral,5,left,8,guess_choice,692,f,0,0,384,288702,1326694
13,40,male,Belgian,3,130,guess,neutral,5,left,8,guess_outcome,0,undefined,0,0,384,287146,1328250
13,40,male,Belgian,3,130,ITC,neutral,5,left,8,ITC_start,528,space,0,0,384,286616,1328780
13,40,male,Belgian,3,130,ITC,neutral,5,left,8,ITC_choice,2410,f,0,0,384,284205,1331191
13,40,male,Belgian,3,130,ITC,neutral,5,left,8,ITC_wait,0,undefined,0,0,384,279203,1336193
13,40,male,Belgian,3,130,ITC,neutral,5,left,8,ITC_collect,113,k,0,0,384,279087,1336309
13,40,male,Belgian,3,130,ITC,neutral,5,left,8,ITC_outcome,0,undefined,0,0,404,278082,1337314
13,40,male,Belgian,3,131,guess,win,10,left,8,guess_start,602,space,0,0,404,277480,1337916
13,40,male,Belgian,3,131,guess,win,10,left,8,guess_choice,671,j,0,0,404,276805,1338591
13,40,male,Belgian,3,131,guess,win,10,left,8,guess_outcome,0,undefined,0,0,424,275251,1340145
13,40,male,Belgian,3,131,ITC,win,10,left,8,ITC_start,451,space,0,0,424,274798,1340598
13,40,male,Belgian,3,131,ITC,win,10,left,8,ITC_choice,1412,j,0,0,424,273382,1342014
13,40,male,Belgian,3,131,ITC,win,10,left,8,ITC_wait,0,undefined,0,0,424,273380,1342016
13,40,male,Belgian,3,131,ITC,win,10,left,8,ITC_collect,373,k,0,0,424,273006,1342390
13,40,male,Belgian,3,131,ITC,win,10,left,8,ITC_outcome,0,undefined,0,0,432,271999,1343397
13,40,male,Belgian,3,132,guess,win,10,left,3,guess_start,392,space,0,0,432,271605,1343791
13,40,male,Belgian,3,132,guess,win,10,left,3,guess_choice,675,j,0,0,432,270925,1344471
13,40,male,Belgian,3,132,guess,win,10,left,3,guess_outcome,0,undefined,0,0,452,269366,1346030
13,40,male,Belgian,3,132,ITC,win,10,left,3,ITC_start,476,space,0,0,452,268887,1346509
13,40,male,Belgian,3,132,ITC,win,10,left,3,ITC_choice,2064,j,0,0,452,266822,1348574
13,40,male,Belgian,3,132,ITC,win,10,left,3,ITC_wait,0,undefined,0,0,452,266820,1348576
13,40,male,Belgian,3,132,ITC,win,10,left,3,ITC_collect,605,k,0,0,452,266213,1349183
13,40,male,Belgian,3,132,ITC,win,10,left,3,ITC_outcome,0,undefined,0,0,455,265206,1350190
13,40,male,Belgian,3,133,guess,neutral,10,left,4,guess_start,534,space,0,0,455,264669,1350727
13,40,male,Belgian,3,133,guess,neutral,10,left,4,guess_choice,748,j,0,0,455,263917,1351479
13,40,male,Belgian,3,133,guess,neutral,10,left,4,guess_outcome,0,undefined,0,0,455,262359,1353037
13,40,male,Belgian,3,133,ITC,neutral,10,left,4,ITC_start,479,space,0,0,455,261879,1353517
13,40,male,Belgian,3,133,ITC,neutral,10,left,4,ITC_choice,1350,j,0,0,455,260526,1354870
13,40,male,Belgian,3,133,ITC,neutral,10,left,4,ITC_wait,0,undefined,0,0,455,260524,1354872
13,40,male,Belgian,3,133,ITC,neutral,10,left,4,ITC_collect,526,k,0,0,455,259998,1355398
13,40,male,Belgian,3,133,ITC,neutral,10,left,4,ITC_outcome,0,undefined,0,0,459,258993,1356403
13,40,male,Belgian,3,134,guess,loss,5,right,16,guess_start,306,space,0,0,459,258686,1356710
13,40,male,Belgian,3,134,guess,loss,5,right,16,guess_choice,646,f,0,0,459,258038,1357358
13,40,male,Belgian,3,134,guess,loss,5,right,16,guess_outcome,0,undefined,0,0,444,256480,1358916
13,40,male,Belgian,3,134,ITC,loss,5,right,16,ITC_start,466,space,0,0,444,256013,1359383
13,40,male,Belgian,3,134,ITC,loss,5,right,16,ITC_choice,1382,j,0,0,444,254630,1360766
13,40,male,Belgian,3,134,ITC,loss,5,right,16,ITC_wait,0,undefined,0,0,444,249626,1365770
13,40,male,Belgian,3,134,ITC,loss,5,right,16,ITC_collect,468,k,0,0,444,249157,1366239
13,40,male,Belgian,3,134,ITC,loss,5,right,16,ITC_outcome,0,undefined,0,0,464,248149,1367247
13,40,male,Belgian,3,135,guess,loss,5,left,11,guess_start,461,space,0,0,464,247686,1367710
13,40,male,Belgian,3,135,guess,loss,5,left,11,guess_choice,1022,f,0,0,464,246661,1368735
13,40,male,Belgian,3,135,guess,loss,5,left,11,guess_outcome,0,undefined,0,0,449,245105,1370291
13,40,male,Belgian,3,135,ITC,loss,5,left,11,ITC_start,1003,space,0,0,449,244101,1371295
13,40,male,Belgian,3,135,ITC,loss,5,left,11,ITC_choice,1447,j,0,0,449,242652,1372744
13,40,male,Belgian,3,135,ITC,loss,5,left,11,ITC_wait,0,undefined,0,0,449,242649,1372747
13,40,male,Belgian,3,135,ITC,loss,5,left,11,ITC_collect,443,k,0,0,449,242205,1373191
13,40,male,Belgian,3,135,ITC,loss,5,left,11,ITC_outcome,0,undefined,0,0,460,241201,1374195
13,40,male,Belgian,3,136,guess,neutral,5,right,7,guess_start,443,space,0,0,460,240757,1374639
13,40,male,Belgian,3,136,guess,neutral,5,right,7,guess_choice,771,j,0,0,460,239982,1375414
13,40,male,Belgian,3,136,guess,neutral,5,right,7,guess_outcome,0,undefined,0,0,460,238427,1376969
13,40,male,Belgian,3,136,ITC,neutral,5,right,7,ITC_start,388,space,0,0,460,238037,1377359
13,40,male,Belgian,3,136,ITC,neutral,5,right,7,ITC_choice,1791,f,0,0,460,236245,1379151
13,40,male,Belgian,3,136,ITC,neutral,5,right,7,ITC_wait,0,undefined,0,0,460,236243,1379153
13,40,male,Belgian,3,136,ITC,neutral,5,right,7,ITC_collect,461,k,0,0,460,235782,1379614
13,40,male,Belgian,3,136,ITC,neutral,5,right,7,ITC_outcome,0,undefined,0,0,467,234775,1380621
13,40,male,Belgian,3,137,guess,loss,10,left,5,guess_start,417,space,0,0,467,234355,1381041
13,40,male,Belgian,3,137,guess,loss,10,left,5,guess_choice,859,f,0,0,467,233491,1381905
13,40,male,Belgian,3,137,guess,loss,10,left,5,guess_outcome,0,undefined,0,0,452,231935,1383461
13,40,male,Belgian,3,137,ITC,loss,10,left,5,ITC_start,359,space,0,0,452,231574,1383822
13,40,male,Belgian,3,137,ITC,loss,10,left,5,ITC_wait,0,undefined,0,0,452,230513,1384883
13,40,male,Belgian,3,137,ITC,loss,10,left,5,ITC_choice,1056,j,0,0,452,230515,1384881
13,40,male,Belgian,3,137,ITC,loss,10,left,5,ITC_collect,331,k,0,0,452,230181,1385215
13,40,male,Belgian,3,137,ITC,loss,10,left,5,ITC_outcome,0,undefined,0,0,457,229174,1386222
13,40,male,Belgian,3,138,guess,loss,5,left,4,guess_start,616,space,0,0,457,228556,1386840
13,40,male,Belgian,3,138,guess,loss,5,left,4,guess_choice,618,j,0,0,457,227933,1387463
13,40,male,Belgian,3,138,guess,loss,5,left,4,guess_outcome,0,undefined,0,0,442,226379,1389017
13,40,male,Belgian,3,138,ITC,loss,5,left,4,ITC_start,444,space,0,0,442,225934,1389462
13,40,male,Belgian,3,138,ITC,loss,5,left,4,ITC_choice,1473,j,0,0,442,224460,1390936
13,40,male,Belgian,3,138,ITC,loss,5,left,4,ITC_wait,0,undefined,0,0,442,224457,1390939
13,40,male,Belgian,3,138,ITC,loss,5,left,4,ITC_collect,618,k,0,0,442,223837,1391559
13,40,male,Belgian,3,138,ITC,loss,5,left,4,ITC_outcome,0,undefined,0,0,446,222834,1392562
13,40,male,Belgian,3,139,guess,neutral,10,right,2,guess_start,459,space,0,0,446,222373,1393023
13,40,male,Belgian,3,139,guess,neutral,10,right,2,guess_choice,822,f,0,0,446,221548,1393848
13,40,male,Belgian,3,139,guess,neutral,10,right,2,guess_outcome,0,undefined,0,0,446,219991,1395405
13,40,male,Belgian,3,139,ITC,neutral,10,right,2,ITC_start,296,space,0,0,446,219693,1395703
13,40,male,Belgian,3,139,ITC,neutral,10,right,2,ITC_choice,1622,f,0,0,446,218070,1397326
13,40,male,Belgian,3,139,ITC,neutral,10,right,2,ITC_wait,0,undefined,0,0,446,218068,1397328
13,40,male,Belgian,3,139,ITC,neutral,10,right,2,ITC_collect,512,k,0,0,446,217554,1397842
13,40,male,Belgian,3,139,ITC,neutral,10,right,2,ITC_outcome,0,undefined,0,0,448,216546,1398850
13,40,male,Belgian,3,140,guess,win,5,left,6,guess_start,570,space,0,0,448,215974,1399422
13,40,male,Belgian,3,140,guess,win,5,left,6,guess_choice,657,f,0,0,448,215315,1400081
13,40,male,Belgian,3,140,guess,win,5,left,6,guess_outcome,0,undefined,0,0,468,213758,1401638
13,40,male,Belgian,3,140,ITC,win,5,left,6,ITC_start,514,space,0,0,468,213243,1402153
13,40,male,Belgian,3,140,ITC,win,5,left,6,ITC_choice,1487,j,0,0,468,211755,1403641
13,40,male,Belgian,3,140,ITC,win,5,left,6,ITC_wait,0,undefined,0,0,468,211752,1403644
13,40,male,Belgian,3,140,ITC,win,5,left,6,ITC_collect,508,k,0,0,468,211244,1404152
13,40,male,Belgian,3,140,ITC,win,5,left,6,ITC_outcome,0,undefined,0,0,474,210242,1405154
13,40,male,Belgian,3,141,guess,loss,5,left,2,guess_start,1011,space,0,0,474,209229,1406167
13,40,male,Belgian,3,141,guess,loss,5,left,2,guess_choice,598,j,0,0,474,208629,1406767
13,40,male,Belgian,3,141,guess,loss,5,left,2,guess_outcome,0,undefined,0,0,459,207073,1408323
13,40,male,Belgian,3,141,ITC,loss,5,left,2,ITC_start,269,space,0,0,459,206802,1408594
13,40,male,Belgian,3,141,ITC,loss,5,left,2,ITC_choice,1645,f,0,0,459,205155,1410241
13,40,male,Belgian,3,141,ITC,loss,5,left,2,ITC_wait,0,undefined,0,0,459,200153,1415243
13,40,male,Belgian,3,141,ITC,loss,5,left,2,ITC_collect,997,k,0,0,459,199154,1416242
13,40,male,Belgian,3,141,ITC,loss,5,left,2,ITC_outcome,0,undefined,0,0,479,198150,1417246
13,40,male,Belgian,3,142,guess,loss,5,left,8,guess_start,345,space,0,0,479,197803,1417593
13,40,male,Belgian,3,142,guess,loss,5,left,8,guess_choice,619,j,0,0,479,197179,1418217
13,40,male,Belgian,3,142,guess,loss,5,left,8,guess_outcome,0,undefined,0,0,464,195624,1419772
13,40,male,Belgian,3,142,ITC,loss,5,left,8,ITC_start,571,space,0,0,464,195051,1420345
13,40,male,Belgian,3,142,ITC,loss,5,left,8,ITC_choice,837,j,0,0,464,194212,1421184
13,40,male,Belgian,3,142,ITC,loss,5,left,8,ITC_wait,0,undefined,0,0,464,194210,1421186
13,40,male,Belgian,3,142,ITC,loss,5,left,8,ITC_collect,437,k,0,0,464,193772,1421624
13,40,male,Belgian,3,142,ITC,loss,5,left,8,ITC_outcome,0,undefined,0,0,472,192765,1422631
13,40,male,Belgian,3,143,guess,win,5,left,13,guess_start,176,space,0,0,472,192588,1422808
13,40,male,Belgian,3,143,guess,win,5,left,13,guess_choice,782,j,0,0,472,191802,1423594
13,40,male,Belgian,3,143,guess,win,5,left,13,guess_outcome,0,undefined,0,0,492,190248,1425148
13,40,male,Belgian,3,143,ITC,win,5,left,13,ITC_start,313,space,0,0,492,189932,1425464
13,40,male,Belgian,3,143,ITC,win,5,left,13,ITC_wait,0,undefined,0,0,492,188779,1426617
13,40,male,Belgian,3,143,ITC,win,5,left,13,ITC_choice,1150,j,0,0,492,188781,1426615
