subjectID,age,gender,nationality,block_number,trial_number,trial_type,guess_outcome,delay_time,delay_pos,immediate_amount,stage,respRT,respKey,blur_count,focus_count,total_points,remaining_duration,time_elapsed
24,18,female,Belgian,1,1,guess,win,10,right,1,guess_start,2876,space,0,0,0,477121,251948
24,18,female,Belgian,1,1,guess,win,10,right,1,guess_outcome,0,undefined,0,0,20,474030,255039
24,18,female,Belgian,1,1,guess,win,10,right,1,guess_choice,1522,f,0,0,0,475592,253477
24,18,female,Belgian,1,1,ITC,win,10,right,1,ITC_start,2285,space,0,0,20,471742,257327
24,18,female,Belgian,1,1,ITC,win,10,right,1,ITC_choice,3955,j,0,0,20,467784,261285
24,18,female,Belgian,1,1,ITC,win,10,right,1,ITC_wait,0,undefined,0,0,20,457781,271288
24,18,female,Belgian,1,1,ITC,win,10,right,1,ITC_collect,2169,k,0,0,20,455608,273461
24,18,female,Belgian,1,1,ITC,win,10,right,1,ITC_outcome,0,undefined,0,0,40,454597,274472
24,18,female,Belgian,1,2,guess,loss,5,right,11,guess_start,2832,space,0,0,40,451762,277307
24,18,female,Belgian,1,2,guess,loss,5,right,11,guess_choice,1621,f,0,0,40,450137,278932
24,18,female,Belgian,1,2,guess,loss,5,right,11,guess_outcome,0,undefined,0,0,25,448576,280493
24,18,female,Belgian,1,2,ITC,loss,5,right,11,ITC_start,1120,space,0,0,25,447454,281615
24,18,female,Belgian,1,2,ITC,loss,5,right,11,ITC_choice,3531,j,0,0,25,443920,285149
24,18,female,Belgian,1,2,ITC,loss,5,right,11,ITC_wait,0,undefined,0,0,25,438916,290153
24,18,female,Belgian,1,2,ITC,loss,5,right,11,ITC_collect,1255,k,0,0,25,437659,291410
24,18,female,Belgian,1,2,ITC,loss,5,right,11,ITC_outcome,0,undefined,0,0,45,436651,292418
24,18,female,Belgian,1,3,guess,neutral,5,left,10,guess_start,1058,space,0,0,45,435590,293479
24,18,female,Belgian,1,3,guess,neutral,5,left,10,guess_choice,2870,f,0,0,45,432715,296354
24,18,female,Belgian,1,3,guess,neutral,5,left,10,guess_outcome,0,undefined,0,0,45,431154,297915
24,18,female,Belgian,1,3,ITC,neutral,5,left,10,ITC_start,1136,space,0,0,45,430015,299054
24,18,female,Belgian,1,3,ITC,neutral,5,left,10,ITC_choice,4012,f,0,0,45,426000,303069
24,18,female,Belgian,1,3,ITC,neutral,5,left,10,ITC_wait,0,undefined,0,0,45,420994,308075
24,18,female,Belgian,1,3,ITC,neutral,5,left,10,ITC_collect,4831,k,0,0,45,416160,312909
24,18,female,Belgian,1,3,ITC,neutral,5,left,10,ITC_outcome,0,undefined,0,0,65,415151,313918
24,18,female,Belgian,1,4,guess,loss,10,right,7,guess_start,1011,space,0,0,65,414136,314933
24,18,female,Belgian,1,4,guess,loss,10,right,7,guess_choice,1112,j,0,0,65,413016,316053
24,18,female,Belgian,1,4,guess,loss,10,right,7,guess_outcome,0,undefined,0,0,50,411455,317614
24,18,female,Belgian,1,4,ITC,loss,10,right,7,ITC_start,873,space,0,0,50,410579,318490
24,18,female,Belgian,1,4,ITC,loss,10,right,7,ITC_choice,2141,j,0,0,50,408435,320634
24,18,female,Belgian,1,4,ITC,loss,10,right,7,ITC_wait,0,undefined,0,0,50,398428,330641
24,18,female,Belgian,1,4,ITC,loss,10,right,7,ITC_collect,9114,k,0,0,50,389312,339757
24,18,female,Belgian,1,4,ITC,loss,10,right,7,ITC_outcome,0,undefined,0,0,70,388303,340766
24,18,female,Belgian,1,5,guess,neutral,5,left,2,guess_start,866,space,0,0,70,387433,341636
24,18,female,Belgian,1,5,guess,neutral,5,left,2,guess_choice,1115,j,0,0,70,386313,342756
24,18,female,Belgian,1,5,guess,neutral,5,left,2,guess_outcome,0,undefined,0,0,70,384752,344317
24,18,female,Belgian,1,5,ITC,neutral,5,left,2,ITC_start,748,space,0,0,70,384000,345069
24,18,female,Belgian,1,5,ITC,neutral,5,left,2,ITC_choice,1743,f,0,0,70,382257,346812
24,18,female,Belgian,1,5,ITC,neutral,5,left,2,ITC_wait,0,undefined,0,0,70,377249,351820
24,18,female,Belgian,1,5,ITC,neutral,5,left,2,ITC_collect,1140,k,0,0,70,376107,352962
24,18,female,Belgian,1,5,ITC,neutral,5,left,2,ITC_outcome,0,undefined,0,0,90,375097,353972
24,18,female,Belgian,1,6,guess,neutral,5,left,4,guess_start,867,space,0,0,90,374227,354842
24,18,female,Belgian,1,6,guess,neutral,5,left,4,guess_choice,986,j,0,0,90,373236,355833
24,18,female,Belgian,1,6,guess,neutral,5,left,4,guess_outcome,0,undefined,0,0,90,371676,357393
24,18,female,Belgian,1,6,ITC,neutral,5,left,4,ITC_start,1241,space,0,0,90,370432,358637
24,18,female,Belgian,1,6,ITC,neutral,5,left,4,ITC_choice,2237,f,0,0,90,368191,360878
24,18,female,Belgian,1,6,ITC,neutral,5,left,4,ITC_wait,0,undefined,0,0,90,363184,365885
24,18,female,Belgian,1,6,ITC,neutral,5,left,4,ITC_collect,1201,k,0,0,90,361980,367089
24,18,female,Belgian,1,6,ITC,neutral,5,left,4,ITC_outcome,0,undefined,0,0,110,360972,368097
24,18,female,Belgian,1,7,guess,win,5,left,16,guess_start,659,space,0,0,110,360310,368759
24,18,female,Belgian,1,7,guess,win,5,left,16,guess_choice,1414,j,0,0,110,358893,370176
24,18,female,Belgian,1,7,guess,win,5,left,16,guess_outcome,0,undefined,0,0,130,357333,371736
24,18,female,Belgian,1,7,ITC,win,5,left,16,ITC_start,873,space,0,0,130,356458,372611
24,18,female,Belgian,1,7,ITC,win,5,left,16,ITC_choice,2111,f,0,0,130,354344,374725
24,18,female,Belgian,1,7,ITC,win,5,left,16,ITC_wait,0,undefined,0,0,130,349336,379733
24,18,female,Belgian,1,7,ITC,win,5,left,16,ITC_collect,1010,k,0,0,130,348324,380745
24,18,female,Belgian,1,7,ITC,win,5,left,16,ITC_outcome,0,undefined,0,0,150,347315,381754
24,18,female,Belgian,1,8,guess,win,5,left,9,guess_start,1201,space,0,0,150,346112,382957
24,18,female,Belgian,1,8,guess,win,5,left,9,guess_choice,1152,f,0,0,150,344955,384114
24,18,female,Belgian,1,8,guess,win,5,left,9,guess_outcome,0,undefined,0,0,170,343394,385675
24,18,female,Belgian,1,8,ITC,win,5,left,9,ITC_start,433,space,0,0,170,342959,386110
24,18,female,Belgian,1,8,ITC,win,5,left,9,ITC_choice,1612,f,0,0,170,341344,387725
24,18,female,Belgian,1,8,ITC,win,5,left,9,ITC_wait,0,undefined,0,0,170,336337,392732
24,18,female,Belgian,1,8,ITC,win,5,left,9,ITC_collect,1130,k,0,0,170,335203,393866
24,18,female,Belgian,1,8,ITC,win,5,left,9,ITC_outcome,0,undefined,0,0,190,334194,394875
24,18,female,Belgian,1,9,guess,win,10,left,7,guess_start,758,space,0,0,190,333431,395638
24,18,female,Belgian,1,9,guess,win,10,left,7,guess_choice,1138,f,0,0,190,332289,396780
24,18,female,Belgian,1,9,guess,win,10,left,7,guess_outcome,0,undefined,0,0,210,330731,398338
24,18,female,Belgian,1,9,ITC,win,10,left,7,ITC_start,817,space,0,0,210,329912,399157
24,18,female,Belgian,1,9,ITC,win,10,left,7,ITC_choice,1479,f,0,0,210,328430,400639
24,18,female,Belgian,1,9,ITC,win,10,left,7,ITC_wait,0,undefined,0,0,210,318423,410646
24,18,female,Belgian,1,9,ITC,win,10,left,7,ITC_collect,1154,k,0,0,210,317267,411802
24,18,female,Belgian,1,9,ITC,win,10,left,7,ITC_outcome,0,undefined,0,0,230,316257,412812
24,18,female,Belgian,1,10,guess,neutral,5,left,13,guess_start,1219,space,0,0,230,315036,414033
24,18,female,Belgian,1,10,guess,neutral,5,left,13,guess_choice,1353,f,0,0,230,313677,415392
24,18,female,Belgian,1,10,guess,neutral,5,left,13,guess_outcome,0,undefined,0,0,230,312117,416952
24,18,female,Belgian,1,10,ITC,neutral,5,left,13,ITC_start,549,space,0,0,230,311565,417504
24,18,female,Belgian,1,10,ITC,neutral,5,left,13,ITC_choice,1523,f,0,0,230,310039,419030
24,18,female,Belgian,1,10,ITC,neutral,5,left,13,ITC_wait,0,undefined,0,0,230,305032,424037
24,18,female,Belgian,1,10,ITC,neutral,5,left,13,ITC_collect,380,k,0,0,230,304649,424420
24,18,female,Belgian,1,10,ITC,neutral,5,left,13,ITC_outcome,0,undefined,0,0,250,303639,425430
24,18,female,Belgian,1,11,guess,win,5,right,8,guess_start,534,space,0,0,250,303103,425966
24,18,female,Belgian,1,11,guess,win,5,right,8,guess_choice,1539,j,0,0,250,301558,427511
24,18,female,Belgian,1,11,guess,win,5,right,8,guess_outcome,0,undefined,0,0,270,299998,429071
24,18,female,Belgian,1,11,ITC,win,5,right,8,ITC_start,804,space,0,0,270,299190,429879
24,18,female,Belgian,1,11,ITC,win,5,right,8,ITC_choice,2158,j,0,0,270,297031,432038
24,18,female,Belgian,1,11,ITC,win,5,right,8,ITC_wait,0,undefined,0,0,270,292023,437046
24,18,female,Belgian,1,11,ITC,win,5,right,8,ITC_collect,1102,k,0,0,270,290919,438150
24,18,female,Belgian,1,11,ITC,win,5,right,8,ITC_outcome,0,undefined,0,0,290,289909,439160
24,18,female,Belgian,1,12,guess,win,5,left,15,guess_start,854,space,0,0,290,289053,440016
24,18,female,Belgian,1,12,guess,win,5,left,15,guess_choice,898,f,0,0,290,288150,440919
24,18,female,Belgian,1,12,guess,win,5,left,15,guess_outcome,0,undefined,0,0,310,286591,442478
24,18,female,Belgian,1,12,ITC,win,5,left,15,ITC_start,697,space,0,0,310,285891,443178
24,18,female,Belgian,1,12,ITC,win,5,left,15,ITC_choice,1531,f,0,0,310,284358,444711
24,18,female,Belgian,1,12,ITC,win,5,left,15,ITC_wait,0,undefined,0,0,310,279352,449717
24,18,female,Belgian,1,12,ITC,win,5,left,15,ITC_collect,1113,k,0,0,310,278237,450832
24,18,female,Belgian,1,12,ITC,win,5,left,15,ITC_outcome,0,undefined,0,0,330,277229,451840
24,18,female,Belgian,1,13,guess,win,5,right,11,guess_start,709,space,0,0,330,276517,452552
24,18,female,Belgian,1,13,guess,win,5,right,11,guess_choice,868,j,0,0,330,275644,453425
24,18,female,Belgian,1,13,guess,win,5,right,11,guess_outcome,0,undefined,0,0,350,274084,454985
24,18,female,Belgian,1,13,ITC,win,5,right,11,ITC_start,1362,space,0,0,350,272718,456351
24,18,female,Belgian,1,13,ITC,win,5,right,11,ITC_choice,2233,j,0,0,350,270484,458585
24,18,female,Belgian,1,13,ITC,win,5,right,11,ITC_wait,0,undefined,0,0,350,265477,463592
24,18,female,Belgian,1,13,ITC,win,5,right,11,ITC_collect,923,k,0,0,350,264552,464517
24,18,female,Belgian,1,13,ITC,win,5,right,11,ITC_outcome,0,undefined,0,0,370,263543,465526
24,18,female,Belgian,1,14,guess,neutral,10,right,6,guess_start,675,space,0,0,370,262866,466203
24,18,female,Belgian,1,14,guess,neutral,10,right,6,guess_choice,1047,f,0,0,370,261815,467254
24,18,female,Belgian,1,14,guess,neutral,10,right,6,guess_outcome,0,undefined,0,0,370,260256,468813
24,18,female,Belgian,1,14,ITC,neutral,10,right,6,ITC_start,997,space,0,0,370,259257,469812
24,18,female,Belgian,1,14,ITC,neutral,10,right,6,ITC_choice,1528,j,0,0,370,257727,471342
24,18,female,Belgian,1,14,ITC,neutral,10,right,6,ITC_wait,0,undefined,0,0,370,247721,481348
24,18,female,Belgian,1,14,ITC,neutral,10,right,6,ITC_collect,463,k,0,0,370,247254,481815
24,18,female,Belgian,1,14,ITC,neutral,10,right,6,ITC_outcome,0,undefined,0,0,390,246245,482824
24,18,female,Belgian,1,15,guess,win,5,right,4,guess_start,503,space,0,0,390,245739,483330
24,18,female,Belgian,1,15,guess,win,5,right,4,guess_choice,1224,j,0,0,390,244511,484558
24,18,female,Belgian,1,15,guess,win,5,right,4,guess_outcome,0,undefined,0,0,410,242950,486119
24,18,female,Belgian,1,15,ITC,win,5,right,4,ITC_start,1945,space,0,0,410,241002,488067
24,18,female,Belgian,1,15,ITC,win,5,right,4,ITC_choice,1727,j,0,0,410,239274,489795
24,18,female,Belgian,1,15,ITC,win,5,right,4,ITC_wait,0,undefined,0,0,410,234269,494800
24,18,female,Belgian,1,15,ITC,win,5,right,4,ITC_collect,395,k,0,0,410,233872,495197
24,18,female,Belgian,1,15,ITC,win,5,right,4,ITC_outcome,0,undefined,0,0,430,232862,496207
24,18,female,Belgian,1,16,guess,loss,5,right,4,guess_start,290,space,0,0,430,232570,496499
24,18,female,Belgian,1,16,guess,loss,5,right,4,guess_choice,818,f,0,0,430,231747,497322
24,18,female,Belgian,1,16,guess,loss,5,right,4,guess_outcome,0,undefined,0,0,415,230189,498880
24,18,female,Belgian,1,16,ITC,loss,5,right,4,ITC_start,515,space,0,0,415,229670,499399
24,18,female,Belgian,1,16,ITC,loss,5,right,4,ITC_choice,2488,j,0,0,415,227179,501890
24,18,female,Belgian,1,16,ITC,loss,5,right,4,ITC_wait,0,undefined,0,0,415,222172,506897
24,18,female,Belgian,1,16,ITC,loss,5,right,4,ITC_collect,950,k,0,0,415,221220,507849
24,18,female,Belgian,1,16,ITC,loss,5,right,4,ITC_outcome,0,undefined,0,0,435,220210,508859
24,18,female,Belgian,1,17,guess,loss,5,left,13,guess_start,739,space,0,0,435,219469,509600
24,18,female,Belgian,1,17,guess,loss,5,left,13,guess_choice,860,j,0,0,435,218603,510466
24,18,female,Belgian,1,17,guess,loss,5,left,13,guess_outcome,0,undefined,0,0,420,217043,512026
24,18,female,Belgian,1,17,ITC,loss,5,left,13,ITC_start,1119,space,0,0,420,215922,513147
24,18,female,Belgian,1,17,ITC,loss,5,left,13,ITC_choice,2045,f,0,0,420,213873,515196
24,18,female,Belgian,1,17,ITC,loss,5,left,13,ITC_wait,0,undefined,0,0,420,208866,520203
24,18,female,Belgian,1,17,ITC,loss,5,left,13,ITC_collect,1020,k,0,0,420,207844,521225
24,18,female,Belgian,1,17,ITC,loss,5,left,13,ITC_outcome,0,undefined,0,0,440,206834,522235
24,18,female,Belgian,1,18,guess,neutral,10,right,3,guess_start,419,space,0,0,440,206413,522656
24,18,female,Belgian,1,18,guess,neutral,10,right,3,guess_choice,3030,f,0,0,440,203378,525691
24,18,female,Belgian,1,18,guess,neutral,10,right,3,guess_outcome,0,undefined,0,0,440,201818,527251
24,18,female,Belgian,1,18,ITC,neutral,10,right,3,ITC_start,1711,space,0,0,440,200105,528964
24,18,female,Belgian,1,18,ITC,neutral,10,right,3,ITC_choice,1697,j,0,0,440,198406,530663
24,18,female,Belgian,1,18,ITC,neutral,10,right,3,ITC_wait,0,undefined,0,0,440,188399,540670
24,18,female,Belgian,1,18,ITC,neutral,10,right,3,ITC_collect,1178,k,0,0,440,187218,541851
24,18,female,Belgian,1,18,ITC,neutral,10,right,3,ITC_outcome,0,undefined,0,0,460,186208,542861
24,18,female,Belgian,1,19,guess,neutral,5,right,7,guess_start,872,space,0,0,460,185333,543736
24,18,female,Belgian,1,19,guess,neutral,5,right,7,guess_choice,1036,j,0,0,460,184292,544777
24,18,female,Belgian,1,19,guess,neutral,5,right,7,guess_outcome,0,undefined,0,0,460,182733,546336
24,18,female,Belgian,1,19,ITC,neutral,5,right,7,ITC_start,691,space,0,0,460,182040,547029
24,18,female,Belgian,1,19,ITC,neutral,5,right,7,ITC_choice,2329,j,0,0,460,179708,549361
24,18,female,Belgian,1,19,ITC,neutral,5,right,7,ITC_wait,0,undefined,0,0,460,174702,554367
24,18,female,Belgian,1,19,ITC,neutral,5,right,7,ITC_collect,1216,k,0,0,460,173483,555586
24,18,female,Belgian,1,19,ITC,neutral,5,right,7,ITC_outcome,0,undefined,0,0,480,172473,556596
24,18,female,Belgian,1,20,guess,win,10,left,3,guess_start,718,space,0,0,480,171754,557315
24,18,female,Belgian,1,20,guess,win,10,left,3,guess_choice,1166,f,0,0,480,170583,558486
24,18,female,Belgian,1,20,guess,win,10,left,3,guess_outcome,0,undefined,0,0,500,169024,560045
24,18,female,Belgian,1,20,ITC,win,10,left,3,ITC_start,767,space,0,0,500,168253,560816
24,18,female,Belgian,1,20,ITC,win,10,left,3,ITC_choice,1550,f,0,0,500,166701,562368
24,18,female,Belgian,1,20,ITC,win,10,left,3,ITC_wait,0,undefined,0,0,500,156694,572375
24,18,female,Belgian,1,20,ITC,win,10,left,3,ITC_collect,1386,k,0,0,500,155305,573764
24,18,female,Belgian,1,20,ITC,win,10,left,3,ITC_outcome,0,undefined,0,0,520,154295,574774
24,18,female,Belgian,1,21,guess,loss,10,left,8,guess_start,598,space,0,0,520,153694,575375
24,18,female,Belgian,1,21,guess,loss,10,left,8,guess_choice,737,j,0,0,520,152952,576117
24,18,female,Belgian,1,21,guess,loss,10,left,8,guess_outcome,0,undefined,0,0,505,151391,577678
24,18,female,Belgian,1,21,ITC,loss,10,left,8,ITC_start,896,space,0,0,505,150493,578576
24,18,female,Belgian,1,21,ITC,loss,10,left,8,ITC_choice,1386,f,0,0,505,149105,579964
24,18,female,Belgian,1,21,ITC,loss,10,left,8,ITC_wait,0,undefined,0,0,505,139100,589969
24,18,female,Belgian,1,21,ITC,loss,10,left,8,ITC_collect,722,k,0,0,505,138374,590695
24,18,female,Belgian,1,21,ITC,loss,10,left,8,ITC_outcome,0,undefined,0,0,525,137365,591704
24,18,female,Belgian,1,22,guess,neutral,5,left,15,guess_start,743,space,0,0,525,136621,592448
24,18,female,Belgian,1,22,guess,neutral,5,left,15,guess_choice,864,j,0,0,525,135752,593317
24,18,female,Belgian,1,22,guess,neutral,5,left,15,guess_outcome,0,undefined,0,0,525,134191,594878
24,18,female,Belgian,1,22,ITC,neutral,5,left,15,ITC_start,503,space,0,0,525,133685,595384
24,18,female,Belgian,1,22,ITC,neutral,5,left,15,ITC_choice,1803,f,0,0,525,131880,597189
24,18,female,Belgian,1,22,ITC,neutral,5,left,15,ITC_wait,0,undefined,0,0,525,126873,602196
24,18,female,Belgian,1,22,ITC,neutral,5,left,15,ITC_collect,1101,k,0,0,525,125770,603299
24,18,female,Belgian,1,22,ITC,neutral,5,left,15,ITC_outcome,0,undefined,0,0,545,124760,604309
24,18,female,Belgian,1,23,guess,neutral,5,left,11,guess_start,819,space,0,0,545,123938,605131
24,18,female,Belgian,1,23,guess,neutral,5,left,11,guess_choice,983,f,0,0,545,122950,606119
24,18,female,Belgian,1,23,guess,neutral,5,left,11,guess_outcome,0,undefined,0,0,545,121390,607679
24,18,female,Belgian,1,23,ITC,neutral,5,left,11,ITC_start,530,space,0,0,545,120857,608212
24,18,female,Belgian,1,23,ITC,neutral,5,left,11,ITC_choice,1308,f,0,0,545,119548,609521
24,18,female,Belgian,1,23,ITC,neutral,5,left,11,ITC_wait,0,undefined,0,0,545,114542,614527
24,18,female,Belgian,1,23,ITC,neutral,5,left,11,ITC_collect,888,k,0,0,545,113651,615418
24,18,female,Belgian,1,23,ITC,neutral,5,left,11,ITC_outcome,0,undefined,0,0,565,112642,616427
24,18,female,Belgian,1,24,guess,win,5,right,10,guess_start,704,space,0,0,565,111935,617134
24,18,female,Belgian,1,24,guess,win,5,right,10,guess_choice,1151,j,0,0,565,110779,618290
24,18,female,Belgian,1,24,guess,win,5,right,10,guess_outcome,0,undefined,0,0,585,109223,619846
24,18,female,Belgian,1,24,ITC,win,5,right,10,ITC_start,685,space,0,0,585,108537,620532
24,18,female,Belgian,1,24,ITC,win,5,right,10,ITC_choice,1676,j,0,0,585,106858,622211
24,18,female,Belgian,1,24,ITC,win,5,right,10,ITC_wait,0,undefined,0,0,585,101851,627218
24,18,female,Belgian,1,24,ITC,win,5,right,10,ITC_collect,794,k,0,0,585,101054,628015
24,18,female,Belgian,1,24,ITC,win,5,right,10,ITC_outcome,0,undefined,0,0,605,100045,629024
24,18,female,Belgian,1,25,guess,loss,10,left,2,guess_start,593,space,0,0,605,99449,629620
24,18,female,Belgian,1,25,guess,loss,10,left,2,guess_choice,965,f,0,0,605,98479,630590
24,18,female,Belgian,1,25,guess,loss,10,left,2,guess_outcome,0,undefined,0,0,590,96919,632150
24,18,female,Belgian,1,25,ITC,loss,10,left,2,ITC_start,644,space,0,0,590,96271,632798
24,18,female,Belgian,1,25,ITC,loss,10,left,2,ITC_choice,1439,f,0,0,590,94829,634240
24,18,female,Belgian,1,25,ITC,loss,10,left,2,ITC_wait,0,undefined,0,0,590,84823,644246
24,18,female,Belgian,1,25,ITC,loss,10,left,2,ITC_collect,672,k,0,0,590,84149,644920
24,18,female,Belgian,1,25,ITC,loss,10,left,2,ITC_outcome,0,undefined,0,0,610,83140,645929
24,18,female,Belgian,1,26,guess,win,5,left,13,guess_start,809,space,0,0,610,82328,646741
24,18,female,Belgian,1,26,guess,win,5,left,13,guess_choice,1190,f,0,0,610,81133,647936
24,18,female,Belgian,1,26,guess,win,5,left,13,guess_outcome,0,undefined,0,0,630,79572,649497
24,18,female,Belgian,1,26,ITC,win,5,left,13,ITC_start,941,space,0,0,630,78629,650440
24,18,female,Belgian,1,26,ITC,win,5,left,13,ITC_choice,1487,f,0,0,630,77139,651930
24,18,female,Belgian,1,26,ITC,win,5,left,13,ITC_wait,0,undefined,0,0,630,72132,656937
24,18,female,Belgian,1,26,ITC,win,5,left,13,ITC_collect,1166,k,0,0,630,70963,658106
24,18,female,Belgian,1,26,ITC,win,5,left,13,ITC_outcome,0,undefined,0,0,650,69957,659112
24,18,female,Belgian,1,27,guess,neutral,10,left,8,guess_start,575,space,0,0,650,69379,659690
24,18,female,Belgian,1,27,guess,neutral,10,left,8,guess_choice,1088,f,0,0,650,68286,660783
24,18,female,Belgian,1,27,guess,neutral,10,left,8,guess_outcome,0,undefined,0,0,650,66728,662341
24,18,female,Belgian,1,27,ITC,neutral,10,left,8,ITC_start,694,space,0,0,650,66032,663037
24,18,female,Belgian,1,27,ITC,neutral,10,left,8,ITC_choice,1477,f,0,0,650,64553,664516
24,18,female,Belgian,1,27,ITC,neutral,10,left,8,ITC_wait,0,undefined,0,0,650,54550,674519
24,18,female,Belgian,1,27,ITC,neutral,10,left,8,ITC_collect,401,k,0,0,650,54146,674923
24,18,female,Belgian,1,27,ITC,neutral,10,left,8,ITC_outcome,0,undefined,0,0,670,53136,675933
24,18,female,Belgian,1,28,guess,neutral,10,right,4,guess_start,828,space,0,0,670,52306,676763
24,18,female,Belgian,1,28,guess,neutral,10,right,4,guess_choice,1174,f,0,0,670,51125,677944
24,18,female,Belgian,1,28,guess,neutral,10,right,4,guess_outcome,0,undefined,0,0,670,49566,679503
24,18,female,Belgian,1,28,ITC,neutral,10,right,4,ITC_start,643,space,0,0,670,48920,680149
24,18,female,Belgian,1,28,ITC,neutral,10,right,4,ITC_choice,2189,j,0,0,670,46728,682341
24,18,female,Belgian,1,28,ITC,neutral,10,right,4,ITC_wait,0,undefined,0,0,670,36720,692349
24,18,female,Belgian,1,28,ITC,neutral,10,right,4,ITC_collect,561,k,0,0,670,36158,692911
24,18,female,Belgian,1,28,ITC,neutral,10,right,4,ITC_outcome,0,undefined,0,0,690,35149,693920
24,18,female,Belgian,1,29,guess,win,5,right,5,guess_start,807,space,0,0,690,34338,694731
24,18,female,Belgian,1,29,guess,win,5,right,5,guess_choice,923,j,0,0,690,33410,695659
24,18,female,Belgian,1,29,guess,win,5,right,5,guess_outcome,0,undefined,0,0,710,31853,697216
24,18,female,Belgian,1,29,ITC,win,5,right,5,ITC_start,505,space,0,0,710,31345,697724
24,18,female,Belgian,1,29,ITC,win,5,right,5,ITC_choice,1694,j,0,0,710,29648,699421
24,18,female,Belgian,1,29,ITC,win,5,right,5,ITC_wait,0,undefined,0,0,710,24641,704428
24,18,female,Belgian,1,29,ITC,win,5,right,5,ITC_collect,1070,k,0,0,710,23569,705500
24,18,female,Belgian,1,29,ITC,win,5,right,5,ITC_outcome,0,undefined,0,0,730,22560,706509
24,18,female,Belgian,1,30,guess,win,5,left,14,guess_start,874,space,0,0,730,21684,707385
24,18,female,Belgian,1,30,guess,win,5,left,14,guess_choice,854,f,0,0,730,20824,708245
24,18,female,Belgian,1,30,guess,win,5,left,14,guess_outcome,0,undefined,0,0,750,19264,709805
24,18,female,Belgian,1,30,ITC,win,5,left,14,ITC_start,801,space,0,0,750,18459,710610
24,18,female,Belgian,1,30,ITC,win,5,left,14,ITC_choice,1716,f,0,0,750,16740,712329
24,18,female,Belgian,1,30,ITC,win,5,left,14,ITC_wait,0,undefined,0,0,750,11733,717336
24,18,female,Belgian,1,30,ITC,win,5,left,14,ITC_collect,425,k,0,0,750,11306,717763
24,18,female,Belgian,1,30,ITC,win,5,left,14,ITC_outcome,0,undefined,0,0,770,10296,718773
24,18,female,Belgian,1,31,guess,loss,5,left,9,guess_start,489,space,0,0,770,9805,719264
24,18,female,Belgian,1,31,guess,loss,5,left,9,guess_choice,1155,j,0,0,770,8645,720424
24,18,female,Belgian,1,31,guess,loss,5,left,9,guess_outcome,0,undefined,0,0,755,7090,721979
24,18,female,Belgian,1,31,ITC,loss,5,left,9,ITC_start,765,space,0,0,755,6321,722748
24,18,female,Belgian,1,31,ITC,loss,5,left,9,ITC_choice,1238,f,0,0,755,5081,723988
24,18,female,Belgian,1,31,ITC,loss,5,left,9,ITC_wait,0,undefined,0,0,755,73,728996
24,18,female,Belgian,1,31,ITC,loss,5,left,9,ITC_collect,0,undefined,0,0,755,-7,729076
24,18,female,Belgian,2,32,guess,loss,10,right,3,guess_start,1375,space,0,0,0,478623,738939
24,18,female,Belgian,2,32,guess,loss,10,right,3,guess_choice,1246,j,0,0,0,477371,740191
24,18,female,Belgian,2,32,guess,loss,10,right,3,guess_outcome,0,undefined,0,0,-15,475810,741752
24,18,female,Belgian,2,32,ITC,loss,10,right,3,ITC_start,744,space,0,0,-15,475064,742498
24,18,female,Belgian,2,32,ITC,loss,10,right,3,ITC_choice,900,j,0,0,-15,474161,743401
24,18,female,Belgian,2,32,ITC,loss,10,right,3,ITC_wait,0,undefined,0,0,-15,464155,753407
24,18,female,Belgian,2,32,ITC,loss,10,right,3,ITC_collect,1202,k,0,0,-15,462949,754613
24,18,female,Belgian,2,32,ITC,loss,10,right,3,ITC_outcome,0,undefined,0,0,5,461939,755623
24,18,female,Belgian,2,33,guess,loss,5,right,10,guess_start,421,space,0,0,5,461515,756047
24,18,female,Belgian,2,33,guess,loss,5,right,10,guess_choice,691,f,0,0,5,460820,756742
24,18,female,Belgian,2,33,guess,loss,5,right,10,guess_outcome,0,undefined,0,0,-10,459261,758301
24,18,female,Belgian,2,33,ITC,loss,5,right,10,ITC_start,635,space,0,0,-10,458623,758939
24,18,female,Belgian,2,33,ITC,loss,5,right,10,ITC_choice,969,f,0,0,-10,457651,759911
24,18,female,Belgian,2,33,ITC,loss,5,right,10,ITC_wait,0,undefined,0,0,-10,457648,759914
24,18,female,Belgian,2,33,ITC,loss,5,right,10,ITC_collect,1230,k,0,0,-10,456417,761145
24,18,female,Belgian,2,33,ITC,loss,5,right,10,ITC_outcome,0,undefined,0,0,0,455407,762155
24,18,female,Belgian,2,34,guess,neutral,5,right,5,guess_start,409,space,0,0,0,454996,762566
24,18,female,Belgian,2,34,guess,neutral,5,right,5,guess_choice,480,f,0,0,0,454511,763051
24,18,female,Belgian,2,34,guess,neutral,5,right,5,guess_outcome,0,undefined,0,0,0,452951,764611
24,18,female,Belgian,2,34,ITC,neutral,5,right,5,ITC_start,1183,space,0,0,0,451766,765796
24,18,female,Belgian,2,34,ITC,neutral,5,right,5,ITC_wait,0,undefined,0,0,0,450715,766847
24,18,female,Belgian,2,34,ITC,neutral,5,right,5,ITC_choice,1044,f,0,0,0,450718,766844
24,18,female,Belgian,2,34,ITC,neutral,5,right,5,ITC_collect,1174,k,0,0,0,449539,768023
24,18,female,Belgian,2,34,ITC,neutral,5,right,5,ITC_outcome,0,undefined,0,0,5,448533,769029
24,18,female,Belgian,2,35,guess,neutral,10,right,7,guess_start,549,space,0,0,5,447981,769581
24,18,female,Belgian,2,35,guess,neutral,10,right,7,guess_choice,488,j,0,0,5,447488,770074
24,18,female,Belgian,2,35,guess,neutral,10,right,7,guess_outcome,0,undefined,0,0,5,445928,771634
24,18,female,Belgian,2,35,ITC,neutral,10,right,7,ITC_start,882,space,0,0,5,445042,772520
24,18,female,Belgian,2,35,ITC,neutral,10,right,7,ITC_wait,0,undefined,0,0,5,444270,773292
24,18,female,Belgian,2,35,ITC,neutral,10,right,7,ITC_choice,767,f,0,0,5,444274,773288
24,18,female,Belgian,2,35,ITC,neutral,10,right,7,ITC_collect,1043,k,0,0,5,443226,774336
24,18,female,Belgian,2,35,ITC,neutral,10,right,7,ITC_outcome,0,undefined,0,0,12,442215,775347
24,18,female,Belgian,2,36,guess,neutral,5,right,12,guess_start,1762,space,0,0,12,440451,777111
24,18,female,Belgian,2,36,guess,neutral,5,right,12,guess_choice,813,f,0,0,12,439631,777931
24,18,female,Belgian,2,36,guess,neutral,5,right,12,guess_outcome,0,undefined,0,0,12,438076,779486
24,18,female,Belgian,2,36,ITC,neutral,5,right,12,ITC_start,360,space,0,0,12,437713,779849
24,18,female,Belgian,2,36,ITC,neutral,5,right,12,ITC_choice,1551,j,0,0,12,436160,781402
24,18,female,Belgian,2,36,ITC,neutral,5,right,12,ITC_wait,0,undefined,0,0,12,431153,786409
24,18,female,Belgian,2,36,ITC,neutral,5,right,12,ITC_collect,427,k,0,0,12,430723,786839
24,18,female,Belgian,2,36,ITC,neutral,5,right,12,ITC_outcome,0,undefined,0,0,32,429716,787846
24,18,female,Belgian,2,37,guess,win,5,left,1,guess_start,481,space,0,0,32,429232,788330
24,18,female,Belgian,2,37,guess,win,5,left,1,guess_choice,431,f,0,0,32,428795,788767
24,18,female,Belgian,2,37,guess,win,5,left,1,guess_outcome,0,undefined,0,0,52,427236,790326
24,18,female,Belgian,2,37,ITC,win,5,left,1,ITC_start,618,space,0,0,52,426616,790946
24,18,female,Belgian,2,37,ITC,win,5,left,1,ITC_choice,1026,f,0,0,52,425587,791975
24,18,female,Belgian,2,37,ITC,win,5,left,1,ITC_wait,0,undefined,0,0,52,420583,796979
24,18,female,Belgian,2,37,ITC,win,5,left,1,ITC_collect,308,k,0,0,52,420274,797288
24,18,female,Belgian,2,37,ITC,win,5,left,1,ITC_outcome,0,undefined,0,0,72,419270,798292
24,18,female,Belgian,2,38,guess,loss,5,left,16,guess_start,417,space,0,0,72,418851,798711
24,18,female,Belgian,2,38,guess,loss,5,left,16,guess_choice,504,j,0,0,72,418342,799220
24,18,female,Belgian,2,38,guess,loss,5,left,16,guess_outcome,0,undefined,0,0,57,416784,800778
24,18,female,Belgian,2,38,ITC,loss,5,left,16,ITC_start,414,space,0,0,57,416369,801193
24,18,female,Belgian,2,38,ITC,loss,5,left,16,ITC_choice,1135,j,0,0,57,415231,802331
24,18,female,Belgian,2,38,ITC,loss,5,left,16,ITC_collect,1015,k,0,0,57,414210,803352
24,18,female,Belgian,2,38,ITC,loss,5,left,16,ITC_wait,0,undefined,0,0,57,415227,802335
24,18,female,Belgian,2,38,ITC,loss,5,left,16,ITC_outcome,0,undefined,0,0,73,413202,804360
24,18,female,Belgian,2,39,guess,loss,10,left,4,guess_start,430,space,0,0,73,412769,804793
24,18,female,Belgian,2,39,guess,loss,10,left,4,guess_choice,506,f,0,0,73,412258,805304
24,18,female,Belgian,2,39,guess,loss,10,left,4,guess_outcome,0,undefined,0,0,58,410699,806863
24,18,female,Belgian,2,39,ITC,loss,10,left,4,ITC_start,627,space,0,0,58,410070,807492
24,18,female,Belgian,2,39,ITC,loss,10,left,4,ITC_choice,908,f,0,0,58,409160,808402
24,18,female,Belgian,2,39,ITC,loss,10,left,4,ITC_wait,0,undefined,0,0,58,399153,818409
24,18,female,Belgian,2,39,ITC,loss,10,left,4,ITC_collect,354,k,0,0,58,398797,818765
24,18,female,Belgian,2,39,ITC,loss,10,left,4,ITC_outcome,0,undefined,0,0,78,397792,819770
24,18,female,Belgian,2,40,guess,win,10,left,4,guess_start,362,space,0,0,78,397427,820135
24,18,female,Belgian,2,40,guess,win,10,left,4,guess_choice,549,f,0,0,78,396872,820690
24,18,female,Belgian,2,40,guess,win,10,left,4,guess_outcome,0,undefined,0,0,98,395316,822246
24,18,female,Belgian,2,40,ITC,win,10,left,4,ITC_start,259,space,0,0,98,395055,822507
24,18,female,Belgian,2,40,ITC,win,10,left,4,ITC_choice,882,f,0,0,98,394170,823392
24,18,female,Belgian,2,40,ITC,win,10,left,4,ITC_wait,0,undefined,0,0,98,384163,833399
24,18,female,Belgian,2,40,ITC,win,10,left,4,ITC_collect,325,k,0,0,98,383835,833727
24,18,female,Belgian,2,40,ITC,win,10,left,4,ITC_outcome,0,undefined,0,0,118,382825,834737
24,18,female,Belgian,2,41,guess,loss,5,left,6,guess_start,263,space,0,0,118,382559,835003
24,18,female,Belgian,2,41,guess,loss,5,left,6,guess_choice,423,f,0,0,118,382132,835430
24,18,female,Belgian,2,41,guess,loss,5,left,6,guess_outcome,0,undefined,0,0,103,380575,836987
24,18,female,Belgian,2,41,ITC,loss,5,left,6,ITC_start,332,space,0,0,103,380242,837320
24,18,female,Belgian,2,41,ITC,loss,5,left,6,ITC_choice,309,j,0,0,103,379929,837633
24,18,female,Belgian,2,41,ITC,loss,5,left,6,ITC_wait,0,undefined,0,0,103,379926,837636
24,18,female,Belgian,2,41,ITC,loss,5,left,6,ITC_collect,1096,k,0,0,103,378828,838734
24,18,female,Belgian,2,41,ITC,loss,5,left,6,ITC_outcome,0,undefined,0,0,109,377824,839738
24,18,female,Belgian,2,42,guess,loss,5,left,1,guess_start,417,space,0,0,109,377404,840158
24,18,female,Belgian,2,42,guess,loss,5,left,1,guess_choice,661,f,0,0,109,376737,840825
24,18,female,Belgian,2,42,guess,loss,5,left,1,guess_outcome,0,undefined,0,0,94,375177,842385
24,18,female,Belgian,2,42,ITC,loss,5,left,1,ITC_start,317,space,0,0,94,374856,842706
24,18,female,Belgian,2,42,ITC,loss,5,left,1,ITC_choice,737,f,0,0,94,374118,843444
24,18,female,Belgian,2,42,ITC,loss,5,left,1,ITC_wait,0,undefined,0,0,94,369115,848447
24,18,female,Belgian,2,42,ITC,loss,5,left,1,ITC_collect,342,k,0,0,94,368771,848791
24,18,female,Belgian,2,42,ITC,loss,5,left,1,ITC_outcome,0,undefined,0,0,114,367761,849801
24,18,female,Belgian,2,43,guess,neutral,5,left,14,guess_start,444,space,0,0,114,367314,850248
24,18,female,Belgian,2,43,guess,neutral,5,left,14,guess_choice,690,j,0,0,114,366618,850944
24,18,female,Belgian,2,43,guess,neutral,5,left,14,guess_outcome,0,undefined,0,0,114,365059,852503
24,18,female,Belgian,2,43,ITC,neutral,5,left,14,ITC_start,297,space,0,0,114,364759,852803
24,18,female,Belgian,2,43,ITC,neutral,5,left,14,ITC_choice,646,j,0,0,114,364108,853454
24,18,female,Belgian,2,43,ITC,neutral,5,left,14,ITC_wait,0,undefined,0,0,114,364105,853457
24,18,female,Belgian,2,43,ITC,neutral,5,left,14,ITC_collect,981,k,0,0,114,363123,854439
24,18,female,Belgian,2,43,ITC,neutral,5,left,14,ITC_outcome,0,undefined,0,0,128,362115,855447
24,18,female,Belgian,2,44,guess,win,10,left,8,guess_start,369,space,0,0,128,361744,855818
24,18,female,Belgian,2,44,guess,win,10,left,8,guess_choice,555,f,0,0,128,361182,856380
24,18,female,Belgian,2,44,guess,win,10,left,8,guess_outcome,0,undefined,0,0,148,359622,857940
24,18,female,Belgian,2,44,ITC,win,10,left,8,ITC_start,315,space,0,0,148,359305,858257
24,18,female,Belgian,2,44,ITC,win,10,left,8,ITC_wait,0,undefined,0,0,148,358495,859067
24,18,female,Belgian,2,44,ITC,win,10,left,8,ITC_choice,803,j,0,0,148,358499,859063
24,18,female,Belgian,2,44,ITC,win,10,left,8,ITC_collect,879,k,0,0,148,357616,859946
24,18,female,Belgian,2,44,ITC,win,10,left,8,ITC_outcome,0,undefined,0,0,156,356609,860953
24,18,female,Belgian,2,45,guess,loss,5,left,15,guess_start,348,space,0,0,156,356258,861304
24,18,female,Belgian,2,45,guess,loss,5,left,15,guess_choice,599,f,0,0,156,355654,861908
24,18,female,Belgian,2,45,guess,loss,5,left,15,guess_outcome,0,undefined,0,0,141,354096,863466
24,18,female,Belgian,2,45,ITC,loss,5,left,15,ITC_start,407,space,0,0,141,353685,863877
24,18,female,Belgian,2,45,ITC,loss,5,left,15,ITC_choice,809,j,0,0,141,352874,864688
24,18,female,Belgian,2,45,ITC,loss,5,left,15,ITC_wait,0,undefined,0,0,141,352870,864692
24,18,female,Belgian,2,45,ITC,loss,5,left,15,ITC_collect,952,k,0,0,141,351917,865645
24,18,female,Belgian,2,45,ITC,loss,5,left,15,ITC_outcome,0,undefined,0,0,156,350907,866655
24,18,female,Belgian,2,46,guess,win,5,right,3,guess_start,301,space,0,0,156,350602,866960
24,18,female,Belgian,2,46,guess,win,5,right,3,guess_choice,539,f,0,0,156,350058,867504
24,18,female,Belgian,2,46,guess,win,5,right,3,guess_outcome,0,undefined,0,0,176,348498,869064
24,18,female,Belgian,2,46,ITC,win,5,right,3,ITC_start,630,space,0,0,176,347864,869698
24,18,female,Belgian,2,46,ITC,win,5,right,3,ITC_choice,922,j,0,0,176,346941,870621
24,18,female,Belgian,2,46,ITC,win,5,right,3,ITC_wait,0,undefined,0,0,176,341934,875628
24,18,female,Belgian,2,46,ITC,win,5,right,3,ITC_collect,279,k,0,0,176,341653,875909
24,18,female,Belgian,2,46,ITC,win,5,right,3,ITC_outcome,0,undefined,0,0,196,340643,876919
24,18,female,Belgian,2,47,guess,loss,5,right,14,guess_start,222,space,0,0,196,340419,877143
24,18,female,Belgian,2,47,guess,loss,5,right,14,guess_choice,481,f,0,0,196,339933,877629
24,18,female,Belgian,2,47,guess,loss,5,right,14,guess_outcome,0,undefined,0,0,181,338373,879189
24,18,female,Belgian,2,47,ITC,loss,5,right,14,ITC_start,490,space,0,0,181,337881,879681
24,18,female,Belgian,2,47,ITC,loss,5,right,14,ITC_choice,1398,f,0,0,181,336479,881083
24,18,female,Belgian,2,47,ITC,loss,5,right,14,ITC_wait,0,undefined,0,0,181,336475,881087
24,18,female,Belgian,2,47,ITC,loss,5,right,14,ITC_collect,1202,k,0,0,181,335272,882290
24,18,female,Belgian,2,47,ITC,loss,5,right,14,ITC_outcome,0,undefined,0,0,195,334265,883297
24,18,female,Belgian,2,48,guess,loss,5,left,2,guess_start,295,space,0,0,195,333966,883596
24,18,female,Belgian,2,48,guess,loss,5,left,2,guess_choice,885,j,0,0,195,333076,884486
24,18,female,Belgian,2,48,guess,loss,5,left,2,guess_outcome,0,undefined,0,0,180,331518,886044
24,18,female,Belgian,2,48,ITC,loss,5,left,2,ITC_start,627,space,0,0,180,330888,886674
24,18,female,Belgian,2,48,ITC,loss,5,left,2,ITC_choice,1003,f,0,0,180,329882,887680
24,18,female,Belgian,2,48,ITC,loss,5,left,2,ITC_wait,0,undefined,0,0,180,324875,892687
24,18,female,Belgian,2,48,ITC,loss,5,left,2,ITC_collect,1720,k,0,0,180,323152,894410
24,18,female,Belgian,2,48,ITC,loss,5,left,2,ITC_outcome,0,undefined,0,0,200,322143,895419
24,18,female,Belgian,2,49,guess,neutral,5,left,6,guess_start,699,space,0,0,200,321442,896120
24,18,female,Belgian,2,49,guess,neutral,5,left,6,guess_choice,536,j,0,0,200,320901,896661
24,18,female,Belgian,2,49,guess,neutral,5,left,6,guess_outcome,0,undefined,0,0,200,319340,898222
24,18,female,Belgian,2,49,ITC,neutral,5,left,6,ITC_start,665,space,0,0,200,318674,898888
24,18,female,Belgian,2,49,ITC,neutral,5,left,6,ITC_choice,726,f,0,0,200,317944,899618
24,18,female,Belgian,2,49,ITC,neutral,5,left,6,ITC_wait,0,undefined,0,0,200,312942,904620
24,18,female,Belgian,2,49,ITC,neutral,5,left,6,ITC_collect,400,k,0,0,200,312538,905024
24,18,female,Belgian,2,49,ITC,neutral,5,left,6,ITC_outcome,0,undefined,0,0,220,311533,906029
24,18,female,Belgian,2,50,guess,win,10,left,5,guess_start,479,space,0,0,220,311053,906509
24,18,female,Belgian,2,50,guess,win,10,left,5,guess_choice,935,j,0,0,220,310111,907451
24,18,female,Belgian,2,50,guess,win,10,left,5,guess_outcome,0,undefined,0,0,240,308551,909011
24,18,female,Belgian,2,50,ITC,win,10,left,5,ITC_start,906,space,0,0,240,307642,909920
24,18,female,Belgian,2,50,ITC,win,10,left,5,ITC_choice,752,f,0,0,240,306887,910675
24,18,female,Belgian,2,50,ITC,win,10,left,5,ITC_wait,0,undefined,0,0,240,296880,920682
24,18,female,Belgian,2,50,ITC,win,10,left,5,ITC_collect,351,k,0,0,240,296524,921038
24,18,female,Belgian,2,50,ITC,win,10,left,5,ITC_outcome,0,undefined,0,0,260,295515,922047
24,18,female,Belgian,2,51,guess,loss,10,left,5,guess_start,284,space,0,0,260,295228,922334
24,18,female,Belgian,2,51,guess,loss,10,left,5,guess_choice,464,f,0,0,260,294760,922802
24,18,female,Belgian,2,51,guess,loss,10,left,5,guess_outcome,0,undefined,0,0,245,293200,924362
24,18,female,Belgian,2,51,ITC,loss,10,left,5,ITC_start,361,space,0,0,245,292836,924726
24,18,female,Belgian,2,51,ITC,loss,10,left,5,ITC_choice,903,f,0,0,245,291931,925631
24,18,female,Belgian,2,51,ITC,loss,10,left,5,ITC_wait,0,undefined,0,0,245,281924,935638
24,18,female,Belgian,2,51,ITC,loss,10,left,5,ITC_collect,298,k,0,0,245,281624,935938
24,18,female,Belgian,2,51,ITC,loss,10,left,5,ITC_outcome,0,undefined,0,0,265,280614,936948
24,18,female,Belgian,2,52,guess,neutral,5,left,16,guess_start,244,space,0,0,265,280367,937195
24,18,female,Belgian,2,52,guess,neutral,5,left,16,guess_choice,840,j,0,0,265,279522,938040
24,18,female,Belgian,2,52,guess,neutral,5,left,16,guess_outcome,0,undefined,0,0,265,277961,939601
24,18,female,Belgian,2,52,ITC,neutral,5,left,16,ITC_start,327,space,0,0,265,277632,939930
24,18,female,Belgian,2,52,ITC,neutral,5,left,16,ITC_choice,1053,j,0,0,265,276577,940985
24,18,female,Belgian,2,52,ITC,neutral,5,left,16,ITC_wait,0,undefined,0,0,265,276574,940988
24,18,female,Belgian,2,52,ITC,neutral,5,left,16,ITC_collect,674,k,0,0,265,275898,941664
24,18,female,Belgian,2,52,ITC,neutral,5,left,16,ITC_outcome,0,undefined,0,0,281,274889,942673
24,18,female,Belgian,2,53,guess,win,5,left,7,guess_start,344,space,0,0,281,274542,943020
24,18,female,Belgian,2,53,guess,win,5,left,7,guess_choice,565,f,0,0,281,273972,943590
24,18,female,Belgian,2,53,guess,win,5,left,7,guess_outcome,0,undefined,0,0,301,272412,945150
24,18,female,Belgian,2,53,ITC,win,5,left,7,ITC_start,320,space,0,0,301,272089,945473
24,18,female,Belgian,2,53,ITC,win,5,left,7,ITC_choice,712,f,0,0,301,271375,946187
24,18,female,Belgian,2,53,ITC,win,5,left,7,ITC_wait,0,undefined,0,0,301,266367,951195
24,18,female,Belgian,2,53,ITC,win,5,left,7,ITC_collect,292,k,0,0,301,266071,951491
24,18,female,Belgian,2,53,ITC,win,5,left,7,ITC_outcome,0,undefined,0,0,321,265062,952500
24,18,female,Belgian,2,54,guess,loss,10,left,1,guess_start,91,space,0,0,321,264968,952594
24,18,female,Belgian,2,54,guess,loss,10,left,1,guess_choice,490,f,0,0,321,264474,953088
24,18,female,Belgian,2,54,guess,loss,10,left,1,guess_outcome,0,undefined,0,0,306,262913,954649
24,18,female,Belgian,2,54,ITC,loss,10,left,1,ITC_start,571,space,0,0,306,262340,955222
24,18,female,Belgian,2,54,ITC,loss,10,left,1,ITC_choice,745,f,0,0,306,261593,955969
24,18,female,Belgian,2,54,ITC,loss,10,left,1,ITC_wait,0,undefined,0,0,306,251590,965972
24,18,female,Belgian,2,54,ITC,loss,10,left,1,ITC_collect,319,k,0,0,306,251269,966293
24,18,female,Belgian,2,54,ITC,loss,10,left,1,ITC_outcome,0,undefined,0,0,326,250259,967303
24,18,female,Belgian,2,55,guess,loss,5,right,3,guess_start,9,space,0,0,326,250248,967314
24,18,female,Belgian,2,55,guess,loss,5,right,3,guess_choice,1101,j,0,0,326,249143,968419
24,18,female,Belgian,2,55,guess,loss,5,right,3,guess_outcome,0,undefined,0,0,311,247583,969979
24,18,female,Belgian,2,55,ITC,loss,5,right,3,ITC_start,394,space,0,0,311,247186,970376
24,18,female,Belgian,2,55,ITC,loss,5,right,3,ITC_choice,1469,j,0,0,311,245716,971846
24,18,female,Belgian,2,55,ITC,loss,5,right,3,ITC_wait,0,undefined,0,0,311,240710,976852
24,18,female,Belgian,2,55,ITC,loss,5,right,3,ITC_collect,515,k,0,0,311,240192,977370
24,18,female,Belgian,2,55,ITC,loss,5,right,3,ITC_outcome,0,undefined,0,0,331,239183,978379
24,18,female,Belgian,2,56,guess,win,5,left,12,guess_start,158,space,0,0,331,239022,978540
24,18,female,Belgian,2,56,guess,win,5,left,12,guess_choice,1534,f,0,0,331,237483,980079
24,18,female,Belgian,2,56,guess,win,5,left,12,guess_outcome,0,undefined,0,0,351,235922,981640
24,18,female,Belgian,2,56,ITC,win,5,left,12,ITC_start,754,space,0,0,351,235166,982396
24,18,female,Belgian,2,56,ITC,win,5,left,12,ITC_choice,822,j,0,0,351,234341,983221
24,18,female,Belgian,2,56,ITC,win,5,left,12,ITC_wait,0,undefined,0,0,351,234338,983224
24,18,female,Belgian,2,56,ITC,win,5,left,12,ITC_collect,479,k,0,0,351,233859,983703
24,18,female,Belgian,2,56,ITC,win,5,left,12,ITC_outcome,0,undefined,0,0,363,232850,984712
24,18,female,Belgian,2,57,guess,neutral,10,right,1,guess_start,361,space,0,0,363,232487,985075
24,18,female,Belgian,2,57,guess,neutral,10,right,1,guess_choice,980,j,0,0,363,231501,986061
24,18,female,Belgian,2,57,guess,neutral,10,right,1,guess_outcome,0,undefined,0,0,363,229942,987620
24,18,female,Belgian,2,57,ITC,neutral,10,right,1,ITC_start,322,space,0,0,363,229618,987944
24,18,female,Belgian,2,57,ITC,neutral,10,right,1,ITC_choice,1457,j,0,0,363,228158,989404
24,18,female,Belgian,2,57,ITC,neutral,10,right,1,ITC_wait,0,undefined,0,0,363,218151,999411
24,18,female,Belgian,2,57,ITC,neutral,10,right,1,ITC_collect,411,k,0,0,363,217736,999826
24,18,female,Belgian,2,57,ITC,neutral,10,right,1,ITC_outcome,0,undefined,0,0,383,216727,1000835
24,18,female,Belgian,2,58,guess,neutral,5,left,3,guess_start,319,space,0,0,383,216404,1001158
24,18,female,Belgian,2,58,guess,neutral,5,left,3,guess_choice,780,f,0,0,383,215619,1001943
24,18,female,Belgian,2,58,guess,neutral,5,left,3,guess_outcome,0,undefined,0,0,383,214062,1003500
24,18,female,Belgian,2,58,ITC,neutral,5,left,3,ITC_start,293,space,0,0,383,213765,1003797
24,18,female,Belgian,2,58,ITC,neutral,5,left,3,ITC_choice,773,f,0,0,383,212990,1004572
24,18,female,Belgian,2,58,ITC,neutral,5,left,3,ITC_wait,0,undefined,0,0,383,207984,1009578
24,18,female,Belgian,2,58,ITC,neutral,5,left,3,ITC_collect,353,k,0,0,383,207627,1009935
24,18,female,Belgian,2,58,ITC,neutral,5,left,3,ITC_outcome,0,undefined,0,0,403,206618,1010944
24,18,female,Belgian,2,59,guess,neutral,5,left,8,guess_start,33,space,0,0,403,206583,1010979
24,18,female,Belgian,2,59,guess,neutral,5,left,8,guess_choice,733,j,0,0,403,205847,1011715
24,18,female,Belgian,2,59,guess,neutral,5,left,8,guess_outcome,0,undefined,0,0,403,204286,1013276
24,18,female,Belgian,2,59,ITC,neutral,5,left,8,ITC_start,382,space,0,0,403,203902,1013660
24,18,female,Belgian,2,59,ITC,neutral,5,left,8,ITC_choice,1569,f,0,0,403,202331,1015231
24,18,female,Belgian,2,59,ITC,neutral,5,left,8,ITC_wait,0,undefined,0,0,403,197323,1020239
24,18,female,Belgian,2,59,ITC,neutral,5,left,8,ITC_collect,323,k,0,0,403,196998,1020564
24,18,female,Belgian,2,59,ITC,neutral,5,left,8,ITC_outcome,0,undefined,0,0,423,195993,1021569
24,18,female,Belgian,2,60,guess,loss,5,right,5,guess_start,266,space,0,0,423,195724,1021838
24,18,female,Belgian,2,60,guess,loss,5,right,5,guess_choice,803,j,0,0,423,194916,1022646
24,18,female,Belgian,2,60,guess,loss,5,right,5,guess_outcome,0,undefined,0,0,408,193358,1024204
24,18,female,Belgian,2,60,ITC,loss,5,right,5,ITC_start,695,space,0,0,408,192661,1024901
24,18,female,Belgian,2,60,ITC,loss,5,right,5,ITC_choice,1231,j,0,0,408,191428,1026134
24,18,female,Belgian,2,60,ITC,loss,5,right,5,ITC_wait,0,undefined,0,0,408,186420,1031142
24,18,female,Belgian,2,60,ITC,loss,5,right,5,ITC_collect,411,k,0,0,408,186005,1031557
24,18,female,Belgian,2,60,ITC,loss,5,right,5,ITC_outcome,0,undefined,0,0,428,184996,1032566
24,18,female,Belgian,2,61,guess,win,5,left,2,guess_start,478,space,0,0,428,184515,1033047
24,18,female,Belgian,2,61,guess,win,5,left,2,guess_choice,849,f,0,0,428,183660,1033902
24,18,female,Belgian,2,61,guess,win,5,left,2,guess_outcome,0,undefined,0,0,448,182100,1035462
24,18,female,Belgian,2,61,ITC,win,5,left,2,ITC_start,834,space,0,0,448,181264,1036298
24,18,female,Belgian,2,61,ITC,win,5,left,2,ITC_choice,841,f,0,0,448,180420,1037142
24,18,female,Belgian,2,61,ITC,win,5,left,2,ITC_wait,0,undefined,0,0,448,175414,1042148
24,18,female,Belgian,2,61,ITC,win,5,left,2,ITC_collect,385,k,0,0,448,175027,1042535
24,18,female,Belgian,2,61,ITC,win,5,left,2,ITC_outcome,0,undefined,0,0,468,174017,1043545
24,18,female,Belgian,2,62,guess,loss,5,right,12,guess_start,265,space,0,0,468,173749,1043813
24,18,female,Belgian,2,62,guess,loss,5,right,12,guess_choice,391,f,0,0,468,173352,1044210
24,18,female,Belgian,2,62,guess,loss,5,right,12,guess_outcome,0,undefined,0,0,453,171792,1045770
24,18,female,Belgian,2,62,ITC,loss,5,right,12,ITC_start,572,space,0,0,453,171218,1046344
24,18,female,Belgian,2,62,ITC,loss,5,right,12,ITC_choice,1746,f,0,0,453,169469,1048093
24,18,female,Belgian,2,62,ITC,loss,5,right,12,ITC_wait,0,undefined,0,0,453,169465,1048097
24,18,female,Belgian,2,62,ITC,loss,5,right,12,ITC_collect,597,k,0,0,453,168867,1048695
24,18,female,Belgian,2,62,ITC,loss,5,right,12,ITC_outcome,0,undefined,0,0,465,167857,1049705
24,18,female,Belgian,2,63,guess,win,10,left,2,guess_start,850,space,0,0,465,167003,1050559
24,18,female,Belgian,2,63,guess,win,10,left,2,guess_choice,316,j,0,0,465,166683,1050879
24,18,female,Belgian,2,63,guess,win,10,left,2,guess_outcome,0,undefined,0,0,485,165123,1052439
24,18,female,Belgian,2,63,ITC,win,10,left,2,ITC_start,397,space,0,0,485,164724,1052838
24,18,female,Belgian,2,63,ITC,win,10,left,2,ITC_choice,862,f,0,0,485,163859,1053703
24,18,female,Belgian,2,63,ITC,win,10,left,2,ITC_wait,0,undefined,0,0,485,153852,1063710
24,18,female,Belgian,2,63,ITC,win,10,left,2,ITC_collect,448,k,0,0,485,153401,1064161
24,18,female,Belgian,2,63,ITC,win,10,left,2,ITC_outcome,0,undefined,0,0,505,152391,1065171
24,18,female,Belgian,2,64,guess,loss,5,right,8,guess_start,322,space,0,0,505,152066,1065496
24,18,female,Belgian,2,64,guess,loss,5,right,8,guess_choice,719,j,0,0,505,151341,1066221
24,18,female,Belgian,2,64,guess,loss,5,right,8,guess_outcome,0,undefined,0,0,490,149783,1067779
24,18,female,Belgian,2,64,ITC,loss,5,right,8,ITC_start,907,space,0,0,490,148874,1068688
24,18,female,Belgian,2,64,ITC,loss,5,right,8,ITC_choice,1131,j,0,0,490,147738,1069824
24,18,female,Belgian,2,64,ITC,loss,5,right,8,ITC_wait,0,undefined,0,0,490,142734,1074828
24,18,female,Belgian,2,64,ITC,loss,5,right,8,ITC_collect,451,k,0,0,490,142280,1075282
24,18,female,Belgian,2,64,ITC,loss,5,right,8,ITC_outcome,0,undefined,0,0,510,141270,1076292
24,18,female,Belgian,2,65,guess,neutral,10,left,5,guess_start,340,space,0,0,510,140928,1076634
24,18,female,Belgian,2,65,guess,neutral,10,left,5,guess_choice,986,f,0,0,510,139936,1077626
24,18,female,Belgian,2,65,guess,neutral,10,left,5,guess_outcome,0,undefined,0,0,510,138377,1079185
24,18,female,Belgian,2,65,ITC,neutral,10,left,5,ITC_start,548,space,0,0,510,137825,1079737
24,18,female,Belgian,2,65,ITC,neutral,10,left,5,ITC_choice,673,f,0,0,510,137150,1080412
24,18,female,Belgian,2,65,ITC,neutral,10,left,5,ITC_wait,0,undefined,0,0,510,127143,1090419
24,18,female,Belgian,2,65,ITC,neutral,10,left,5,ITC_collect,344,k,0,0,510,126796,1090766
24,18,female,Belgian,2,65,ITC,neutral,10,left,5,ITC_outcome,0,undefined,0,0,530,125786,1091776
24,18,female,Belgian,2,66,guess,neutral,5,left,9,guess_start,187,space,0,0,530,125596,1091966
24,18,female,Belgian,2,66,guess,neutral,5,left,9,guess_choice,740,j,0,0,530,124851,1092711
24,18,female,Belgian,2,66,guess,neutral,5,left,9,guess_outcome,0,undefined,0,0,530,123292,1094270
24,18,female,Belgian,2,66,ITC,neutral,5,left,9,ITC_start,372,space,0,0,530,122918,1094644
24,18,female,Belgian,2,66,ITC,neutral,5,left,9,ITC_choice,899,f,0,0,530,122017,1095545
24,18,female,Belgian,2,66,ITC,neutral,5,left,9,ITC_wait,0,undefined,0,0,530,117010,1100552
24,18,female,Belgian,2,66,ITC,neutral,5,left,9,ITC_collect,369,k,0,0,530,116638,1100924
24,18,female,Belgian,2,66,ITC,neutral,5,left,9,ITC_outcome,0,undefined,0,0,550,115633,1101929
24,18,female,Belgian,2,67,guess,win,5,left,6,guess_start,163,space,0,0,550,115467,1102095
24,18,female,Belgian,2,67,guess,win,5,left,6,guess_choice,538,j,0,0,550,114923,1102639
24,18,female,Belgian,2,67,guess,win,5,left,6,guess_outcome,0,undefined,0,0,570,113363,1104199
24,18,female,Belgian,2,67,ITC,win,5,left,6,ITC_start,328,space,0,0,570,113033,1104529
24,18,female,Belgian,2,67,ITC,win,5,left,6,ITC_choice,1493,f,0,0,570,111537,1106025
24,18,female,Belgian,2,67,ITC,win,5,left,6,ITC_wait,0,undefined,0,0,570,106535,1111027
24,18,female,Belgian,2,67,ITC,win,5,left,6,ITC_collect,369,k,0,0,570,106164,1111398
24,18,female,Belgian,2,67,ITC,win,5,left,6,ITC_outcome,0,undefined,0,0,590,105159,1112403
24,18,female,Belgian,2,68,guess,loss,5,right,7,guess_start,169,space,0,0,590,104986,1112576
24,18,female,Belgian,2,68,guess,loss,5,right,7,guess_choice,855,j,0,0,590,104125,1113437
24,18,female,Belgian,2,68,guess,loss,5,right,7,guess_outcome,0,undefined,0,0,575,102565,1114997
24,18,female,Belgian,2,68,ITC,loss,5,right,7,ITC_start,814,space,0,0,575,101748,1115814
24,18,female,Belgian,2,68,ITC,loss,5,right,7,ITC_choice,1483,j,0,0,575,100263,1117299
24,18,female,Belgian,2,68,ITC,loss,5,right,7,ITC_wait,0,undefined,0,0,575,95255,1122307
24,18,female,Belgian,2,68,ITC,loss,5,right,7,ITC_collect,390,k,0,0,575,94862,1122700
24,18,female,Belgian,2,68,ITC,loss,5,right,7,ITC_outcome,0,undefined,0,0,595,93853,1123709
24,18,female,Belgian,2,69,guess,loss,10,right,6,guess_start,171,space,0,0,595,93678,1123884
24,18,female,Belgian,2,69,guess,loss,10,right,6,guess_choice,719,j,0,0,595,92954,1124608
24,18,female,Belgian,2,69,guess,loss,10,right,6,guess_outcome,0,undefined,0,0,580,91395,1126167
24,18,female,Belgian,2,69,ITC,loss,10,right,6,ITC_start,983,space,0,0,580,90409,1127153
24,18,female,Belgian,2,69,ITC,loss,10,right,6,ITC_choice,1134,j,0,0,580,89272,1128290
24,18,female,Belgian,2,69,ITC,loss,10,right,6,ITC_wait,0,undefined,0,0,580,79269,1138293
24,18,female,Belgian,2,69,ITC,loss,10,right,6,ITC_collect,395,k,0,0,580,78870,1138692
24,18,female,Belgian,2,69,ITC,loss,10,right,6,ITC_outcome,0,undefined,0,0,600,77860,1139702
24,18,female,Belgian,2,70,guess,neutral,10,left,2,guess_start,175,space,0,0,600,77682,1139880
24,18,female,Belgian,2,70,guess,neutral,10,left,2,guess_choice,834,f,0,0,600,76845,1140717
24,18,female,Belgian,2,70,guess,neutral,10,left,2,guess_outcome,0,undefined,0,0,600,75286,1142276
24,18,female,Belgian,2,70,ITC,neutral,10,left,2,ITC_start,802,space,0,0,600,74481,1143081
24,18,female,Belgian,2,70,ITC,neutral,10,left,2,ITC_choice,746,f,0,0,600,73733,1143829
24,18,female,Belgian,2,70,ITC,neutral,10,left,2,ITC_wait,0,undefined,0,0,600,63727,1153835
24,18,female,Belgian,2,70,ITC,neutral,10,left,2,ITC_collect,358,k,0,0,600,63366,1154196
24,18,female,Belgian,2,70,ITC,neutral,10,left,2,ITC_outcome,0,undefined,0,0,620,62356,1155206
24,18,female,Belgian,2,71,guess,win,10,left,6,guess_start,529,space,0,0,620,61823,1155739
24,18,female,Belgian,2,71,guess,win,10,left,6,guess_choice,667,j,0,0,620,61151,1156411
24,18,female,Belgian,2,71,guess,win,10,left,6,guess_outcome,0,undefined,0,0,640,59594,1157968
24,18,female,Belgian,2,71,ITC,win,10,left,6,ITC_start,449,space,0,0,640,59143,1158419
24,18,female,Belgian,2,71,ITC,win,10,left,6,ITC_choice,680,f,0,0,640,58459,1159103
24,18,female,Belgian,2,71,ITC,win,10,left,6,ITC_wait,0,undefined,0,0,640,48452,1169110
24,18,female,Belgian,2,71,ITC,win,10,left,6,ITC_collect,342,k,0,0,640,48108,1169454
24,18,female,Belgian,2,71,ITC,win,10,left,6,ITC_outcome,0,undefined,0,0,660,47100,1170462
24,18,female,Belgian,2,72,guess,neutral,5,right,1,guess_start,194,space,0,0,660,46904,1170658
24,18,female,Belgian,2,72,guess,neutral,5,right,1,guess_choice,659,f,0,0,660,46240,1171322
24,18,female,Belgian,2,72,guess,neutral,5,right,1,guess_outcome,0,undefined,0,0,660,44683,1172879
24,18,female,Belgian,2,72,ITC,neutral,5,right,1,ITC_start,460,space,0,0,660,44220,1173342
24,18,female,Belgian,2,72,ITC,neutral,5,right,1,ITC_choice,1276,j,0,0,660,42941,1174621
24,18,female,Belgian,2,72,ITC,neutral,5,right,1,ITC_wait,0,undefined,0,0,660,37934,1179628
24,18,female,Belgian,2,72,ITC,neutral,5,right,1,ITC_collect,405,k,0,0,660,37526,1180036
24,18,female,Belgian,2,72,ITC,neutral,5,right,1,ITC_outcome,0,undefined,0,0,680,36516,1181046
24,18,female,Belgian,2,73,guess,loss,5,left,4,guess_start,98,space,0,0,680,36417,1181145
24,18,female,Belgian,2,73,guess,loss,5,left,4,guess_choice,546,j,0,0,680,35867,1181695
24,18,female,Belgian,2,73,guess,loss,5,left,4,guess_outcome,0,undefined,0,0,665,34308,1183254
24,18,female,Belgian,2,73,ITC,loss,5,left,4,ITC_start,440,space,0,0,665,33864,1183698
24,18,female,Belgian,2,73,ITC,loss,5,left,4,ITC_choice,823,f,0,0,665,33037,1184525
24,18,female,Belgian,2,73,ITC,loss,5,left,4,ITC_wait,0,undefined,0,0,665,28034,1189528
24,18,female,Belgian,2,73,ITC,loss,5,left,4,ITC_collect,379,k,0,0,665,27652,1189910
24,18,female,Belgian,2,73,ITC,loss,5,left,4,ITC_outcome,0,undefined,0,0,685,26642,1190920
24,18,female,Belgian,2,74,guess,win,5,right,4,guess_start,375,space,0,0,685,26263,1191299
24,18,female,Belgian,2,74,guess,win,5,right,4,guess_choice,637,j,0,0,685,25620,1191942
24,18,female,Belgian,2,74,guess,win,5,right,4,guess_outcome,0,undefined,0,0,705,24060,1193502
24,18,female,Belgian,2,74,ITC,win,5,right,4,ITC_start,615,space,0,0,705,23443,1194119
24,18,female,Belgian,2,74,ITC,win,5,right,4,ITC_choice,1020,j,0,0,705,22420,1195142
24,18,female,Belgian,2,74,ITC,win,5,right,4,ITC_wait,0,undefined,0,0,705,17413,1200149
24,18,female,Belgian,2,74,ITC,win,5,right,4,ITC_collect,446,k,0,0,705,16964,1200598
24,18,female,Belgian,2,74,ITC,win,5,right,4,ITC_outcome,0,undefined,0,0,725,15953,1201609
24,18,female,Belgian,2,75,guess,loss,10,right,1,guess_start,331,space,0,0,725,15620,1201942
24,18,female,Belgian,2,75,guess,loss,10,right,1,guess_choice,431,j,0,0,725,15185,1202377
24,18,female,Belgian,2,75,guess,loss,10,right,1,guess_outcome,0,undefined,0,0,710,13627,1203935
24,18,female,Belgian,2,75,ITC,loss,10,right,1,ITC_start,666,space,0,0,710,12960,1204602
24,18,female,Belgian,2,75,ITC,loss,10,right,1,ITC_choice,1163,j,0,0,710,11796,1205766
24,18,female,Belgian,2,75,ITC,loss,10,right,1,ITC_wait,0,undefined,0,0,710,1793,1215769
24,18,female,Belgian,2,75,ITC,loss,10,right,1,ITC_collect,406,k,0,0,710,1386,1216176
24,18,female,Belgian,2,75,ITC,loss,10,right,1,ITC_outcome,0,undefined,0,0,730,375,1217187
24,18,female,Belgian,2,76,guess,win,5,right,16,guess_start,119,space,0,0,730,253,1217309
24,18,female,Belgian,2,76,guess,win,5,right,16,guess_choice,0,undefined,0,0,730,-6,1217568
24,18,female,Belgian,3,77,guess,win,5,right,9,guess_start,685,space,0,0,0,479314,1226748
24,18,female,Belgian,3,77,guess,win,5,right,9,guess_choice,550,j,0,0,0,478760,1227302
24,18,female,Belgian,3,77,guess,win,5,right,9,guess_outcome,0,undefined,0,0,20,477200,1228862
24,18,female,Belgian,3,77,ITC,win,5,right,9,ITC_start,552,space,0,0,20,476645,1229417
24,18,female,Belgian,3,77,ITC,win,5,right,9,ITC_choice,525,f,0,0,20,476117,1229945
24,18,female,Belgian,3,77,ITC,win,5,right,9,ITC_wait,0,undefined,0,0,20,476114,1229948
24,18,female,Belgian,3,77,ITC,win,5,right,9,ITC_collect,921,k,0,0,20,475192,1230870
24,18,female,Belgian,3,77,ITC,win,5,right,9,ITC_outcome,0,undefined,0,0,29,474182,1231880
24,18,female,Belgian,3,78,guess,loss,5,right,1,guess_start,334,space,0,0,29,473845,1232217
24,18,female,Belgian,3,78,guess,loss,5,right,1,guess_choice,460,f,0,0,29,473380,1232682
24,18,female,Belgian,3,78,guess,loss,5,right,1,guess_outcome,0,undefined,0,0,14,471824,1234238
24,18,female,Belgian,3,78,ITC,loss,5,right,1,ITC_start,828,space,0,0,14,470993,1235069
24,18,female,Belgian,3,78,ITC,loss,5,right,1,ITC_choice,1264,j,0,0,14,469727,1236335
24,18,female,Belgian,3,78,ITC,loss,5,right,1,ITC_wait,0,undefined,0,0,14,464721,1241341
24,18,female,Belgian,3,78,ITC,loss,5,right,1,ITC_collect,974,k,0,0,14,463744,1242318
24,18,female,Belgian,3,78,ITC,loss,5,right,1,ITC_outcome,0,undefined,0,0,34,462735,1243327
24,18,female,Belgian,3,79,guess,neutral,10,left,4,guess_start,192,space,0,0,34,462539,1243523
24,18,female,Belgian,3,79,guess,neutral,10,left,4,guess_choice,779,f,0,0,34,461756,1244306
24,18,female,Belgian,3,79,guess,neutral,10,left,4,guess_outcome,0,undefined,0,0,34,460201,1245861
24,18,female,Belgian,3,79,ITC,neutral,10,left,4,ITC_start,314,space,0,0,34,459883,1246179
24,18,female,Belgian,3,79,ITC,neutral,10,left,4,ITC_choice,1391,j,0,0,34,458490,1247572
24,18,female,Belgian,3,79,ITC,neutral,10,left,4,ITC_wait,0,undefined,0,0,34,458487,1247575
24,18,female,Belgian,3,79,ITC,neutral,10,left,4,ITC_collect,772,k,0,0,34,457712,1248350
24,18,female,Belgian,3,79,ITC,neutral,10,left,4,ITC_outcome,0,undefined,0,0,38,456707,1249355
24,18,female,Belgian,3,80,guess,win,5,right,5,guess_start,220,space,0,0,38,456484,1249578
24,18,female,Belgian,3,80,guess,win,5,right,5,guess_choice,469,f,0,0,38,456011,1250051
24,18,female,Belgian,3,80,guess,win,5,right,5,guess_outcome,0,undefined,0,0,58,454451,1251611
24,18,female,Belgian,3,80,ITC,win,5,right,5,ITC_start,533,space,0,0,58,453916,1252146
24,18,female,Belgian,3,80,ITC,win,5,right,5,ITC_choice,912,f,0,0,58,453001,1253061
24,18,female,Belgian,3,80,ITC,win,5,right,5,ITC_wait,0,undefined,0,0,58,452998,1253064
24,18,female,Belgian,3,80,ITC,win,5,right,5,ITC_collect,1857,k,0,0,58,451140,1254922
24,18,female,Belgian,3,80,ITC,win,5,right,5,ITC_outcome,0,undefined,0,0,63,450130,1255932
24,18,female,Belgian,3,81,guess,win,10,right,8,guess_start,78,space,0,0,63,450050,1256012
24,18,female,Belgian,3,81,guess,win,10,right,8,guess_choice,489,f,0,0,63,449556,1256506
24,18,female,Belgian,3,81,guess,win,10,right,8,guess_outcome,0,undefined,0,0,83,447996,1258066
24,18,female,Belgian,3,81,ITC,win,10,right,8,ITC_start,349,space,0,0,83,447646,1258416
24,18,female,Belgian,3,81,ITC,win,10,right,8,ITC_choice,764,f,0,0,83,446879,1259183
24,18,female,Belgian,3,81,ITC,win,10,right,8,ITC_wait,0,undefined,0,0,83,446876,1259186
24,18,female,Belgian,3,81,ITC,win,10,right,8,ITC_collect,651,k,0,0,83,446224,1259838
24,18,female,Belgian,3,81,ITC,win,10,right,8,ITC_outcome,0,undefined,0,0,91,445217,1260845
24,18,female,Belgian,3,82,guess,loss,10,right,4,guess_start,289,space,0,0,91,444924,1261138
24,18,female,Belgian,3,82,guess,loss,10,right,4,guess_choice,452,f,0,0,91,444467,1261595
24,18,female,Belgian,3,82,guess,loss,10,right,4,guess_outcome,0,undefined,0,0,76,442906,1263156
24,18,female,Belgian,3,82,ITC,loss,10,right,4,ITC_start,558,space,0,0,76,442346,1263716
24,18,female,Belgian,3,82,ITC,loss,10,right,4,ITC_wait,0,undefined,0,0,76,441520,1264542
24,18,female,Belgian,3,82,ITC,loss,10,right,4,ITC_choice,817,f,0,0,76,441524,1264538
24,18,female,Belgian,3,82,ITC,loss,10,right,4,ITC_collect,860,k,0,0,76,440659,1265403
24,18,female,Belgian,3,82,ITC,loss,10,right,4,ITC_outcome,0,undefined,0,0,80,439651,1266411
24,18,female,Belgian,3,83,guess,neutral,5,left,7,guess_start,333,space,0,0,80,439315,1266747
24,18,female,Belgian,3,83,guess,neutral,5,left,7,guess_choice,857,j,0,0,80,438453,1267609
24,18,female,Belgian,3,83,guess,neutral,5,left,7,guess_outcome,0,undefined,0,0,80,436893,1269169
24,18,female,Belgian,3,83,ITC,neutral,5,left,7,ITC_start,249,space,0,0,80,436641,1269421
24,18,female,Belgian,3,83,ITC,neutral,5,left,7,ITC_choice,439,j,0,0,80,436199,1269863
24,18,female,Belgian,3,83,ITC,neutral,5,left,7,ITC_wait,0,undefined,0,0,80,436195,1269867
24,18,female,Belgian,3,83,ITC,neutral,5,left,7,ITC_collect,489,k,0,0,80,435706,1270356
24,18,female,Belgian,3,83,ITC,neutral,5,left,7,ITC_outcome,0,undefined,0,0,87,434696,1271366
24,18,female,Belgian,3,84,guess,win,5,right,13,guess_start,66,space,0,0,87,434627,1271435
24,18,female,Belgian,3,84,guess,win,5,right,13,guess_choice,497,f,0,0,87,434125,1271937
24,18,female,Belgian,3,84,guess,win,5,right,13,guess_outcome,0,undefined,0,0,107,432567,1273495
24,18,female,Belgian,3,84,ITC,win,5,right,13,ITC_start,629,space,0,0,107,431937,1274125
24,18,female,Belgian,3,84,ITC,win,5,right,13,ITC_choice,385,j,0,0,107,431548,1274514
24,18,female,Belgian,3,84,ITC,win,5,right,13,ITC_wait,0,undefined,0,0,107,426542,1279520
24,18,female,Belgian,3,84,ITC,win,5,right,13,ITC_collect,325,k,0,0,107,426213,1279849
24,18,female,Belgian,3,84,ITC,win,5,right,13,ITC_outcome,0,undefined,0,0,127,425204,1280858
24,18,female,Belgian,3,85,guess,neutral,10,right,1,guess_start,68,space,0,0,127,425132,1280930
24,18,female,Belgian,3,85,guess,neutral,10,right,1,guess_choice,522,f,0,0,127,424605,1281457
24,18,female,Belgian,3,85,guess,neutral,10,right,1,guess_outcome,0,undefined,0,0,127,423045,1283017
24,18,female,Belgian,3,85,ITC,neutral,10,right,1,ITC_start,283,space,0,0,127,422760,1283302
24,18,female,Belgian,3,85,ITC,neutral,10,right,1,ITC_choice,753,f,0,0,127,422004,1284058
24,18,female,Belgian,3,85,ITC,neutral,10,right,1,ITC_wait,0,undefined,0,0,127,422001,1284061
24,18,female,Belgian,3,85,ITC,neutral,10,right,1,ITC_collect,914,k,0,0,127,421086,1284976
24,18,female,Belgian,3,85,ITC,neutral,10,right,1,ITC_outcome,0,undefined,0,0,128,420080,1285982
24,18,female,Belgian,3,86,guess,loss,5,left,12,guess_start,275,space,0,0,128,419801,1286261
24,18,female,Belgian,3,86,guess,loss,5,left,12,guess_choice,588,f,0,0,128,419208,1286854
24,18,female,Belgian,3,86,guess,loss,5,left,12,guess_outcome,0,undefined,0,0,113,417651,1288411
24,18,female,Belgian,3,86,ITC,loss,5,left,12,ITC_start,669,space,0,0,113,416979,1289083
24,18,female,Belgian,3,86,ITC,loss,5,left,12,ITC_wait,0,undefined,0,0,113,416469,1289593
24,18,female,Belgian,3,86,ITC,loss,5,left,12,ITC_choice,503,j,0,0,113,416472,1289590
24,18,female,Belgian,3,86,ITC,loss,5,left,12,ITC_collect,720,k,0,0,113,415747,1290315
24,18,female,Belgian,3,86,ITC,loss,5,left,12,ITC_outcome,0,undefined,0,0,125,414737,1291325
24,18,female,Belgian,3,87,guess,neutral,5,right,9,guess_start,266,space,0,0,125,414468,1291594
24,18,female,Belgian,3,87,guess,neutral,5,right,9,guess_choice,859,j,0,0,125,413605,1292457
24,18,female,Belgian,3,87,guess,neutral,5,right,9,guess_outcome,0,undefined,0,0,125,412046,1294016
24,18,female,Belgian,3,87,ITC,neutral,5,right,9,ITC_start,177,space,0,0,125,411866,1294196
24,18,female,Belgian,3,87,ITC,neutral,5,right,9,ITC_choice,808,f,0,0,125,411056,1295006
24,18,female,Belgian,3,87,ITC,neutral,5,right,9,ITC_wait,0,undefined,0,0,125,411052,1295010
24,18,female,Belgian,3,87,ITC,neutral,5,right,9,ITC_collect,789,k,0,0,125,410262,1295800
24,18,female,Belgian,3,87,ITC,neutral,5,right,9,ITC_outcome,0,undefined,0,0,134,409257,1296805
24,18,female,Belgian,3,88,guess,loss,10,left,3,guess_start,18,space,0,0,134,409236,1296826
24,18,female,Belgian,3,88,guess,loss,10,left,3,guess_choice,567,f,0,0,134,408664,1297398
24,18,female,Belgian,3,88,guess,loss,10,left,3,guess_outcome,0,undefined,0,0,119,407104,1298958
24,18,female,Belgian,3,88,ITC,loss,10,left,3,ITC_start,451,space,0,0,119,406649,1299413
24,18,female,Belgian,3,88,ITC,loss,10,left,3,ITC_choice,517,j,0,0,119,406129,1299933
24,18,female,Belgian,3,88,ITC,loss,10,left,3,ITC_wait,0,undefined,0,0,119,406125,1299937
24,18,female,Belgian,3,88,ITC,loss,10,left,3,ITC_collect,771,k,0,0,119,405352,1300710
24,18,female,Belgian,3,88,ITC,loss,10,left,3,ITC_outcome,0,undefined,0,0,122,404343,1301719
24,18,female,Belgian,3,89,guess,win,5,left,1,guess_start,309,space,0,0,122,404031,1302031
24,18,female,Belgian,3,89,guess,win,5,left,1,guess_choice,385,f,0,0,122,403641,1302421
24,18,female,Belgian,3,89,guess,win,5,left,1,guess_outcome,0,undefined,0,0,142,402083,1303979
24,18,female,Belgian,3,89,ITC,win,5,left,1,ITC_start,329,space,0,0,142,401752,1304310
24,18,female,Belgian,3,89,ITC,win,5,left,1,ITC_choice,505,j,0,0,142,401244,1304818
24,18,female,Belgian,3,89,ITC,win,5,left,1,ITC_wait,0,undefined,0,0,142,401241,1304821
24,18,female,Belgian,3,89,ITC,win,5,left,1,ITC_collect,521,k,0,0,142,400718,1305344
24,18,female,Belgian,3,89,ITC,win,5,left,1,ITC_outcome,0,undefined,0,0,143,399709,1306353
24,18,female,Belgian,3,90,guess,loss,5,right,15,guess_start,256,space,0,0,143,399449,1306613
24,18,female,Belgian,3,90,guess,loss,5,right,15,guess_choice,367,f,0,0,143,399077,1306985
24,18,female,Belgian,3,90,guess,loss,5,right,15,guess_outcome,0,undefined,0,0,128,397517,1308545
24,18,female,Belgian,3,90,ITC,loss,5,right,15,ITC_start,423,space,0,0,128,397091,1308971
24,18,female,Belgian,3,90,ITC,loss,5,right,15,ITC_wait,0,undefined,0,0,128,396374,1309688
24,18,female,Belgian,3,90,ITC,loss,5,right,15,ITC_choice,710,f,0,0,128,396378,1309684
24,18,female,Belgian,3,90,ITC,loss,5,right,15,ITC_collect,632,k,0,0,128,395741,1310321
24,18,female,Belgian,3,90,ITC,loss,5,right,15,ITC_outcome,0,undefined,0,0,143,394730,1311332
24,18,female,Belgian,3,91,guess,loss,5,right,10,guess_start,205,space,0,0,143,394523,1311539
24,18,female,Belgian,3,91,guess,loss,5,right,10,guess_choice,457,f,0,0,143,394060,1312002
24,18,female,Belgian,3,91,guess,loss,5,right,10,guess_outcome,0,undefined,0,0,128,392500,1313562
24,18,female,Belgian,3,91,ITC,loss,5,right,10,ITC_start,640,space,0,0,128,391857,1314205
24,18,female,Belgian,3,91,ITC,loss,5,right,10,ITC_wait,0,undefined,0,0,128,391233,1314829
24,18,female,Belgian,3,91,ITC,loss,5,right,10,ITC_choice,618,f,0,0,128,391236,1314826
24,18,female,Belgian,3,91,ITC,loss,5,right,10,ITC_collect,1060,k,0,0,128,390170,1315892
24,18,female,Belgian,3,91,ITC,loss,5,right,10,ITC_outcome,0,undefined,0,0,138,389166,1316896
24,18,female,Belgian,3,92,guess,win,10,right,3,guess_start,240,space,0,0,138,388923,1317139
24,18,female,Belgian,3,92,guess,win,10,right,3,guess_choice,353,f,0,0,138,388564,1317498
24,18,female,Belgian,3,92,guess,win,10,right,3,guess_outcome,0,undefined,0,0,158,387003,1319059
24,18,female,Belgian,3,92,ITC,win,10,right,3,ITC_start,397,space,0,0,158,386603,1319459
24,18,female,Belgian,3,92,ITC,win,10,right,3,ITC_choice,682,f,0,0,158,385918,1320144
24,18,female,Belgian,3,92,ITC,win,10,right,3,ITC_wait,0,undefined,0,0,158,385914,1320148
24,18,female,Belgian,3,92,ITC,win,10,right,3,ITC_collect,580,k,0,0,158,385332,1320730
24,18,female,Belgian,3,92,ITC,win,10,right,3,ITC_outcome,0,undefined,0,0,161,384326,1321736
24,18,female,Belgian,3,93,guess,neutral,5,left,11,guess_start,366,space,0,0,161,383958,1322104
24,18,female,Belgian,3,93,guess,neutral,5,left,11,guess_choice,957,j,0,0,161,382996,1323066
24,18,female,Belgian,3,93,guess,neutral,5,left,11,guess_outcome,0,undefined,0,0,161,381435,1324627
24,18,female,Belgian,3,93,ITC,neutral,5,left,11,ITC_start,294,space,0,0,161,381140,1324922
24,18,female,Belgian,3,93,ITC,neutral,5,left,11,ITC_choice,643,j,0,0,161,380495,1325567
24,18,female,Belgian,3,93,ITC,neutral,5,left,11,ITC_wait,0,undefined,0,0,161,380492,1325570
24,18,female,Belgian,3,93,ITC,neutral,5,left,11,ITC_collect,458,k,0,0,161,380031,1326031
24,18,female,Belgian,3,93,ITC,neutral,5,left,11,ITC_outcome,0,undefined,0,0,172,379025,1327037
24,18,female,Belgian,3,94,guess,win,10,left,1,guess_start,428,space,0,0,172,378593,1327469
24,18,female,Belgian,3,94,guess,win,10,left,1,guess_choice,583,f,0,0,172,378005,1328057
24,18,female,Belgian,3,94,guess,win,10,left,1,guess_outcome,0,undefined,0,0,192,376444,1329618
24,18,female,Belgian,3,94,ITC,win,10,left,1,ITC_start,342,space,0,0,192,376100,1329962
24,18,female,Belgian,3,94,ITC,win,10,left,1,ITC_choice,835,f,0,0,192,375262,1330800
24,18,female,Belgian,3,94,ITC,win,10,left,1,ITC_wait,0,undefined,0,0,192,365254,1340808
24,18,female,Belgian,3,94,ITC,win,10,left,1,ITC_collect,476,k,0,0,192,364777,1341285
24,18,female,Belgian,3,94,ITC,win,10,left,1,ITC_outcome,0,undefined,0,0,212,363766,1342296
24,18,female,Belgian,3,95,guess,neutral,5,left,13,guess_start,57,space,0,0,212,363706,1342356
24,18,female,Belgian,3,95,guess,neutral,5,left,13,guess_choice,846,j,0,0,212,362855,1343207
24,18,female,Belgian,3,95,guess,neutral,5,left,13,guess_outcome,0,undefined,0,0,212,361295,1344767
24,18,female,Belgian,3,95,ITC,neutral,5,left,13,ITC_start,639,space,0,0,212,360654,1345408
24,18,female,Belgian,3,95,ITC,neutral,5,left,13,ITC_wait,0,undefined,0,0,212,359921,1346141
24,18,female,Belgian,3,95,ITC,neutral,5,left,13,ITC_choice,727,j,0,0,212,359925,1346137
24,18,female,Belgian,3,95,ITC,neutral,5,left,13,ITC_collect,403,k,0,0,212,359517,1346545
24,18,female,Belgian,3,95,ITC,neutral,5,left,13,ITC_outcome,0,undefined,0,0,225,358510,1347552
24,18,female,Belgian,3,96,guess,loss,5,right,13,guess_start,286,space,0,0,225,358220,1347842
24,18,female,Belgian,3,96,guess,loss,5,right,13,guess_choice,464,f,0,0,225,357751,1348311
24,18,female,Belgian,3,96,guess,loss,5,right,13,guess_outcome,0,undefined,0,0,210,356191,1349871
24,18,female,Belgian,3,96,ITC,loss,5,right,13,ITC_start,328,space,0,0,210,355860,1350202
24,18,female,Belgian,3,96,ITC,loss,5,right,13,ITC_choice,779,j,0,0,210,355078,1350984
24,18,female,Belgian,3,96,ITC,loss,5,right,13,ITC_wait,0,undefined,0,0,210,350071,1355991
24,18,female,Belgian,3,96,ITC,loss,5,right,13,ITC_collect,472,k,0,0,210,349596,1356466
24,18,female,Belgian,3,96,ITC,loss,5,right,13,ITC_outcome,0,undefined,0,0,230,348590,1357472
24,18,female,Belgian,3,97,guess,win,5,left,14,guess_start,241,space,0,0,230,348345,1357717
24,18,female,Belgian,3,97,guess,win,5,left,14,guess_choice,386,f,0,0,230,347955,1358107
24,18,female,Belgian,3,97,guess,win,5,left,14,guess_outcome,0,undefined,0,0,250,346395,1359667
24,18,female,Belgian,3,97,ITC,win,5,left,14,ITC_start,387,space,0,0,250,346006,1360056
24,18,female,Belgian,3,97,ITC,win,5,left,14,ITC_choice,649,j,0,0,250,345354,1360708
24,18,female,Belgian,3,97,ITC,win,5,left,14,ITC_wait,0,undefined,0,0,250,345350,1360712
24,18,female,Belgian,3,97,ITC,win,5,left,14,ITC_collect,362,k,0,0,250,344987,1361075
24,18,female,Belgian,3,97,ITC,win,5,left,14,ITC_outcome,0,undefined,0,0,264,343976,1362086
24,18,female,Belgian,3,98,guess,neutral,10,left,6,guess_start,326,space,0,0,264,343648,1362414
24,18,female,Belgian,3,98,guess,neutral,10,left,6,guess_choice,362,j,0,0,264,343280,1362782
24,18,female,Belgian,3,98,guess,neutral,10,left,6,guess_outcome,0,undefined,0,0,264,341720,1364342
24,18,female,Belgian,3,98,ITC,neutral,10,left,6,ITC_start,250,space,0,0,264,341467,1364595
24,18,female,Belgian,3,98,ITC,neutral,10,left,6,ITC_wait,0,undefined,0,0,264,340525,1365537
24,18,female,Belgian,3,98,ITC,neutral,10,left,6,ITC_choice,937,j,0,0,264,340528,1365534
24,18,female,Belgian,3,98,ITC,neutral,10,left,6,ITC_collect,677,k,0,0,264,339846,1366216
24,18,female,Belgian,3,98,ITC,neutral,10,left,6,ITC_outcome,0,undefined,0,0,270,338837,1367225
24,18,female,Belgian,3,99,guess,loss,5,left,14,guess_start,97,space,0,0,270,338736,1367326
24,18,female,Belgian,3,99,guess,loss,5,left,14,guess_choice,451,j,0,0,270,338280,1367782
24,18,female,Belgian,3,99,guess,loss,5,left,14,guess_outcome,0,undefined,0,0,255,336721,1369341
24,18,female,Belgian,3,99,ITC,loss,5,left,14,ITC_start,265,space,0,0,255,336453,1369609
24,18,female,Belgian,3,99,ITC,loss,5,left,14,ITC_choice,357,j,0,0,255,336094,1369968
24,18,female,Belgian,3,99,ITC,loss,5,left,14,ITC_wait,0,undefined,0,0,255,336090,1369972
24,18,female,Belgian,3,99,ITC,loss,5,left,14,ITC_collect,458,k,0,0,255,335631,1370431
24,18,female,Belgian,3,99,ITC,loss,5,left,14,ITC_outcome,0,undefined,0,0,269,334620,1371442
24,18,female,Belgian,3,100,guess,win,10,left,5,guess_start,186,space,0,0,269,334430,1371632
24,18,female,Belgian,3,100,guess,win,10,left,5,guess_choice,397,j,0,0,269,334028,1372034
24,18,female,Belgian,3,100,guess,win,10,left,5,guess_outcome,0,undefined,0,0,289,332472,1373590
24,18,female,Belgian,3,100,ITC,win,10,left,5,ITC_start,55,space,0,0,289,332415,1373647
24,18,female,Belgian,3,100,ITC,win,10,left,5,ITC_wait,0,undefined,0,0,289,331292,1374770
24,18,female,Belgian,3,100,ITC,win,10,left,5,ITC_choice,1117,j,0,0,289,331296,1374766
24,18,female,Belgian,3,100,ITC,win,10,left,5,ITC_collect,557,k,0,0,289,330733,1375329
24,18,female,Belgian,3,100,ITC,win,10,left,5,ITC_outcome,0,undefined,0,0,294,329723,1376339
24,18,female,Belgian,3,101,guess,neutral,10,right,2,guess_start,238,space,0,0,294,329482,1376580
24,18,female,Belgian,3,101,guess,neutral,10,right,2,guess_choice,578,f,0,0,294,328898,1377164
24,18,female,Belgian,3,101,guess,neutral,10,right,2,guess_outcome,0,undefined,0,0,294,327343,1378719
24,18,female,Belgian,3,101,ITC,neutral,10,right,2,ITC_start,275,space,0,0,294,327065,1378997
24,18,female,Belgian,3,101,ITC,neutral,10,right,2,ITC_choice,588,j,0,0,294,326475,1379587
24,18,female,Belgian,3,101,ITC,neutral,10,right,2,ITC_wait,0,undefined,0,0,294,316467,1389595
24,18,female,Belgian,3,101,ITC,neutral,10,right,2,ITC_collect,381,k,0,0,294,316083,1389979
24,18,female,Belgian,3,101,ITC,neutral,10,right,2,ITC_outcome,0,undefined,0,0,314,315076,1390986
24,18,female,Belgian,3,102,guess,neutral,10,left,3,guess_start,27,space,0,0,314,315046,1391016
24,18,female,Belgian,3,102,guess,neutral,10,left,3,guess_choice,735,f,0,0,314,314307,1391755
24,18,female,Belgian,3,102,guess,neutral,10,left,3,guess_outcome,0,undefined,0,0,314,312750,1393312
24,18,female,Belgian,3,102,ITC,neutral,10,left,3,ITC_start,128,space,0,0,314,312619,1393443
24,18,female,Belgian,3,102,ITC,neutral,10,left,3,ITC_choice,518,j,0,0,314,312100,1393962
24,18,female,Belgian,3,102,ITC,neutral,10,left,3,ITC_wait,0,undefined,0,0,314,312096,1393966
24,18,female,Belgian,3,102,ITC,neutral,10,left,3,ITC_collect,466,k,0,0,314,311628,1394434
24,18,female,Belgian,3,102,ITC,neutral,10,left,3,ITC_outcome,0,undefined,0,0,317,310617,1395445
24,18,female,Belgian,3,103,guess,win,10,left,2,guess_start,102,space,0,0,317,310512,1395550
24,18,female,Belgian,3,103,guess,win,10,left,2,guess_choice,378,j,0,0,317,310129,1395933
24,18,female,Belgian,3,103,guess,win,10,left,2,guess_outcome,0,undefined,0,0,337,308571,1397491
24,18,female,Belgian,3,103,ITC,win,10,left,2,ITC_start,232,space,0,0,337,308338,1397724
24,18,female,Belgian,3,103,ITC,win,10,left,2,ITC_choice,626,j,0,0,337,307709,1398353
24,18,female,Belgian,3,103,ITC,win,10,left,2,ITC_wait,0,undefined,0,0,337,307708,1398354
24,18,female,Belgian,3,103,ITC,win,10,left,2,ITC_collect,329,k,0,0,337,307377,1398685
24,18,female,Belgian,3,103,ITC,win,10,left,2,ITC_outcome,0,undefined,0,0,339,306367,1399695
24,18,female,Belgian,3,104,guess,neutral,5,left,1,guess_start,62,space,0,0,339,306301,1399761
24,18,female,Belgian,3,104,guess,neutral,5,left,1,guess_choice,271,j,0,0,339,306025,1400037
24,18,female,Belgian,3,104,guess,neutral,5,left,1,guess_outcome,0,undefined,0,0,339,304464,1401598
24,18,female,Belgian,3,104,ITC,neutral,5,left,1,ITC_start,49,space,0,0,339,304413,1401649
24,18,female,Belgian,3,104,ITC,neutral,5,left,1,ITC_choice,1049,f,0,0,339,303362,1402700
24,18,female,Belgian,3,104,ITC,neutral,5,left,1,ITC_wait,0,undefined,0,0,339,298355,1407707
24,18,female,Belgian,3,104,ITC,neutral,5,left,1,ITC_collect,310,k,0,0,339,298041,1408021
24,18,female,Belgian,3,104,ITC,neutral,5,left,1,ITC_outcome,0,undefined,0,0,359,297032,1409030
24,18,female,Belgian,3,105,guess,loss,5,left,5,guess_choice,588,j,0,0,359,296407,1409655
24,18,female,Belgian,3,105,guess,loss,5,left,5,guess_outcome,0,undefined,0,0,344,294846,1411216
24,18,female,Belgian,3,105,ITC,loss,5,left,5,ITC_start,474,space,0,0,344,294369,1411693
24,18,female,Belgian,3,105,ITC,loss,5,left,5,ITC_choice,880,f,0,0,344,293487,1412575
24,18,female,Belgian,3,105,ITC,loss,5,left,5,ITC_wait,0,undefined,0,0,344,288484,1417578
24,18,female,Belgian,3,105,ITC,loss,5,left,5,ITC_collect,845,k,0,0,344,287636,1418426
24,18,female,Belgian,3,105,guess,loss,5,left,5,guess_start,30,space,0,0,359,296999,1409063
24,18,female,Belgian,3,105,ITC,loss,5,left,5,ITC_outcome,0,undefined,0,0,364,286627,1419435
24,18,female,Belgian,3,106,guess,neutral,5,left,3,guess_start,61,space,0,0,364,286563,1419499
24,18,female,Belgian,3,106,guess,neutral,5,left,3,guess_choice,512,j,0,0,364,286046,1420016
24,18,female,Belgian,3,106,guess,neutral,5,left,3,guess_outcome,0,undefined,0,0,364,284486,1421576
24,18,female,Belgian,3,106,ITC,neutral,5,left,3,ITC_start,1211,space,0,0,364,283272,1422790
24,18,female,Belgian,3,106,ITC,neutral,5,left,3,ITC_choice,1074,f,0,0,364,282196,1423866
24,18,female,Belgian,3,106,ITC,neutral,5,left,3,ITC_wait,0,undefined,0,0,364,277189,1428873
24,18,female,Belgian,3,106,ITC,neutral,5,left,3,ITC_collect,333,k,0,0,364,276853,1429209
24,18,female,Belgian,3,106,ITC,neutral,5,left,3,ITC_outcome,0,undefined,0,0,384,275844,1430218
24,18,female,Belgian,3,107,guess,neutral,5,left,16,guess_start,164,space,0,0,384,275676,1430386
24,18,female,Belgian,3,107,guess,neutral,5,left,16,guess_choice,943,j,0,0,384,274728,1431334
24,18,female,Belgian,3,107,guess,neutral,5,left,16,guess_outcome,0,undefined,0,0,384,273168,1432894
24,18,female,Belgian,3,107,ITC,neutral,5,left,16,ITC_start,686,space,0,0,384,272480,1433582
24,18,female,Belgian,3,107,ITC,neutral,5,left,16,ITC_choice,915,j,0,0,384,271564,1434498
24,18,female,Belgian,3,107,ITC,neutral,5,left,16,ITC_wait,0,undefined,0,0,384,271560,1434502
24,18,female,Belgian,3,107,ITC,neutral,5,left,16,ITC_collect,565,k,0,0,384,270993,1435069
24,18,female,Belgian,3,107,ITC,neutral,5,left,16,ITC_outcome,0,undefined,0,0,400,269988,1436074
24,18,female,Belgian,3,108,guess,neutral,5,left,6,guess_start,198,space,0,0,400,269787,1436275
24,18,female,Belgian,3,108,guess,neutral,5,left,6,guess_choice,817,j,0,0,400,268964,1437098
24,18,female,Belgian,3,108,guess,neutral,5,left,6,guess_outcome,0,undefined,0,0,400,267404,1438658
24,18,female,Belgian,3,108,ITC,neutral,5,left,6,ITC_start,501,space,0,0,400,266900,1439162
24,18,female,Belgian,3,108,ITC,neutral,5,left,6,ITC_choice,929,f,0,0,400,265968,1440094
24,18,female,Belgian,3,108,ITC,neutral,5,left,6,ITC_wait,0,undefined,0,0,400,260960,1445102
24,18,female,Belgian,3,108,ITC,neutral,5,left,6,ITC_collect,944,k,0,0,400,260014,1446048
24,18,female,Belgian,3,108,ITC,neutral,5,left,6,ITC_outcome,0,undefined,0,0,420,259005,1447057
24,18,female,Belgian,3,109,guess,win,5,left,6,guess_start,237,space,0,0,420,258765,1447297
24,18,female,Belgian,3,109,guess,win,5,left,6,guess_choice,307,f,0,0,420,258453,1447609
24,18,female,Belgian,3,109,guess,win,5,left,6,guess_outcome,0,undefined,0,0,440,256893,1449169
24,18,female,Belgian,3,109,ITC,win,5,left,6,ITC_start,697,space,0,0,440,256193,1449869
24,18,female,Belgian,3,109,ITC,win,5,left,6,ITC_choice,353,j,0,0,440,255837,1450225
24,18,female,Belgian,3,109,ITC,win,5,left,6,ITC_wait,0,undefined,0,0,440,255833,1450229
24,18,female,Belgian,3,109,ITC,win,5,left,6,ITC_collect,495,k,0,0,440,255338,1450724
24,18,female,Belgian,3,109,ITC,win,5,left,6,ITC_outcome,0,undefined,0,0,446,254328,1451734
24,18,female,Belgian,3,110,guess,loss,5,right,8,guess_start,271,space,0,0,446,254054,1452008
24,18,female,Belgian,3,110,guess,loss,5,right,8,guess_choice,266,j,0,0,446,253784,1452278
24,18,female,Belgian,3,110,guess,loss,5,right,8,guess_outcome,0,undefined,0,0,431,252224,1453838
24,18,female,Belgian,3,110,ITC,loss,5,right,8,ITC_start,118,space,0,0,431,252102,1453960
24,18,female,Belgian,3,110,ITC,loss,5,right,8,ITC_choice,714,f,0,0,431,251386,1454676
24,18,female,Belgian,3,110,ITC,loss,5,right,8,ITC_wait,0,undefined,0,0,431,251382,1454680
24,18,female,Belgian,3,110,ITC,loss,5,right,8,ITC_collect,1395,k,0,0,431,249986,1456076
24,18,female,Belgian,3,110,ITC,loss,5,right,8,ITC_outcome,0,undefined,0,0,439,248977,1457085
24,18,female,Belgian,3,111,guess,win,10,right,7,guess_start,341,space,0,0,439,248633,1457429
24,18,female,Belgian,3,111,guess,win,10,right,7,guess_choice,564,j,0,0,439,248062,1458000
24,18,female,Belgian,3,111,guess,win,10,right,7,guess_outcome,0,undefined,0,0,459,246502,1459560
24,18,female,Belgian,3,111,ITC,win,10,right,7,ITC_start,495,space,0,0,459,246003,1460059
24,18,female,Belgian,3,111,ITC,win,10,right,7,ITC_choice,1212,f,0,0,459,244790,1461272
24,18,female,Belgian,3,111,ITC,win,10,right,7,ITC_wait,0,undefined,0,0,459,244786,1461276
24,18,female,Belgian,3,111,ITC,win,10,right,7,ITC_collect,555,k,0,0,459,244229,1461833
24,18,female,Belgian,3,111,ITC,win,10,right,7,ITC_outcome,0,undefined,0,0,466,243219,1462843
24,18,female,Belgian,3,112,guess,neutral,5,right,5,guess_start,337,space,0,0,466,242879,1463183
24,18,female,Belgian,3,112,guess,neutral,5,right,5,guess_choice,652,f,0,0,466,242221,1463841
24,18,female,Belgian,3,112,guess,neutral,5,right,5,guess_outcome,0,undefined,0,0,466,240665,1465397
24,18,female,Belgian,3,112,ITC,neutral,5,right,5,ITC_start,47,space,0,0,466,240614,1465448
24,18,female,Belgian,3,112,ITC,neutral,5,right,5,ITC_choice,1591,j,0,0,466,239021,1467041
24,18,female,Belgian,3,112,ITC,neutral,5,right,5,ITC_wait,0,undefined,0,0,466,234013,1472049
24,18,female,Belgian,3,112,ITC,neutral,5,right,5,ITC_collect,316,k,0,0,466,233695,1472367
24,18,female,Belgian,3,112,ITC,neutral,5,right,5,ITC_outcome,0,undefined,0,0,486,232689,1473373
24,18,female,Belgian,3,113,guess,neutral,5,right,15,guess_start,96,space,0,0,486,232590,1473472
24,18,female,Belgian,3,113,guess,neutral,5,right,15,guess_choice,617,j,0,0,486,231968,1474094
24,18,female,Belgian,3,113,guess,neutral,5,right,15,guess_outcome,0,undefined,0,0,486,230409,1475653
24,18,female,Belgian,3,113,ITC,neutral,5,right,15,ITC_start,290,space,0,0,486,230116,1475946
24,18,female,Belgian,3,113,ITC,neutral,5,right,15,ITC_choice,714,f,0,0,486,229399,1476663
24,18,female,Belgian,3,113,ITC,neutral,5,right,15,ITC_wait,0,undefined,0,0,486,229395,1476667
24,18,female,Belgian,3,113,ITC,neutral,5,right,15,ITC_collect,647,k,0,0,486,228747,1477315
24,18,female,Belgian,3,113,ITC,neutral,5,right,15,ITC_outcome,0,undefined,0,0,501,227737,1478325
24,18,female,Belgian,3,114,guess,neutral,10,right,8,guess_start,153,space,0,0,501,227580,1478482
24,18,female,Belgian,3,114,guess,neutral,10,right,8,guess_choice,772,f,0,0,501,226803,1479259
24,18,female,Belgian,3,114,guess,neutral,10,right,8,guess_outcome,0,undefined,0,0,501,225242,1480820
24,18,female,Belgian,3,114,ITC,neutral,10,right,8,ITC_start,22,space,0,0,501,225217,1480845
24,18,female,Belgian,3,114,ITC,neutral,10,right,8,ITC_choice,1082,f,0,0,501,224134,1481928
24,18,female,Belgian,3,114,ITC,neutral,10,right,8,ITC_wait,0,undefined,0,0,501,224130,1481932
24,18,female,Belgian,3,114,ITC,neutral,10,right,8,ITC_collect,710,k,0,0,501,223419,1482643
24,18,female,Belgian,3,114,ITC,neutral,10,right,8,ITC_outcome,0,undefined,0,0,509,222410,1483652
24,18,female,Belgian,3,115,guess,win,5,left,10,guess_start,138,space,0,0,509,222269,1483793
24,18,female,Belgian,3,115,guess,win,5,left,10,guess_choice,827,j,0,0,509,221437,1484625
24,18,female,Belgian,3,115,guess,win,5,left,10,guess_outcome,0,undefined,0,0,529,219877,1486185
24,18,female,Belgian,3,115,ITC,win,5,left,10,ITC_start,86,space,0,0,529,219788,1486274
24,18,female,Belgian,3,115,ITC,win,5,left,10,ITC_choice,1227,j,0,0,529,218559,1487503
24,18,female,Belgian,3,115,ITC,win,5,left,10,ITC_wait,0,undefined,0,0,529,218556,1487506
24,18,female,Belgian,3,115,ITC,win,5,left,10,ITC_collect,384,k,0,0,529,218171,1487891
24,18,female,Belgian,3,115,ITC,win,5,left,10,ITC_outcome,0,undefined,0,0,539,217160,1488902
24,18,female,Belgian,3,116,guess,neutral,5,right,12,guess_start,320,space,0,0,539,216838,1489224
24,18,female,Belgian,3,116,guess,neutral,5,right,12,guess_choice,1148,j,0,0,539,215685,1490377
24,18,female,Belgian,3,116,guess,neutral,5,right,12,guess_outcome,0,undefined,0,0,539,214127,1491935
24,18,female,Belgian,3,116,ITC,neutral,5,right,12,ITC_start,624,space,0,0,539,213500,1492562
24,18,female,Belgian,3,116,ITC,neutral,5,right,12,ITC_choice,1652,f,0,0,539,211845,1494217
24,18,female,Belgian,3,116,ITC,neutral,5,right,12,ITC_wait,0,undefined,0,0,539,211842,1494220
24,18,female,Belgian,3,116,ITC,neutral,5,right,12,ITC_collect,390,k,0,0,539,211449,1494613
24,18,female,Belgian,3,116,ITC,neutral,5,right,12,ITC_outcome,0,undefined,0,0,551,210440,1495622
24,18,female,Belgian,3,117,guess,loss,5,right,7,guess_start,104,space,0,0,551,210333,1495729
24,18,female,Belgian,3,117,guess,loss,5,right,7,guess_choice,566,j,0,0,551,209762,1496300
24,18,female,Belgian,3,117,guess,loss,5,right,7,guess_outcome,0,undefined,0,0,536,208206,1497856
24,18,female,Belgian,3,117,ITC,loss,5,right,7,ITC_start,452,space,0,0,536,207750,1498312
24,18,female,Belgian,3,117,ITC,loss,5,right,7,ITC_choice,1095,j,0,0,536,206652,1499410
24,18,female,Belgian,3,117,ITC,loss,5,right,7,ITC_wait,0,undefined,0,0,536,201645,1504417
24,18,female,Belgian,3,117,ITC,loss,5,right,7,ITC_collect,331,k,0,0,536,201310,1504752
24,18,female,Belgian,3,117,ITC,loss,5,right,7,ITC_outcome,0,undefined,0,0,556,200301,1505761
24,18,female,Belgian,3,118,guess,win,5,right,2,guess_start,314,space,0,0,556,199984,1506078
24,18,female,Belgian,3,118,guess,win,5,right,2,guess_choice,424,f,0,0,556,199554,1506508
24,18,female,Belgian,3,118,guess,win,5,right,2,guess_outcome,0,undefined,0,0,576,197994,1508068
24,18,female,Belgian,3,118,ITC,win,5,right,2,ITC_start,413,space,0,0,576,197578,1508484
24,18,female,Belgian,3,118,ITC,win,5,right,2,ITC_choice,656,j,0,0,576,196919,1509143
24,18,female,Belgian,3,118,ITC,win,5,right,2,ITC_wait,0,undefined,0,0,576,191913,1514149
24,18,female,Belgian,3,118,ITC,win,5,right,2,ITC_collect,543,k,0,0,576,191365,1514697
24,18,female,Belgian,3,118,ITC,win,5,right,2,ITC_outcome,0,undefined,0,0,596,190355,1515707
24,18,female,Belgian,3,119,guess,loss,5,left,3,guess_start,73,space,0,0,596,190279,1515783
24,18,female,Belgian,3,119,guess,loss,5,left,3,guess_choice,274,f,0,0,596,190000,1516062
24,18,female,Belgian,3,119,guess,loss,5,left,3,guess_outcome,0,undefined,0,0,581,188441,1517621
24,18,female,Belgian,3,119,ITC,loss,5,left,3,ITC_start,455,space,0,0,581,187984,1518078
24,18,female,Belgian,3,119,ITC,loss,5,left,3,ITC_choice,585,j,0,0,581,187395,1518667
24,18,female,Belgian,3,119,ITC,loss,5,left,3,ITC_wait,0,undefined,0,0,581,187391,1518671
24,18,female,Belgian,3,119,ITC,loss,5,left,3,ITC_collect,319,k,0,0,581,187071,1518991
24,18,female,Belgian,3,119,ITC,loss,5,left,3,ITC_outcome,0,undefined,0,0,584,186062,1520000
24,18,female,Belgian,3,120,guess,loss,10,right,6,guess_start,64,space,0,0,584,185994,1520068
24,18,female,Belgian,3,120,guess,loss,10,right,6,guess_choice,391,j,0,0,584,185599,1520463
24,18,female,Belgian,3,120,guess,loss,10,right,6,guess_outcome,0,undefined,0,0,569,184039,1522023
24,18,female,Belgian,3,120,ITC,loss,10,right,6,ITC_start,753,space,0,0,569,183282,1522780
24,18,female,Belgian,3,120,ITC,loss,10,right,6,ITC_choice,820,f,0,0,569,182460,1523602
24,18,female,Belgian,3,120,ITC,loss,10,right,6,ITC_wait,0,undefined,0,0,569,182457,1523605
24,18,female,Belgian,3,120,ITC,loss,10,right,6,ITC_collect,1165,k,0,0,569,181290,1524772
24,18,female,Belgian,3,120,ITC,loss,10,right,6,ITC_outcome,0,undefined,0,0,575,180281,1525781
24,18,female,Belgian,3,121,guess,neutral,10,left,5,guess_start,122,space,0,0,575,180156,1525906
24,18,female,Belgian,3,121,guess,neutral,10,left,5,guess_choice,790,f,0,0,575,179361,1526701
24,18,female,Belgian,3,121,guess,neutral,10,left,5,guess_outcome,0,undefined,0,0,575,177800,1528262
24,18,female,Belgian,3,121,ITC,neutral,10,left,5,ITC_start,745,space,0,0,575,177052,1529010
24,18,female,Belgian,3,121,ITC,neutral,10,left,5,ITC_choice,372,j,0,0,575,176677,1529385
24,18,female,Belgian,3,121,ITC,neutral,10,left,5,ITC_wait,0,undefined,0,0,575,176673,1529389
24,18,female,Belgian,3,121,ITC,neutral,10,left,5,ITC_collect,46,k,0,0,575,176626,1529436
24,18,female,Belgian,3,121,ITC,neutral,10,left,5,ITC_outcome,0,undefined,0,0,580,175616,1530446
24,18,female,Belgian,3,122,guess,win,10,right,4,guess_start,38,space,0,0,580,175575,1530487
24,18,female,Belgian,3,122,guess,win,10,right,4,guess_choice,474,f,0,0,580,175096,1530966
24,18,female,Belgian,3,122,guess,win,10,right,4,guess_outcome,0,undefined,0,0,600,173536,1532526
24,18,female,Belgian,3,122,ITC,win,10,right,4,ITC_start,88,space,0,0,600,173445,1532617
24,18,female,Belgian,3,122,ITC,win,10,right,4,ITC_choice,333,j,0,0,600,173110,1532952
24,18,female,Belgian,3,122,ITC,win,10,right,4,ITC_wait,0,undefined,0,0,600,163107,1542955
24,18,female,Belgian,3,122,ITC,win,10,right,4,ITC_collect,87,k,0,0,600,163017,1543045
24,18,female,Belgian,3,122,ITC,win,10,right,4,ITC_outcome,0,undefined,0,0,620,162006,1544056
24,18,female,Belgian,3,123,guess,win,5,left,15,guess_start,137,space,0,0,620,161866,1544196
24,18,female,Belgian,3,123,guess,win,5,left,15,guess_choice,461,f,0,0,620,161398,1544664
24,18,female,Belgian,3,123,guess,win,5,left,15,guess_outcome,0,undefined,0,0,640,159841,1546221
24,18,female,Belgian,3,123,ITC,win,5,left,15,ITC_start,175,space,0,0,640,159662,1546400
24,18,female,Belgian,3,123,ITC,win,5,left,15,ITC_choice,501,j,0,0,640,159160,1546902
24,18,female,Belgian,3,123,ITC,win,5,left,15,ITC_wait,0,undefined,0,0,640,159156,1546906
24,18,female,Belgian,3,123,ITC,win,5,left,15,ITC_collect,641,k,0,0,640,158513,1547549
24,18,female,Belgian,3,123,ITC,win,5,left,15,ITC_outcome,0,undefined,0,0,655,157502,1548560
24,18,female,Belgian,3,124,guess,loss,5,right,9,guess_start,84,space,0,0,655,157415,1548647
24,18,female,Belgian,3,124,guess,loss,5,right,9,guess_choice,463,j,0,0,655,156947,1549115
24,18,female,Belgian,3,124,guess,loss,5,right,9,guess_outcome,0,undefined,0,0,640,155387,1550675
24,18,female,Belgian,3,124,ITC,loss,5,right,9,ITC_start,111,space,0,0,640,155274,1550788
24,18,female,Belgian,3,124,ITC,loss,5,right,9,ITC_choice,1640,j,0,0,640,153631,1552431
24,18,female,Belgian,3,124,ITC,loss,5,right,9,ITC_wait,0,undefined,0,0,640,148626,1557436
24,18,female,Belgian,3,124,ITC,loss,5,right,9,ITC_collect,120,k,0,0,640,148503,1557559
24,18,female,Belgian,3,124,ITC,loss,5,right,9,ITC_outcome,0,undefined,0,0,660,147494,1558568
24,18,female,Belgian,3,125,guess,neutral,5,left,8,guess_start,102,space,0,0,660,147389,1558673
24,18,female,Belgian,3,125,guess,neutral,5,left,8,guess_choice,592,j,0,0,660,146792,1559270
24,18,female,Belgian,3,125,guess,neutral,5,left,8,guess_outcome,0,undefined,0,0,660,145234,1560828
24,18,female,Belgian,3,125,ITC,neutral,5,left,8,ITC_start,130,space,0,0,660,145100,1560962
24,18,female,Belgian,3,125,ITC,neutral,5,left,8,ITC_choice,701,j,0,0,660,144395,1561667
24,18,female,Belgian,3,125,ITC,neutral,5,left,8,ITC_wait,0,undefined,0,0,660,144392,1561670
24,18,female,Belgian,3,125,ITC,neutral,5,left,8,ITC_collect,563,k,0,0,660,143828,1562234
24,18,female,Belgian,3,125,ITC,neutral,5,left,8,ITC_outcome,0,undefined,0,0,668,142819,1563243
24,18,female,Belgian,3,126,guess,neutral,5,left,10,guess_start,241,space,0,0,668,142575,1563487
24,18,female,Belgian,3,126,guess,neutral,5,left,10,guess_choice,605,f,0,0,668,141964,1564098
24,18,female,Belgian,3,126,guess,neutral,5,left,10,guess_outcome,0,undefined,0,0,668,140403,1565659
24,18,female,Belgian,3,126,ITC,neutral,5,left,10,ITC_start,88,space,0,0,668,140313,1565749
24,18,female,Belgian,3,126,ITC,neutral,5,left,10,ITC_choice,503,j,0,0,668,139808,1566254
24,18,female,Belgian,3,126,ITC,neutral,5,left,10,ITC_wait,0,undefined,0,0,668,139805,1566257
24,18,female,Belgian,3,126,ITC,neutral,5,left,10,ITC_collect,696,k,0,0,668,139109,1566953
24,18,female,Belgian,3,126,ITC,neutral,5,left,10,ITC_outcome,0,undefined,0,0,678,138098,1567964
24,18,female,Belgian,3,127,guess,loss,5,left,2,guess_start,112,space,0,0,678,137983,1568079
24,18,female,Belgian,3,127,guess,loss,5,left,2,guess_choice,613,f,0,0,678,137364,1568698
24,18,female,Belgian,3,127,guess,loss,5,left,2,guess_outcome,0,undefined,0,0,663,135803,1570259
24,18,female,Belgian,3,127,ITC,loss,5,left,2,ITC_start,422,space,0,0,663,135379,1570683
24,18,female,Belgian,3,127,ITC,loss,5,left,2,ITC_choice,894,f,0,0,663,134482,1571580
24,18,female,Belgian,3,127,ITC,loss,5,left,2,ITC_wait,0,undefined,0,0,663,129477,1576585
24,18,female,Belgian,3,127,ITC,loss,5,left,2,ITC_collect,145,k,0,0,663,129328,1576734
24,18,female,Belgian,3,127,ITC,loss,5,left,2,ITC_outcome,0,undefined,0,0,683,128319,1577743
24,18,female,Belgian,3,128,guess,loss,5,right,11,guess_start,374,space,0,0,683,127943,1578119
24,18,female,Belgian,3,128,guess,loss,5,right,11,guess_choice,500,j,0,0,683,127438,1578624
24,18,female,Belgian,3,128,guess,loss,5,right,11,guess_outcome,0,undefined,0,0,668,125882,1580180
24,18,female,Belgian,3,128,ITC,loss,5,right,11,ITC_start,461,space,0,0,668,125418,1580644
24,18,female,Belgian,3,128,ITC,loss,5,right,11,ITC_choice,950,f,0,0,668,124466,1581596
24,18,female,Belgian,3,128,ITC,loss,5,right,11,ITC_wait,0,undefined,0,0,668,124462,1581600
24,18,female,Belgian,3,128,ITC,loss,5,right,11,ITC_collect,414,k,0,0,668,124047,1582015
24,18,female,Belgian,3,128,ITC,loss,5,right,11,ITC_outcome,0,undefined,0,0,679,123037,1583025
24,18,female,Belgian,3,129,guess,win,5,right,12,guess_start,673,space,0,0,679,122360,1583702
24,18,female,Belgian,3,129,guess,win,5,right,12,guess_choice,215,j,0,0,679,122140,1583922
24,18,female,Belgian,3,129,guess,win,5,right,12,guess_outcome,0,undefined,0,0,699,120580,1585482
24,18,female,Belgian,3,129,ITC,win,5,right,12,ITC_start,272,space,0,0,699,120305,1585757
24,18,female,Belgian,3,129,ITC,win,5,right,12,ITC_choice,376,j,0,0,699,119927,1586135
24,18,female,Belgian,3,129,ITC,win,5,right,12,ITC_wait,0,undefined,0,0,699,114920,1591142
24,18,female,Belgian,3,129,ITC,win,5,right,12,ITC_collect,337,k,0,0,699,114579,1591483
24,18,female,Belgian,3,129,ITC,win,5,right,12,ITC_outcome,0,undefined,0,0,719,113572,1592490
24,18,female,Belgian,3,130,guess,neutral,10,left,7,guess_start,602,space,0,0,719,112967,1593095
24,18,female,Belgian,3,130,guess,neutral,10,left,7,guess_choice,564,f,0,0,719,112397,1593665
24,18,female,Belgian,3,130,guess,neutral,10,left,7,guess_outcome,0,undefined,0,0,719,110837,1595225
24,18,female,Belgian,3,130,ITC,neutral,10,left,7,ITC_start,600,space,0,0,719,110233,1595829
24,18,female,Belgian,3,130,ITC,neutral,10,left,7,ITC_choice,1082,f,0,0,719,109148,1596914
24,18,female,Belgian,3,130,ITC,neutral,10,left,7,ITC_wait,0,undefined,0,0,719,99144,1606918
24,18,female,Belgian,3,130,ITC,neutral,10,left,7,ITC_collect,364,k,0,0,719,98777,1607285
24,18,female,Belgian,3,130,ITC,neutral,10,left,7,ITC_outcome,0,undefined,0,0,739,97767,1608295
24,18,female,Belgian,3,131,guess,win,5,right,8,guess_start,195,space,0,0,739,97569,1608493
24,18,female,Belgian,3,131,guess,win,5,right,8,guess_choice,193,j,0,0,739,97370,1608692
24,18,female,Belgian,3,131,guess,win,5,right,8,guess_outcome,0,undefined,0,0,759,95809,1610253
24,18,female,Belgian,3,131,ITC,win,5,right,8,ITC_start,627,space,0,0,759,95181,1610881
24,18,female,Belgian,3,131,ITC,win,5,right,8,ITC_choice,858,f,0,0,759,94320,1611742
24,18,female,Belgian,3,131,ITC,win,5,right,8,ITC_wait,0,undefined,0,0,759,94316,1611746
24,18,female,Belgian,3,131,ITC,win,5,right,8,ITC_collect,362,k,0,0,759,93952,1612110
24,18,female,Belgian,3,131,ITC,win,5,right,8,ITC_outcome,0,undefined,0,0,767,92942,1613120
24,18,female,Belgian,3,132,guess,win,5,right,11,guess_start,153,space,0,0,767,92786,1613276
24,18,female,Belgian,3,132,guess,win,5,right,11,guess_choice,322,j,0,0,767,92459,1613603
24,18,female,Belgian,3,132,guess,win,5,right,11,guess_outcome,0,undefined,0,0,787,90899,1615163
24,18,female,Belgian,3,132,ITC,win,5,right,11,ITC_start,321,space,0,0,787,90576,1615486
24,18,female,Belgian,3,132,ITC,win,5,right,11,ITC_wait,0,undefined,0,0,787,89739,1616323
24,18,female,Belgian,3,132,ITC,win,5,right,11,ITC_choice,830,f,0,0,787,89743,1616319
24,18,female,Belgian,3,132,ITC,win,5,right,11,ITC_collect,331,k,0,0,787,89407,1616655
24,18,female,Belgian,3,132,ITC,win,5,right,11,ITC_outcome,0,undefined,0,0,798,88401,1617661
24,18,female,Belgian,3,133,guess,loss,5,right,6,guess_start,409,space,0,0,798,87989,1618073
24,18,female,Belgian,3,133,guess,loss,5,right,6,guess_choice,225,f,0,0,798,87757,1618305
24,18,female,Belgian,3,133,guess,loss,5,right,6,guess_outcome,0,undefined,0,0,783,86201,1619861
24,18,female,Belgian,3,133,ITC,loss,5,right,6,ITC_start,324,space,0,0,783,85873,1620189
24,18,female,Belgian,3,133,ITC,loss,5,right,6,ITC_choice,1422,j,0,0,783,84450,1621612
24,18,female,Belgian,3,133,ITC,loss,5,right,6,ITC_wait,0,undefined,0,0,783,79443,1626619
24,18,female,Belgian,3,133,ITC,loss,5,right,6,ITC_collect,417,k,0,0,783,79022,1627040
24,18,female,Belgian,3,133,ITC,loss,5,right,6,ITC_outcome,0,undefined,0,0,803,78017,1628045
24,18,female,Belgian,3,134,guess,neutral,5,left,4,guess_start,145,space,0,0,803,77867,1628195
24,18,female,Belgian,3,134,guess,neutral,5,left,4,guess_choice,263,f,0,0,803,77598,1628464
24,18,female,Belgian,3,134,guess,neutral,5,left,4,guess_outcome,0,undefined,0,0,803,76039,1630023
24,18,female,Belgian,3,134,ITC,neutral,5,left,4,ITC_start,279,space,0,0,803,75757,1630305
24,18,female,Belgian,3,134,ITC,neutral,5,left,4,ITC_choice,507,j,0,0,803,75246,1630816
24,18,female,Belgian,3,134,ITC,neutral,5,left,4,ITC_wait,0,undefined,0,0,803,75243,1630819
24,18,female,Belgian,3,134,ITC,neutral,5,left,4,ITC_collect,369,k,0,0,803,74873,1631189
24,18,female,Belgian,3,134,ITC,neutral,5,left,4,ITC_outcome,0,undefined,0,0,807,73867,1632195
24,18,female,Belgian,3,135,guess,win,5,right,7,guess_start,146,space,0,0,807,73719,1632343
24,18,female,Belgian,3,135,guess,win,5,right,7,guess_choice,192,f,0,0,807,73521,1632541
24,18,female,Belgian,3,135,guess,win,5,right,7,guess_outcome,0,undefined,0,0,827,71961,1634101
24,18,female,Belgian,3,135,ITC,win,5,right,7,ITC_start,89,space,0,0,827,71870,1634192
24,18,female,Belgian,3,135,ITC,win,5,right,7,ITC_wait,0,undefined,0,0,827,71313,1634749
24,18,female,Belgian,3,135,ITC,win,5,right,7,ITC_choice,550,f,0,0,827,71317,1634745
24,18,female,Belgian,3,135,ITC,win,5,right,7,ITC_collect,584,k,0,0,827,70726,1635336
24,18,female,Belgian,3,135,ITC,win,5,right,7,ITC_outcome,0,undefined,0,0,834,69717,1636345
24,18,female,Belgian,3,136,guess,neutral,5,right,14,guess_start,277,space,0,0,834,69437,1636625
24,18,female,Belgian,3,136,guess,neutral,5,right,14,guess_choice,244,f,0,0,834,69188,1636874
24,18,female,Belgian,3,136,guess,neutral,5,right,14,guess_outcome,0,undefined,0,0,834,67631,1638431
24,18,female,Belgian,3,136,ITC,neutral,5,right,14,ITC_start,170,space,0,0,834,67459,1638603
24,18,female,Belgian,3,136,ITC,neutral,5,right,14,ITC_wait,0,undefined,0,0,834,66721,1639341
24,18,female,Belgian,3,136,ITC,neutral,5,right,14,ITC_choice,731,f,0,0,834,66725,1639337
24,18,female,Belgian,3,136,ITC,neutral,5,right,14,ITC_collect,18,k,0,0,834,66702,1639360
24,18,female,Belgian,3,136,ITC,neutral,5,right,14,ITC_outcome,0,undefined,0,0,848,65694,1640368
24,18,female,Belgian,3,137,guess,win,5,left,3,guess_start,393,space,0,0,848,65298,1640764
24,18,female,Belgian,3,137,guess,win,5,left,3,guess_choice,424,f,0,0,848,64868,1641194
24,18,female,Belgian,3,137,guess,win,5,left,3,guess_outcome,0,undefined,0,0,868,63309,1642753
24,18,female,Belgian,3,137,ITC,win,5,left,3,ITC_start,992,space,0,0,868,62314,1643748
24,18,female,Belgian,3,137,ITC,win,5,left,3,ITC_choice,512,f,0,0,868,61800,1644262
24,18,female,Belgian,3,137,ITC,win,5,left,3,ITC_wait,0,undefined,0,0,868,56792,1649270
24,18,female,Belgian,3,137,ITC,win,5,left,3,ITC_collect,332,k,0,0,868,56457,1649605
24,18,female,Belgian,3,137,ITC,win,5,left,3,ITC_outcome,0,undefined,0,0,888,55451,1650611
24,18,female,Belgian,3,138,guess,loss,10,right,2,guess_start,149,space,0,0,888,55299,1650763
24,18,female,Belgian,3,138,guess,loss,10,right,2,guess_choice,208,f,0,0,888,55085,1650977
24,18,female,Belgian,3,138,guess,loss,10,right,2,guess_outcome,0,undefined,0,0,873,53525,1652537
24,18,female,Belgian,3,138,ITC,loss,10,right,2,ITC_start,637,space,0,0,873,52885,1653177
24,18,female,Belgian,3,138,ITC,loss,10,right,2,ITC_choice,693,f,0,0,873,52188,1653874
24,18,female,Belgian,3,138,ITC,loss,10,right,2,ITC_wait,0,undefined,0,0,873,52185,1653877
24,18,female,Belgian,3,138,ITC,loss,10,right,2,ITC_collect,1311,k,0,0,873,50872,1655190
24,18,female,Belgian,3,138,ITC,loss,10,right,2,ITC_outcome,0,undefined,0,0,875,49862,1656200
24,18,female,Belgian,3,139,guess,loss,5,right,16,guess_start,424,space,0,0,875,49436,1656626
24,18,female,Belgian,3,139,guess,loss,5,right,16,guess_choice,306,j,0,0,875,49125,1656937
24,18,female,Belgian,3,139,guess,loss,5,right,16,guess_outcome,0,undefined,0,0,860,47567,1658495
24,18,female,Belgian,3,139,ITC,loss,5,right,16,ITC_start,238,space,0,0,860,47327,1658735
24,18,female,Belgian,3,139,ITC,loss,5,right,16,ITC_choice,776,j,0,0,860,46548,1659514
24,18,female,Belgian,3,139,ITC,loss,5,right,16,ITC_wait,0,undefined,0,0,860,41541,1664521
24,18,female,Belgian,3,139,ITC,loss,5,right,16,ITC_collect,358,k,0,0,860,41181,1664881
24,18,female,Belgian,3,139,ITC,loss,5,right,16,ITC_outcome,0,undefined,0,0,880,40171,1665891
24,18,female,Belgian,3,140,guess,loss,10,right,8,guess_start,2,space,0,0,880,40168,1665894
24,18,female,Belgian,3,140,guess,loss,10,right,8,guess_choice,543,j,0,0,880,39619,1666443
24,18,female,Belgian,3,140,guess,loss,10,right,8,guess_outcome,0,undefined,0,0,865,38058,1668004
24,18,female,Belgian,3,140,ITC,loss,10,right,8,ITC_start,422,space,0,0,865,37633,1668429
