subjectID,age,gender,nationality,block_number,trial_number,trial_type,guess_outcome,delay_time,delay_pos,immediate_amount,stage,respRT,respKey,blur_count,focus_count,total_points,remaining_duration,time_elapsed
15,19,female,Belgian,1,1,guess,win,5,left,3,guess_start,1919,space,0,0,0,478078,216447
15,19,female,Belgian,1,1,guess,win,5,left,3,guess_choice,1386,j,0,0,0,476687,217838
15,19,female,Belgian,1,1,guess,win,5,left,3,guess_outcome,0,undefined,0,0,20,475130,219395
15,19,female,Belgian,1,1,ITC,win,5,left,3,ITC_start,3032,space,0,0,20,472095,222430
15,19,female,Belgian,1,1,ITC,win,5,left,3,ITC_choice,3374,f,0,0,20,468719,225806
15,19,female,Belgian,1,1,ITC,win,5,left,3,ITC_wait,0,undefined,0,0,20,463714,230811
15,19,female,Belgian,1,1,ITC,win,5,left,3,ITC_collect,1395,k,0,0,20,462316,232209
15,19,female,Belgian,1,1,ITC,win,5,left,3,ITC_outcome,0,undefined,0,0,40,461310,233215
15,19,female,Belgian,1,2,guess,loss,5,right,7,guess_start,1817,space,0,0,40,459489,235036
15,19,female,Belgian,1,2,guess,loss,5,right,7,guess_choice,1112,f,0,0,40,458372,236153
15,19,female,Belgian,1,2,guess,loss,5,right,7,guess_outcome,0,undefined,0,0,25,456812,237713
15,19,female,Belgian,1,2,ITC,loss,5,right,7,ITC_start,1128,space,0,0,25,455682,238843
15,19,female,Belgian,1,2,ITC,loss,5,right,7,ITC_choice,3840,j,0,0,25,451839,242686
15,19,female,Belgian,1,2,ITC,loss,5,right,7,ITC_wait,0,undefined,0,0,25,446832,247693
15,19,female,Belgian,1,2,ITC,loss,5,right,7,ITC_collect,912,k,0,0,25,445917,248608
15,19,female,Belgian,1,2,ITC,loss,5,right,7,ITC_outcome,0,undefined,0,0,45,444910,249615
15,19,female,Belgian,1,3,guess,loss,10,right,8,guess_start,3059,space,0,0,45,441847,252678
15,19,female,Belgian,1,3,guess,loss,10,right,8,guess_choice,1185,f,0,0,45,440657,253868
15,19,female,Belgian,1,3,guess,loss,10,right,8,guess_outcome,0,undefined,0,0,30,439099,255426
15,19,female,Belgian,1,3,ITC,loss,10,right,8,ITC_start,4281,space,0,0,30,434816,259709
15,19,female,Belgian,1,3,ITC,loss,10,right,8,ITC_choice,2271,j,0,0,30,432543,261982
15,19,female,Belgian,1,3,ITC,loss,10,right,8,ITC_wait,0,undefined,0,0,30,422536,271989
15,19,female,Belgian,1,3,ITC,loss,10,right,8,ITC_collect,1129,k,0,0,30,421405,273120
15,19,female,Belgian,1,3,ITC,loss,10,right,8,ITC_outcome,0,undefined,0,0,50,420401,274124
15,19,female,Belgian,1,4,guess,loss,10,left,7,guess_start,1094,space,0,0,50,419305,275220
15,19,female,Belgian,1,4,guess,loss,10,left,7,guess_choice,744,f,0,0,50,418556,275969
15,19,female,Belgian,1,4,guess,loss,10,left,7,guess_outcome,0,undefined,0,0,35,416997,277528
15,19,female,Belgian,1,4,ITC,loss,10,left,7,ITC_start,1405,space,0,0,35,415589,278936
15,19,female,Belgian,1,4,ITC,loss,10,left,7,ITC_choice,1754,f,0,0,35,413833,280692
15,19,female,Belgian,1,4,ITC,loss,10,left,7,ITC_wait,0,undefined,0,0,35,403826,290699
15,19,female,Belgian,1,4,ITC,loss,10,left,7,ITC_collect,1531,k,0,0,35,402292,292233
15,19,female,Belgian,1,4,ITC,loss,10,left,7,ITC_outcome,0,undefined,0,0,55,401286,293239
15,19,female,Belgian,1,5,guess,loss,5,left,16,guess_start,3044,space,0,0,55,398240,296285
15,19,female,Belgian,1,5,guess,loss,5,left,16,guess_choice,860,j,0,0,55,397377,297148
15,19,female,Belgian,1,5,guess,loss,5,left,16,guess_outcome,0,undefined,0,0,40,395824,298701
15,19,female,Belgian,1,5,ITC,loss,5,left,16,ITC_start,3015,space,0,0,40,392807,301718
15,19,female,Belgian,1,5,ITC,loss,5,left,16,ITC_choice,1443,f,0,0,40,391362,303163
15,19,female,Belgian,1,5,ITC,loss,5,left,16,ITC_wait,0,undefined,0,0,40,386357,308168
15,19,female,Belgian,1,5,ITC,loss,5,left,16,ITC_collect,1103,k,0,0,40,385251,309274
15,19,female,Belgian,1,5,ITC,loss,5,left,16,ITC_outcome,0,undefined,0,0,60,384249,310276
15,19,female,Belgian,1,6,guess,win,5,left,9,guess_start,1400,space,0,0,60,382847,311678
15,19,female,Belgian,1,6,guess,win,5,left,9,guess_choice,659,f,0,0,60,382185,312340
15,19,female,Belgian,1,6,guess,win,5,left,9,guess_outcome,0,undefined,0,0,80,380629,313896
15,19,female,Belgian,1,6,ITC,win,5,left,9,ITC_start,1507,space,0,0,80,379120,315405
15,19,female,Belgian,1,6,ITC,win,5,left,9,ITC_choice,1686,f,0,0,80,377432,317093
15,19,female,Belgian,1,6,ITC,win,5,left,9,ITC_wait,0,undefined,0,0,80,372425,322100
15,19,female,Belgian,1,6,ITC,win,5,left,9,ITC_collect,1568,k,0,0,80,370854,323671
15,19,female,Belgian,1,6,ITC,win,5,left,9,ITC_outcome,0,undefined,0,0,100,369848,324677
15,19,female,Belgian,1,7,guess,neutral,5,left,16,guess_start,2181,space,0,0,100,367665,326860
15,19,female,Belgian,1,7,guess,neutral,5,left,16,guess_choice,3392,j,0,0,100,364270,330255
15,19,female,Belgian,1,7,guess,neutral,5,left,16,guess_outcome,0,undefined,0,0,100,362716,331809
15,19,female,Belgian,1,7,ITC,neutral,5,left,16,ITC_start,1390,space,0,0,100,361324,333201
15,19,female,Belgian,1,7,ITC,neutral,5,left,16,ITC_choice,957,f,0,0,100,360366,334159
15,19,female,Belgian,1,7,ITC,neutral,5,left,16,ITC_wait,0,undefined,0,0,100,355359,339166
15,19,female,Belgian,1,7,ITC,neutral,5,left,16,ITC_collect,2379,k,0,0,100,352978,341547
15,19,female,Belgian,1,7,ITC,neutral,5,left,16,ITC_outcome,0,undefined,0,0,120,351973,342552
15,19,female,Belgian,1,8,guess,loss,5,right,4,guess_start,1300,space,0,0,120,350671,343854
15,19,female,Belgian,1,8,guess,loss,5,right,4,guess_choice,1152,f,0,0,120,349516,345009
15,19,female,Belgian,1,8,guess,loss,5,right,4,guess_outcome,0,undefined,0,0,105,347960,346565
15,19,female,Belgian,1,8,ITC,loss,5,right,4,ITC_start,887,space,0,0,105,347071,347454
15,19,female,Belgian,1,8,ITC,loss,5,right,4,ITC_choice,2352,j,0,0,105,344717,349808
15,19,female,Belgian,1,8,ITC,loss,5,right,4,ITC_wait,0,undefined,0,0,105,339710,354815
15,19,female,Belgian,1,8,ITC,loss,5,right,4,ITC_collect,695,k,0,0,105,339013,355512
15,19,female,Belgian,1,8,ITC,loss,5,right,4,ITC_outcome,0,undefined,0,0,125,338007,356518
15,19,female,Belgian,1,9,guess,win,5,right,13,guess_start,1046,space,0,0,125,336958,357567
15,19,female,Belgian,1,9,guess,win,5,right,13,guess_choice,1606,f,0,0,125,335349,359176
15,19,female,Belgian,1,9,guess,win,5,right,13,guess_outcome,0,undefined,0,0,145,333793,360732
15,19,female,Belgian,1,9,ITC,win,5,right,13,ITC_start,916,space,0,0,145,332876,361649
15,19,female,Belgian,1,9,ITC,win,5,right,13,ITC_choice,1849,j,0,0,145,331025,363500
15,19,female,Belgian,1,9,ITC,win,5,right,13,ITC_wait,0,undefined,0,0,145,326021,368504
15,19,female,Belgian,1,9,ITC,win,5,right,13,ITC_collect,352,k,0,0,145,325667,368858
15,19,female,Belgian,1,9,ITC,win,5,right,13,ITC_outcome,0,undefined,0,0,165,324662,369863
15,19,female,Belgian,1,10,guess,loss,5,left,9,guess_start,849,space,0,0,165,323810,370715
15,19,female,Belgian,1,10,guess,loss,5,left,9,guess_choice,1175,j,0,0,165,322631,371894
15,19,female,Belgian,1,10,guess,loss,5,left,9,guess_outcome,0,undefined,0,0,150,321075,373450
15,19,female,Belgian,1,10,ITC,loss,5,left,9,ITC_start,638,space,0,0,150,320435,374090
15,19,female,Belgian,1,10,ITC,loss,5,left,9,ITC_choice,942,f,0,0,150,319492,375033
15,19,female,Belgian,1,10,ITC,loss,5,left,9,ITC_wait,0,undefined,0,0,150,314485,380040
15,19,female,Belgian,1,10,ITC,loss,5,left,9,ITC_collect,1221,k,0,0,150,313262,381263
15,19,female,Belgian,1,10,ITC,loss,5,left,9,ITC_outcome,0,undefined,0,0,170,312255,382270
15,19,female,Belgian,1,11,guess,win,5,right,1,guess_start,918,space,0,0,170,311335,383190
15,19,female,Belgian,1,11,guess,win,5,right,1,guess_choice,1722,f,0,0,170,309610,384915
15,19,female,Belgian,1,11,guess,win,5,right,1,guess_outcome,0,undefined,0,0,190,308054,386471
15,19,female,Belgian,1,11,ITC,win,5,right,1,ITC_start,568,space,0,0,190,307484,387041
15,19,female,Belgian,1,11,ITC,win,5,right,1,ITC_choice,1562,j,0,0,190,305920,388605
15,19,female,Belgian,1,11,ITC,win,5,right,1,ITC_wait,0,undefined,0,0,190,300914,393611
15,19,female,Belgian,1,11,ITC,win,5,right,1,ITC_collect,1283,k,0,0,190,299628,394897
15,19,female,Belgian,1,11,ITC,win,5,right,1,ITC_outcome,0,undefined,0,0,210,298625,395900
15,19,female,Belgian,1,12,guess,neutral,10,left,8,guess_start,1048,space,0,0,210,297575,396950
15,19,female,Belgian,1,12,guess,neutral,10,left,8,guess_choice,4863,f,0,0,210,292709,401816
15,19,female,Belgian,1,12,guess,neutral,10,left,8,guess_outcome,0,undefined,0,0,210,291153,403372
15,19,female,Belgian,1,12,ITC,neutral,10,left,8,ITC_start,2992,space,0,0,210,288159,406366
15,19,female,Belgian,1,12,ITC,neutral,10,left,8,ITC_choice,1346,f,0,0,210,286811,407714
15,19,female,Belgian,1,12,ITC,neutral,10,left,8,ITC_wait,0,undefined,0,0,210,276809,417716
15,19,female,Belgian,1,12,ITC,neutral,10,left,8,ITC_collect,362,k,0,0,210,276445,418080
15,19,female,Belgian,1,12,ITC,neutral,10,left,8,ITC_outcome,0,undefined,0,0,230,275439,419086
15,19,female,Belgian,1,13,guess,loss,5,right,2,guess_start,912,space,0,0,230,274525,420000
15,19,female,Belgian,1,13,guess,loss,5,right,2,guess_choice,1328,j,0,0,230,273193,421332
15,19,female,Belgian,1,13,guess,loss,5,right,2,guess_outcome,0,undefined,0,0,215,271635,422890
15,19,female,Belgian,1,13,ITC,loss,5,right,2,ITC_start,1012,space,0,0,215,270621,423904
15,19,female,Belgian,1,13,ITC,loss,5,right,2,ITC_choice,1987,j,0,0,215,268632,425893
15,19,female,Belgian,1,13,ITC,loss,5,right,2,ITC_wait,0,undefined,0,0,215,263626,430899
15,19,female,Belgian,1,13,ITC,loss,5,right,2,ITC_collect,1327,k,0,0,215,262297,432228
15,19,female,Belgian,1,13,ITC,loss,5,right,2,ITC_outcome,0,undefined,0,0,235,261291,433234
15,19,female,Belgian,1,14,guess,neutral,10,right,2,guess_start,972,space,0,0,235,260317,434208
15,19,female,Belgian,1,14,guess,neutral,10,right,2,guess_choice,634,f,0,0,235,259680,434845
15,19,female,Belgian,1,14,guess,neutral,10,right,2,guess_outcome,0,undefined,0,0,235,258123,436402
15,19,female,Belgian,1,14,ITC,neutral,10,right,2,ITC_start,1663,space,0,0,235,256457,438068
15,19,female,Belgian,1,14,ITC,neutral,10,right,2,ITC_choice,1212,j,0,0,235,255244,439281
15,19,female,Belgian,1,14,ITC,neutral,10,right,2,ITC_wait,0,undefined,0,0,235,245240,449285
15,19,female,Belgian,1,14,ITC,neutral,10,right,2,ITC_collect,631,k,0,0,235,244606,449919
15,19,female,Belgian,1,14,ITC,neutral,10,right,2,ITC_outcome,0,undefined,0,0,255,243599,450926
15,19,female,Belgian,1,15,guess,loss,10,right,5,guess_start,854,space,0,0,255,242743,451782
15,19,female,Belgian,1,15,guess,loss,10,right,5,guess_choice,925,f,0,0,255,241814,452711
15,19,female,Belgian,1,15,guess,loss,10,right,5,guess_outcome,0,undefined,0,0,240,240260,454265
15,19,female,Belgian,1,15,ITC,loss,10,right,5,ITC_start,768,space,0,0,240,239489,455036
15,19,female,Belgian,1,15,ITC,loss,10,right,5,ITC_choice,1059,j,0,0,240,238429,456096
15,19,female,Belgian,1,15,ITC,loss,10,right,5,ITC_wait,0,undefined,0,0,240,228425,466100
15,19,female,Belgian,1,15,ITC,loss,10,right,5,ITC_collect,484,k,0,0,240,227939,466586
15,19,female,Belgian,1,15,ITC,loss,10,right,5,ITC_outcome,0,undefined,0,0,260,226933,467592
15,19,female,Belgian,1,16,guess,win,5,left,6,guess_start,786,space,0,0,260,226144,468381
15,19,female,Belgian,1,16,guess,win,5,left,6,guess_choice,1304,f,0,0,260,224837,469688
15,19,female,Belgian,1,16,guess,win,5,left,6,guess_outcome,0,undefined,0,0,280,223279,471246
15,19,female,Belgian,1,16,ITC,win,5,left,6,ITC_start,1242,space,0,0,280,222035,472490
15,19,female,Belgian,1,16,ITC,win,5,left,6,ITC_choice,1244,f,0,0,280,220789,473736
15,19,female,Belgian,1,16,ITC,win,5,left,6,ITC_wait,0,undefined,0,0,280,215787,478738
15,19,female,Belgian,1,16,ITC,win,5,left,6,ITC_collect,1282,k,0,0,280,214503,480022
15,19,female,Belgian,1,16,ITC,win,5,left,6,ITC_outcome,0,undefined,0,0,300,213497,481028
15,19,female,Belgian,1,17,guess,loss,5,left,8,guess_start,1148,space,0,0,300,212347,482178
15,19,female,Belgian,1,17,guess,loss,5,left,8,guess_choice,2719,j,0,0,300,209625,484900
15,19,female,Belgian,1,17,guess,loss,5,left,8,guess_outcome,0,undefined,0,0,285,208070,486455
15,19,female,Belgian,1,17,ITC,loss,5,left,8,ITC_start,559,space,0,0,285,207509,487016
15,19,female,Belgian,1,17,ITC,loss,5,left,8,ITC_choice,792,f,0,0,285,206715,487810
15,19,female,Belgian,1,17,ITC,loss,5,left,8,ITC_wait,0,undefined,0,0,285,201713,492812
15,19,female,Belgian,1,17,ITC,loss,5,left,8,ITC_collect,719,k,0,0,285,200991,493534
15,19,female,Belgian,1,17,ITC,loss,5,left,8,ITC_outcome,0,undefined,0,0,305,199984,494541
15,19,female,Belgian,1,18,guess,loss,10,left,1,guess_start,761,space,0,0,305,199221,495304
15,19,female,Belgian,1,18,guess,loss,10,left,1,guess_choice,925,f,0,0,305,198293,496232
15,19,female,Belgian,1,18,guess,loss,10,left,1,guess_outcome,0,undefined,0,0,290,196735,497790
15,19,female,Belgian,1,18,ITC,loss,10,left,1,ITC_start,1189,space,0,0,290,195544,498981
15,19,female,Belgian,1,18,ITC,loss,10,left,1,ITC_choice,785,f,0,0,290,194757,499768
15,19,female,Belgian,1,18,ITC,loss,10,left,1,ITC_wait,0,undefined,0,0,290,184750,509775
15,19,female,Belgian,1,18,ITC,loss,10,left,1,ITC_collect,1887,k,0,0,290,182861,511664
15,19,female,Belgian,1,18,ITC,loss,10,left,1,ITC_outcome,0,undefined,0,0,310,181858,512667
15,19,female,Belgian,1,19,guess,neutral,10,left,3,guess_start,2336,space,0,0,310,179520,515005
15,19,female,Belgian,1,19,guess,neutral,10,left,3,guess_choice,1209,j,0,0,310,178307,516218
15,19,female,Belgian,1,19,guess,neutral,10,left,3,guess_outcome,0,undefined,0,0,310,176749,517776
15,19,female,Belgian,1,19,ITC,neutral,10,left,3,ITC_start,612,space,0,0,310,176135,518390
15,19,female,Belgian,1,19,ITC,neutral,10,left,3,ITC_choice,1014,f,0,0,310,175119,519406
15,19,female,Belgian,1,19,ITC,neutral,10,left,3,ITC_wait,0,undefined,0,0,310,165113,529412
15,19,female,Belgian,1,19,ITC,neutral,10,left,3,ITC_collect,477,k,0,0,310,164633,529892
15,19,female,Belgian,1,19,ITC,neutral,10,left,3,ITC_outcome,0,undefined,0,0,330,163626,530899
15,19,female,Belgian,1,20,guess,loss,10,right,2,guess_start,951,space,0,0,330,162673,531852
15,19,female,Belgian,1,20,guess,loss,10,right,2,guess_choice,1061,j,0,0,330,161609,532916
15,19,female,Belgian,1,20,guess,loss,10,right,2,guess_outcome,0,undefined,0,0,315,160051,534474
15,19,female,Belgian,1,20,ITC,loss,10,right,2,ITC_start,687,space,0,0,315,159362,535163
15,19,female,Belgian,1,20,ITC,loss,10,right,2,ITC_choice,1753,j,0,0,315,157608,536917
15,19,female,Belgian,1,20,ITC,loss,10,right,2,ITC_wait,0,undefined,0,0,315,147605,546920
15,19,female,Belgian,1,20,ITC,loss,10,right,2,ITC_collect,3644,k,0,0,315,143958,550567
15,19,female,Belgian,1,20,ITC,loss,10,right,2,ITC_outcome,0,undefined,0,0,335,142954,551571
15,19,female,Belgian,1,21,guess,neutral,10,right,1,guess_start,2605,space,0,0,335,140345,554180
15,19,female,Belgian,1,21,guess,neutral,10,right,1,guess_choice,752,j,0,0,335,139590,554935
15,19,female,Belgian,1,21,guess,neutral,10,right,1,guess_outcome,0,undefined,0,0,335,138036,556489
15,19,female,Belgian,1,21,ITC,neutral,10,right,1,ITC_start,1374,space,0,0,335,136660,557865
15,19,female,Belgian,1,21,ITC,neutral,10,right,1,ITC_choice,1340,j,0,0,335,135319,559206
15,19,female,Belgian,1,21,ITC,neutral,10,right,1,ITC_wait,0,undefined,0,0,335,125312,569213
15,19,female,Belgian,1,21,ITC,neutral,10,right,1,ITC_collect,1032,k,0,0,335,124278,570247
15,19,female,Belgian,1,21,ITC,neutral,10,right,1,ITC_outcome,0,undefined,0,0,355,123274,571251
15,19,female,Belgian,1,22,guess,win,5,left,5,guess_start,1111,space,0,0,355,122161,572364
15,19,female,Belgian,1,22,guess,win,5,left,5,guess_choice,946,f,0,0,355,121212,573313
15,19,female,Belgian,1,22,guess,win,5,left,5,guess_outcome,0,undefined,0,0,375,119654,574871
15,19,female,Belgian,1,22,ITC,win,5,left,5,ITC_start,1160,space,0,0,375,118491,576034
15,19,female,Belgian,1,22,ITC,win,5,left,5,ITC_choice,1168,f,0,0,375,117321,577204
15,19,female,Belgian,1,22,ITC,win,5,left,5,ITC_wait,0,undefined,0,0,375,112315,582210
15,19,female,Belgian,1,22,ITC,win,5,left,5,ITC_collect,718,k,0,0,375,111596,582929
15,19,female,Belgian,1,22,ITC,win,5,left,5,ITC_outcome,0,undefined,0,0,395,110589,583936
15,19,female,Belgian,1,23,guess,win,5,right,15,guess_start,8804,space,0,0,395,101783,592742
15,19,female,Belgian,1,23,guess,win,5,right,15,guess_choice,1426,j,0,0,395,100355,594170
15,19,female,Belgian,1,23,guess,win,5,right,15,guess_outcome,0,undefined,0,0,415,98796,595729
15,19,female,Belgian,1,23,ITC,win,5,right,15,ITC_start,701,space,0,0,415,98093,596432
15,19,female,Belgian,1,23,ITC,win,5,right,15,ITC_choice,2657,f,0,0,415,95435,599090
15,19,female,Belgian,1,23,ITC,win,5,right,15,ITC_wait,0,undefined,0,0,415,95432,599093
15,19,female,Belgian,1,23,ITC,win,5,right,15,ITC_collect,1939,k,0,0,415,93490,601035
15,19,female,Belgian,1,23,ITC,win,5,right,15,ITC_outcome,0,undefined,0,0,430,92484,602041
15,19,female,Belgian,1,24,guess,loss,5,right,13,guess_start,1351,space,0,0,430,91131,603394
15,19,female,Belgian,1,24,guess,loss,5,right,13,guess_choice,1258,f,0,0,430,89870,604655
15,19,female,Belgian,1,24,guess,loss,5,right,13,guess_outcome,0,undefined,0,0,415,88315,606210
15,19,female,Belgian,1,24,ITC,loss,5,right,13,ITC_start,1011,space,0,0,415,87303,607222
15,19,female,Belgian,1,24,ITC,loss,5,right,13,ITC_choice,1150,j,0,0,415,86152,608373
15,19,female,Belgian,1,24,ITC,loss,5,right,13,ITC_wait,0,undefined,0,0,415,81150,613375
15,19,female,Belgian,1,24,ITC,loss,5,right,13,ITC_collect,1075,k,0,0,415,80072,614453
15,19,female,Belgian,1,24,ITC,loss,5,right,13,ITC_outcome,0,undefined,0,0,435,79066,615459
15,19,female,Belgian,1,25,guess,neutral,5,left,7,guess_start,1159,space,0,0,435,77904,616621
15,19,female,Belgian,1,25,guess,neutral,5,left,7,guess_choice,822,f,0,0,435,77080,617445
15,19,female,Belgian,1,25,guess,neutral,5,left,7,guess_outcome,0,undefined,0,0,435,75521,619004
15,19,female,Belgian,1,25,ITC,neutral,5,left,7,ITC_start,642,space,0,0,435,74878,619647
15,19,female,Belgian,1,25,ITC,neutral,5,left,7,ITC_choice,1351,f,0,0,435,73525,621000
15,19,female,Belgian,1,25,ITC,neutral,5,left,7,ITC_wait,0,undefined,0,0,435,68521,626004
15,19,female,Belgian,1,25,ITC,neutral,5,left,7,ITC_collect,688,k,0,0,435,67830,626695
15,19,female,Belgian,1,25,ITC,neutral,5,left,7,ITC_outcome,0,undefined,0,0,455,66825,627700
15,19,female,Belgian,1,26,guess,neutral,5,left,15,guess_start,1224,space,0,0,455,65598,628927
15,19,female,Belgian,1,26,guess,neutral,5,left,15,guess_choice,963,j,0,0,455,64631,629894
15,19,female,Belgian,1,26,guess,neutral,5,left,15,guess_outcome,0,undefined,0,0,455,63073,631452
15,19,female,Belgian,1,26,ITC,neutral,5,left,15,ITC_start,799,space,0,0,455,62272,632253
15,19,female,Belgian,1,26,ITC,neutral,5,left,15,ITC_choice,591,f,0,0,455,61679,632846
15,19,female,Belgian,1,26,ITC,neutral,5,left,15,ITC_wait,0,undefined,0,0,455,56677,637848
15,19,female,Belgian,1,26,ITC,neutral,5,left,15,ITC_collect,1049,k,0,0,455,55626,638899
15,19,female,Belgian,1,26,ITC,neutral,5,left,15,ITC_outcome,0,undefined,0,0,475,54622,639903
15,19,female,Belgian,1,27,guess,loss,5,right,10,guess_start,1280,space,0,0,475,53340,641185
15,19,female,Belgian,1,27,guess,loss,5,right,10,guess_choice,941,f,0,0,475,52396,642129
15,19,female,Belgian,1,27,guess,loss,5,right,10,guess_outcome,0,undefined,0,0,460,50838,643687
15,19,female,Belgian,1,27,ITC,loss,5,right,10,ITC_start,2648,space,0,0,460,48188,646337
15,19,female,Belgian,1,27,ITC,loss,5,right,10,ITC_choice,1769,j,0,0,460,46417,648108
15,19,female,Belgian,1,27,ITC,loss,5,right,10,ITC_wait,0,undefined,0,0,460,41415,653110
15,19,female,Belgian,1,27,ITC,loss,5,right,10,ITC_collect,994,k,0,0,460,40418,654107
15,19,female,Belgian,1,27,ITC,loss,5,right,10,ITC_outcome,0,undefined,0,0,480,39412,655113
15,19,female,Belgian,1,28,guess,neutral,5,left,11,guess_start,760,space,0,0,480,38649,655876
15,19,female,Belgian,1,28,guess,neutral,5,left,11,guess_choice,779,f,0,0,480,37867,656658
15,19,female,Belgian,1,28,guess,neutral,5,left,11,guess_outcome,0,undefined,0,0,480,36309,658216
15,19,female,Belgian,1,28,ITC,neutral,5,left,11,ITC_start,394,space,0,0,480,35913,658612
15,19,female,Belgian,1,28,ITC,neutral,5,left,11,ITC_choice,710,f,0,0,480,35201,659324
15,19,female,Belgian,1,28,ITC,neutral,5,left,11,ITC_wait,0,undefined,0,0,480,30195,664330
15,19,female,Belgian,1,28,ITC,neutral,5,left,11,ITC_collect,1036,k,0,0,480,29157,665368
15,19,female,Belgian,1,28,ITC,neutral,5,left,11,ITC_outcome,0,undefined,0,0,500,28150,666375
15,19,female,Belgian,1,29,guess,win,5,left,16,guess_start,1267,space,0,0,500,26881,667644
15,19,female,Belgian,1,29,guess,win,5,left,16,guess_choice,997,j,0,0,500,25881,668644
15,19,female,Belgian,1,29,guess,win,5,left,16,guess_outcome,0,undefined,0,0,520,24323,670202
15,19,female,Belgian,1,29,ITC,win,5,left,16,ITC_start,1206,space,0,0,520,23115,671410
15,19,female,Belgian,1,29,ITC,win,5,left,16,ITC_choice,881,f,0,0,520,22232,672293
15,19,female,Belgian,1,29,ITC,win,5,left,16,ITC_wait,0,undefined,0,0,520,17226,677299
15,19,female,Belgian,1,29,ITC,win,5,left,16,ITC_collect,470,k,0,0,520,16752,677773
15,19,female,Belgian,1,29,ITC,win,5,left,16,ITC_outcome,0,undefined,0,0,540,15746,678779
15,19,female,Belgian,1,30,guess,neutral,5,left,14,guess_start,803,space,0,0,540,14940,679585
15,19,female,Belgian,1,30,guess,neutral,5,left,14,guess_choice,756,j,0,0,540,14181,680344
15,19,female,Belgian,1,30,guess,neutral,5,left,14,guess_outcome,0,undefined,0,0,540,12623,681902
15,19,female,Belgian,1,30,ITC,neutral,5,left,14,ITC_start,523,space,0,0,540,12099,682426
15,19,female,Belgian,1,30,ITC,neutral,5,left,14,ITC_choice,732,f,0,0,540,11364,683161
15,19,female,Belgian,1,30,ITC,neutral,5,left,14,ITC_wait,0,undefined,0,0,540,6360,688165
15,19,female,Belgian,1,30,ITC,neutral,5,left,14,ITC_collect,963,k,0,0,540,5395,689130
15,19,female,Belgian,1,30,ITC,neutral,5,left,14,ITC_outcome,0,undefined,0,0,560,4389,690136
15,19,female,Belgian,1,31,guess,win,5,right,7,guess_start,3291,space,0,0,560,1097,693428
15,19,female,Belgian,1,31,guess,win,5,right,7,guess_choice,987,f,0,0,560,107,694418
15,19,female,Belgian,1,31,guess,win,5,right,7,guess_outcome,0,undefined,0,0,560,-4,694529
15,19,female,Belgian,2,32,guess,neutral,5,right,4,guess_start,1209,space,0,0,0,478789,704644
15,19,female,Belgian,2,32,guess,neutral,5,right,4,guess_choice,853,f,0,0,0,477934,705499
15,19,female,Belgian,2,32,guess,neutral,5,right,4,guess_outcome,0,undefined,0,0,0,476377,707056
15,19,female,Belgian,2,32,ITC,neutral,5,right,4,ITC_start,660,space,0,0,0,475716,707717
15,19,female,Belgian,2,32,ITC,neutral,5,right,4,ITC_choice,885,j,0,0,0,474829,708604
15,19,female,Belgian,2,32,ITC,neutral,5,right,4,ITC_wait,0,undefined,0,0,0,469822,713611
15,19,female,Belgian,2,32,ITC,neutral,5,right,4,ITC_collect,1501,k,0,0,0,468319,715114
15,19,female,Belgian,2,32,ITC,neutral,5,right,4,ITC_outcome,0,undefined,0,0,20,467315,716118
15,19,female,Belgian,2,33,guess,win,5,left,8,guess_start,973,space,0,0,20,466339,717094
15,19,female,Belgian,2,33,guess,win,5,left,8,guess_choice,924,j,0,0,20,465412,718021
15,19,female,Belgian,2,33,guess,win,5,left,8,guess_outcome,0,undefined,0,0,40,463856,719577
15,19,female,Belgian,2,33,ITC,win,5,left,8,ITC_start,941,space,0,0,40,462913,720520
15,19,female,Belgian,2,33,ITC,win,5,left,8,ITC_choice,1070,f,0,0,40,461841,721592
15,19,female,Belgian,2,33,ITC,win,5,left,8,ITC_wait,0,undefined,0,0,40,456838,726595
15,19,female,Belgian,2,33,ITC,win,5,left,8,ITC_collect,1274,k,0,0,40,455562,727871
15,19,female,Belgian,2,33,ITC,win,5,left,8,ITC_outcome,0,undefined,0,0,60,454556,728877
15,19,female,Belgian,2,34,guess,loss,10,right,3,guess_start,849,space,0,0,60,453704,729729
15,19,female,Belgian,2,34,guess,loss,10,right,3,guess_choice,809,f,0,0,60,452892,730541
15,19,female,Belgian,2,34,guess,loss,10,right,3,guess_outcome,0,undefined,0,0,45,451335,732098
15,19,female,Belgian,2,34,ITC,loss,10,right,3,ITC_start,652,space,0,0,45,450681,732752
15,19,female,Belgian,2,34,ITC,loss,10,right,3,ITC_choice,1604,j,0,0,45,449076,734357
15,19,female,Belgian,2,34,ITC,loss,10,right,3,ITC_wait,0,undefined,0,0,45,439068,744365
15,19,female,Belgian,2,34,ITC,loss,10,right,3,ITC_collect,2141,k,0,0,45,436925,746508
15,19,female,Belgian,2,34,ITC,loss,10,right,3,ITC_outcome,0,undefined,0,0,65,435919,747514
15,19,female,Belgian,2,35,guess,win,5,right,12,guess_start,758,space,0,0,65,435160,748273
15,19,female,Belgian,2,35,guess,win,5,right,12,guess_choice,1193,j,0,0,65,433964,749469
15,19,female,Belgian,2,35,guess,win,5,right,12,guess_outcome,0,undefined,0,0,85,432406,751027
15,19,female,Belgian,2,35,ITC,win,5,right,12,ITC_start,1067,space,0,0,85,431337,752096
15,19,female,Belgian,2,35,ITC,win,5,right,12,ITC_choice,1717,j,0,0,85,429619,753814
15,19,female,Belgian,2,35,ITC,win,5,right,12,ITC_wait,0,undefined,0,0,85,424616,758817
15,19,female,Belgian,2,35,ITC,win,5,right,12,ITC_collect,392,k,0,0,85,424221,759212
15,19,female,Belgian,2,35,ITC,win,5,right,12,ITC_outcome,0,undefined,0,0,105,423215,760218
15,19,female,Belgian,2,36,guess,loss,10,right,6,guess_start,706,space,0,0,105,422507,760926
15,19,female,Belgian,2,36,guess,loss,10,right,6,guess_choice,558,f,0,0,105,421945,761488
15,19,female,Belgian,2,36,guess,loss,10,right,6,guess_outcome,0,undefined,0,0,90,420389,763044
15,19,female,Belgian,2,36,ITC,loss,10,right,6,ITC_start,2205,space,0,0,90,418182,765251
15,19,female,Belgian,2,36,ITC,loss,10,right,6,ITC_choice,995,j,0,0,90,417185,766248
15,19,female,Belgian,2,36,ITC,loss,10,right,6,ITC_wait,0,undefined,0,0,90,407178,776255
15,19,female,Belgian,2,36,ITC,loss,10,right,6,ITC_collect,447,k,0,0,90,406729,776704
15,19,female,Belgian,2,36,ITC,loss,10,right,6,ITC_outcome,0,undefined,0,0,110,405722,777711
15,19,female,Belgian,2,37,guess,neutral,10,left,7,guess_start,1424,space,0,0,110,404296,779137
15,19,female,Belgian,2,37,guess,neutral,10,left,7,guess_choice,665,j,0,0,110,403628,779805
15,19,female,Belgian,2,37,guess,neutral,10,left,7,guess_outcome,0,undefined,0,0,110,402072,781361
15,19,female,Belgian,2,37,ITC,neutral,10,left,7,ITC_start,1148,space,0,0,110,400922,782511
15,19,female,Belgian,2,37,ITC,neutral,10,left,7,ITC_choice,1168,f,0,0,110,399752,783681
15,19,female,Belgian,2,37,ITC,neutral,10,left,7,ITC_wait,0,undefined,0,0,110,389745,793688
15,19,female,Belgian,2,38,guess,win,10,right,8,guess_start,1135,space,0,0,130,386125,797308
15,19,female,Belgian,2,37,ITC,neutral,10,left,7,ITC_outcome,0,undefined,0,0,130,387262,796171
15,19,female,Belgian,2,37,ITC,neutral,10,left,7,ITC_collect,1475,k,0,0,110,388268,795165
15,19,female,Belgian,2,38,guess,win,10,right,8,guess_choice,859,f,0,0,130,385262,798171
15,19,female,Belgian,2,38,guess,win,10,right,8,guess_outcome,0,undefined,0,0,150,383705,799728
15,19,female,Belgian,2,38,ITC,win,10,right,8,ITC_start,1186,space,0,0,150,382518,800915
15,19,female,Belgian,2,38,ITC,win,10,right,8,ITC_choice,1094,j,0,0,150,381422,802011
15,19,female,Belgian,2,38,ITC,win,10,right,8,ITC_wait,0,undefined,0,0,150,371418,812015
15,19,female,Belgian,2,38,ITC,win,10,right,8,ITC_collect,1819,k,0,0,150,369596,813837
15,19,female,Belgian,2,38,ITC,win,10,right,8,ITC_outcome,0,undefined,0,0,170,368589,814844
15,19,female,Belgian,2,39,guess,win,10,right,3,guess_start,1024,space,0,0,170,367563,815870
15,19,female,Belgian,2,39,guess,win,10,right,3,guess_choice,668,f,0,0,170,366892,816541
15,19,female,Belgian,2,39,guess,win,10,right,3,guess_outcome,0,undefined,0,0,190,365336,818097
15,19,female,Belgian,2,39,ITC,win,10,right,3,ITC_start,817,space,0,0,190,364517,818916
15,19,female,Belgian,2,39,ITC,win,10,right,3,ITC_choice,779,j,0,0,190,363736,819697
15,19,female,Belgian,2,39,ITC,win,10,right,3,ITC_wait,0,undefined,0,0,190,353729,829704
15,19,female,Belgian,2,39,ITC,win,10,right,3,ITC_collect,573,k,0,0,190,353153,830280
15,19,female,Belgian,2,39,ITC,win,10,right,3,ITC_outcome,0,undefined,0,0,210,352147,831286
15,19,female,Belgian,2,40,guess,loss,5,right,6,guess_start,497,space,0,0,210,351647,831786
15,19,female,Belgian,2,40,guess,loss,5,right,6,guess_choice,607,f,0,0,210,351037,832396
15,19,female,Belgian,2,40,guess,loss,5,right,6,guess_outcome,0,undefined,0,0,195,349482,833951
15,19,female,Belgian,2,40,ITC,loss,5,right,6,ITC_start,586,space,0,0,195,348893,834540
15,19,female,Belgian,2,40,ITC,loss,5,right,6,ITC_choice,1171,j,0,0,195,347720,835713
15,19,female,Belgian,2,40,ITC,loss,5,right,6,ITC_wait,0,undefined,0,0,195,342714,840719
15,19,female,Belgian,2,40,ITC,loss,5,right,6,ITC_collect,2003,k,0,0,195,340708,842725
15,19,female,Belgian,2,40,ITC,loss,5,right,6,ITC_outcome,0,undefined,0,0,215,339702,843731
15,19,female,Belgian,2,41,guess,neutral,5,right,9,guess_start,1064,space,0,0,215,338636,844797
15,19,female,Belgian,2,41,guess,neutral,5,right,9,guess_choice,800,f,0,0,215,337833,845600
15,19,female,Belgian,2,41,guess,neutral,5,right,9,guess_outcome,0,undefined,0,0,215,336275,847158
15,19,female,Belgian,2,41,ITC,neutral,5,right,9,ITC_start,1297,space,0,0,215,334976,848457
15,19,female,Belgian,2,41,ITC,neutral,5,right,9,ITC_choice,1116,j,0,0,215,333859,849574
15,19,female,Belgian,2,41,ITC,neutral,5,right,9,ITC_wait,0,undefined,0,0,215,328855,854578
15,19,female,Belgian,2,41,ITC,neutral,5,right,9,ITC_collect,898,k,0,0,215,327955,855478
15,19,female,Belgian,2,41,ITC,neutral,5,right,9,ITC_outcome,0,undefined,0,0,235,326948,856485
15,19,female,Belgian,2,42,guess,loss,5,right,1,guess_start,830,space,0,0,235,326115,857318
15,19,female,Belgian,2,42,guess,loss,5,right,1,guess_choice,868,j,0,0,235,325243,858190
15,19,female,Belgian,2,42,guess,loss,5,right,1,guess_outcome,0,undefined,0,0,220,323688,859745
15,19,female,Belgian,2,42,ITC,loss,5,right,1,ITC_start,1524,space,0,0,220,322161,861272
15,19,female,Belgian,2,42,ITC,loss,5,right,1,ITC_choice,1393,j,0,0,220,320767,862666
15,19,female,Belgian,2,42,ITC,loss,5,right,1,ITC_wait,0,undefined,0,0,220,315764,867669
15,19,female,Belgian,2,42,ITC,loss,5,right,1,ITC_collect,1189,k,0,0,220,314573,868860
15,19,female,Belgian,2,42,ITC,loss,5,right,1,ITC_outcome,0,undefined,0,0,240,313569,869864
15,19,female,Belgian,2,43,guess,win,5,right,4,guess_start,878,space,0,0,240,312688,870745
15,19,female,Belgian,2,43,guess,win,5,right,4,guess_choice,812,f,0,0,240,311873,871560
15,19,female,Belgian,2,43,guess,win,5,right,4,guess_outcome,0,undefined,0,0,260,310319,873114
15,19,female,Belgian,2,43,ITC,win,5,right,4,ITC_start,712,space,0,0,260,309605,873828
15,19,female,Belgian,2,43,ITC,win,5,right,4,ITC_choice,559,j,0,0,260,309044,874389
15,19,female,Belgian,2,43,ITC,win,5,right,4,ITC_wait,0,undefined,0,0,260,304042,879391
15,19,female,Belgian,2,43,ITC,win,5,right,4,ITC_collect,1040,k,0,0,260,302999,880434
15,19,female,Belgian,2,43,ITC,win,5,right,4,ITC_outcome,0,undefined,0,0,280,301994,881439
15,19,female,Belgian,2,44,guess,win,10,right,6,guess_start,852,space,0,0,280,301140,882293
15,19,female,Belgian,2,44,guess,win,10,right,6,guess_choice,759,f,0,0,280,300378,883055
15,19,female,Belgian,2,44,guess,win,10,right,6,guess_outcome,0,undefined,0,0,300,298822,884611
15,19,female,Belgian,2,44,ITC,win,10,right,6,ITC_start,1282,space,0,0,300,297539,885894
15,19,female,Belgian,2,44,ITC,win,10,right,6,ITC_choice,617,j,0,0,300,296920,886513
15,19,female,Belgian,2,44,ITC,win,10,right,6,ITC_wait,0,undefined,0,0,300,286913,896520
15,19,female,Belgian,2,44,ITC,win,10,right,6,ITC_collect,452,k,0,0,300,286459,896974
15,19,female,Belgian,2,44,ITC,win,10,right,6,ITC_outcome,0,undefined,0,0,320,285453,897980
15,19,female,Belgian,2,45,guess,loss,10,left,4,guess_start,887,space,0,0,320,284563,898870
15,19,female,Belgian,2,45,guess,loss,10,left,4,guess_choice,906,j,0,0,320,283654,899779
15,19,female,Belgian,2,45,guess,loss,10,left,4,guess_outcome,0,undefined,0,0,305,282095,901338
15,19,female,Belgian,2,45,ITC,loss,10,left,4,ITC_start,687,space,0,0,305,281407,902026
15,19,female,Belgian,2,45,ITC,loss,10,left,4,ITC_choice,871,f,0,0,305,280534,902899
15,19,female,Belgian,2,45,ITC,loss,10,left,4,ITC_wait,0,undefined,0,0,305,270528,912905
15,19,female,Belgian,2,45,ITC,loss,10,left,4,ITC_collect,372,k,0,0,305,270153,913280
15,19,female,Belgian,2,45,ITC,loss,10,left,4,ITC_outcome,0,undefined,0,0,325,269146,914287
15,19,female,Belgian,2,46,guess,win,5,left,10,guess_start,827,space,0,0,325,268315,915118
15,19,female,Belgian,2,46,guess,win,5,left,10,guess_choice,716,f,0,0,325,267595,915838
15,19,female,Belgian,2,46,guess,win,5,left,10,guess_outcome,0,undefined,0,0,345,266035,917398
15,19,female,Belgian,2,46,ITC,win,5,left,10,ITC_start,2220,space,0,0,345,263810,919623
15,19,female,Belgian,2,46,ITC,win,5,left,10,ITC_choice,964,f,0,0,345,262843,920590
15,19,female,Belgian,2,46,ITC,win,5,left,10,ITC_wait,0,undefined,0,0,345,257835,925598
15,19,female,Belgian,2,46,ITC,win,5,left,10,ITC_collect,649,k,0,0,345,257183,926250
15,19,female,Belgian,2,46,ITC,win,5,left,10,ITC_outcome,0,undefined,0,0,365,256176,927257
15,19,female,Belgian,2,47,guess,win,10,right,4,guess_start,496,space,0,0,365,255678,927755
15,19,female,Belgian,2,47,guess,win,10,right,4,guess_choice,798,f,0,0,365,254876,928557
15,19,female,Belgian,2,47,guess,win,10,right,4,guess_outcome,0,undefined,0,0,385,253319,930114
15,19,female,Belgian,2,47,ITC,win,10,right,4,ITC_start,297,space,0,0,385,253020,930413
15,19,female,Belgian,2,47,ITC,win,10,right,4,ITC_choice,846,j,0,0,385,252172,931261
15,19,female,Belgian,2,47,ITC,win,10,right,4,ITC_wait,0,undefined,0,0,385,242161,941272
15,19,female,Belgian,2,47,ITC,win,10,right,4,ITC_collect,2567,k,0,0,385,239592,943841
15,19,female,Belgian,2,47,ITC,win,10,right,4,ITC_outcome,0,undefined,0,0,405,238585,944848
15,19,female,Belgian,2,48,guess,win,10,right,2,guess_start,1084,space,0,0,405,237498,945935
15,19,female,Belgian,2,48,guess,win,10,right,2,guess_choice,903,f,0,0,405,236592,946841
15,19,female,Belgian,2,48,guess,win,10,right,2,guess_outcome,0,undefined,0,0,425,235034,948399
15,19,female,Belgian,2,48,ITC,win,10,right,2,ITC_start,1912,space,0,0,425,233119,950314
15,19,female,Belgian,2,48,ITC,win,10,right,2,ITC_choice,789,j,0,0,425,232328,951105
15,19,female,Belgian,2,48,ITC,win,10,right,2,ITC_wait,0,undefined,0,0,425,222321,961112
15,19,female,Belgian,2,48,ITC,win,10,right,2,ITC_collect,1046,k,0,0,425,221272,962161
15,19,female,Belgian,2,48,ITC,win,10,right,2,ITC_outcome,0,undefined,0,0,445,220266,963167
15,19,female,Belgian,2,49,guess,neutral,5,right,1,guess_start,1011,space,0,0,445,219252,964181
15,19,female,Belgian,2,49,guess,neutral,5,right,1,guess_choice,997,j,0,0,445,218252,965181
15,19,female,Belgian,2,49,guess,neutral,5,right,1,guess_outcome,0,undefined,0,0,445,216696,966737
15,19,female,Belgian,2,49,ITC,neutral,5,right,1,ITC_start,1365,space,0,0,445,215329,968104
15,19,female,Belgian,2,49,ITC,neutral,5,right,1,ITC_choice,1005,j,0,0,445,214322,969111
15,19,female,Belgian,2,49,ITC,neutral,5,right,1,ITC_wait,0,undefined,0,0,445,209319,974114
15,19,female,Belgian,2,49,ITC,neutral,5,right,1,ITC_collect,1047,k,0,0,445,208269,975164
15,19,female,Belgian,2,49,ITC,neutral,5,right,1,ITC_outcome,0,undefined,0,0,465,207264,976169
15,19,female,Belgian,2,50,guess,win,5,left,2,guess_start,1132,space,0,0,465,206129,977304
15,19,female,Belgian,2,50,guess,win,5,left,2,guess_choice,768,f,0,0,465,205359,978074
15,19,female,Belgian,2,50,guess,win,5,left,2,guess_outcome,0,undefined,0,0,485,203800,979633
15,19,female,Belgian,2,50,ITC,win,5,left,2,ITC_start,2284,space,0,0,485,201514,981919
15,19,female,Belgian,2,50,ITC,win,5,left,2,ITC_choice,1000,f,0,0,485,200513,982920
15,19,female,Belgian,2,50,ITC,win,5,left,2,ITC_wait,0,undefined,0,0,485,195506,987927
15,19,female,Belgian,2,50,ITC,win,5,left,2,ITC_collect,1078,k,0,0,485,194425,989008
15,19,female,Belgian,2,50,ITC,win,5,left,2,ITC_outcome,0,undefined,0,0,505,193419,990014
15,19,female,Belgian,2,51,guess,neutral,5,left,13,guess_start,344,space,0,0,505,193072,990361
15,19,female,Belgian,2,51,guess,neutral,5,left,13,guess_choice,746,f,0,0,505,192323,991110
15,19,female,Belgian,2,51,guess,neutral,5,left,13,guess_outcome,0,undefined,0,0,505,190769,992664
15,19,female,Belgian,2,51,ITC,neutral,5,left,13,ITC_start,526,space,0,0,505,190240,993193
15,19,female,Belgian,2,51,ITC,neutral,5,left,13,ITC_choice,1048,f,0,0,505,189191,994242
15,19,female,Belgian,2,51,ITC,neutral,5,left,13,ITC_wait,0,undefined,0,0,505,184184,999249
15,19,female,Belgian,2,51,ITC,neutral,5,left,13,ITC_collect,1481,k,0,0,505,182701,1000732
15,19,female,Belgian,2,51,ITC,neutral,5,left,13,ITC_outcome,0,undefined,0,0,525,181694,1001739
15,19,female,Belgian,2,52,guess,win,10,right,7,guess_start,893,space,0,0,525,180799,1002634
15,19,female,Belgian,2,52,guess,win,10,right,7,guess_choice,870,f,0,0,525,179926,1003507
15,19,female,Belgian,2,52,guess,win,10,right,7,guess_outcome,0,undefined,0,0,545,178369,1005064
15,19,female,Belgian,2,52,ITC,win,10,right,7,ITC_start,1792,space,0,0,545,176576,1006857
15,19,female,Belgian,2,52,ITC,win,10,right,7,ITC_choice,703,j,0,0,545,175872,1007561
15,19,female,Belgian,2,52,ITC,win,10,right,7,ITC_wait,0,undefined,0,0,545,165865,1017568
15,19,female,Belgian,2,52,ITC,win,10,right,7,ITC_collect,920,k,0,0,545,164942,1018491
15,19,female,Belgian,2,52,ITC,win,10,right,7,ITC_outcome,0,undefined,0,0,565,163939,1019494
15,19,female,Belgian,2,53,guess,loss,5,right,14,guess_start,785,space,0,0,565,163151,1020282
15,19,female,Belgian,2,53,guess,loss,5,right,14,guess_choice,795,j,0,0,565,162353,1021080
15,19,female,Belgian,2,53,guess,loss,5,right,14,guess_outcome,0,undefined,0,0,550,160799,1022634
15,19,female,Belgian,2,53,ITC,loss,5,right,14,ITC_start,1081,space,0,0,550,159716,1023717
15,19,female,Belgian,2,53,ITC,loss,5,right,14,ITC_choice,944,j,0,0,550,158770,1024663
15,19,female,Belgian,2,53,ITC,loss,5,right,14,ITC_wait,0,undefined,0,0,550,153763,1029670
15,19,female,Belgian,2,53,ITC,loss,5,right,14,ITC_collect,1307,k,0,0,550,152454,1030979
15,19,female,Belgian,2,53,ITC,loss,5,right,14,ITC_outcome,0,undefined,0,0,570,151448,1031985
15,19,female,Belgian,2,54,guess,neutral,10,left,4,guess_start,1473,space,0,0,570,149972,1033461
15,19,female,Belgian,2,54,guess,neutral,10,left,4,guess_choice,843,f,0,0,570,149125,1034308
15,19,female,Belgian,2,54,guess,neutral,10,left,4,guess_outcome,0,undefined,0,0,570,147567,1035866
15,19,female,Belgian,2,54,ITC,neutral,10,left,4,ITC_start,348,space,0,0,570,147217,1036216
15,19,female,Belgian,2,54,ITC,neutral,10,left,4,ITC_choice,816,f,0,0,570,146399,1037034
15,19,female,Belgian,2,54,ITC,neutral,10,left,4,ITC_wait,0,undefined,0,0,570,136393,1047040
15,19,female,Belgian,2,54,ITC,neutral,10,left,4,ITC_collect,712,k,0,0,570,135679,1047754
15,19,female,Belgian,2,54,ITC,neutral,10,left,4,ITC_outcome,0,undefined,0,0,590,134672,1048761
15,19,female,Belgian,2,55,guess,neutral,5,left,2,guess_start,1169,space,0,0,590,133501,1049932
15,19,female,Belgian,2,55,guess,neutral,5,left,2,guess_choice,773,j,0,0,590,132725,1050708
15,19,female,Belgian,2,55,guess,neutral,5,left,2,guess_outcome,0,undefined,0,0,590,131165,1052268
15,19,female,Belgian,2,55,ITC,neutral,5,left,2,ITC_start,545,space,0,0,590,130618,1052815
15,19,female,Belgian,2,55,ITC,neutral,5,left,2,ITC_choice,867,f,0,0,590,129750,1053683
15,19,female,Belgian,2,55,ITC,neutral,5,left,2,ITC_wait,0,undefined,0,0,590,124744,1058689
15,19,female,Belgian,2,55,ITC,neutral,5,left,2,ITC_collect,1022,k,0,0,590,123720,1059713
15,19,female,Belgian,2,55,ITC,neutral,5,left,2,ITC_outcome,0,undefined,0,0,610,122714,1060719
15,19,female,Belgian,2,56,guess,neutral,5,right,6,guess_start,618,space,0,0,610,122093,1061340
15,19,female,Belgian,2,56,guess,neutral,5,right,6,guess_choice,782,j,0,0,610,121307,1062126
15,19,female,Belgian,2,56,guess,neutral,5,right,6,guess_outcome,0,undefined,0,0,610,119752,1063681
15,19,female,Belgian,2,56,ITC,neutral,5,right,6,ITC_start,615,space,0,0,610,119135,1064298
15,19,female,Belgian,2,56,ITC,neutral,5,right,6,ITC_choice,2231,j,0,0,610,116902,1066531
15,19,female,Belgian,2,56,ITC,neutral,5,right,6,ITC_wait,0,undefined,0,0,610,111898,1071535
15,19,female,Belgian,2,56,ITC,neutral,5,right,6,ITC_collect,788,k,0,0,610,111107,1072326
15,19,female,Belgian,2,56,ITC,neutral,5,right,6,ITC_outcome,0,undefined,0,0,630,110101,1073332
15,19,female,Belgian,2,57,guess,loss,5,left,3,guess_start,360,space,0,0,630,109738,1073695
15,19,female,Belgian,2,57,guess,loss,5,left,3,guess_choice,1025,f,0,0,630,108710,1074723
15,19,female,Belgian,2,57,guess,loss,5,left,3,guess_outcome,0,undefined,0,0,615,107151,1076282
15,19,female,Belgian,2,57,ITC,loss,5,left,3,ITC_start,1120,space,0,0,615,106029,1077404
15,19,female,Belgian,2,57,ITC,loss,5,left,3,ITC_choice,943,f,0,0,615,105084,1078349
15,19,female,Belgian,2,57,ITC,loss,5,left,3,ITC_wait,0,undefined,0,0,615,100082,1083351
15,19,female,Belgian,2,57,ITC,loss,5,left,3,ITC_collect,1852,k,0,0,615,98227,1085206
15,19,female,Belgian,2,57,ITC,loss,5,left,3,ITC_outcome,0,undefined,0,0,635,97222,1086211
15,19,female,Belgian,2,58,guess,loss,5,left,15,guess_start,740,space,0,0,635,96479,1086954
15,19,female,Belgian,2,58,guess,loss,5,left,15,guess_choice,898,j,0,0,635,95579,1087854
15,19,female,Belgian,2,58,guess,loss,5,left,15,guess_outcome,0,undefined,0,0,620,94022,1089411
15,19,female,Belgian,2,58,ITC,loss,5,left,15,ITC_start,597,space,0,0,620,93423,1090010
15,19,female,Belgian,2,58,ITC,loss,5,left,15,ITC_choice,852,f,0,0,620,92569,1090864
15,19,female,Belgian,2,58,ITC,loss,5,left,15,ITC_wait,0,undefined,0,0,620,87567,1095866
15,19,female,Belgian,2,58,ITC,loss,5,left,15,ITC_collect,4863,k,0,0,620,82702,1100731
15,19,female,Belgian,2,58,ITC,loss,5,left,15,ITC_outcome,0,undefined,0,0,640,81696,1101737
15,19,female,Belgian,2,59,guess,win,10,right,5,guess_start,3203,space,0,0,640,78490,1104943
15,19,female,Belgian,2,59,guess,win,10,right,5,guess_choice,930,f,0,0,640,77557,1105876
15,19,female,Belgian,2,59,guess,win,10,right,5,guess_outcome,0,undefined,0,0,660,76002,1107431
15,19,female,Belgian,2,59,ITC,win,10,right,5,ITC_start,386,space,0,0,660,75614,1107819
15,19,female,Belgian,2,59,ITC,win,10,right,5,ITC_choice,1129,j,0,0,660,74484,1108949
15,19,female,Belgian,2,59,ITC,win,10,right,5,ITC_wait,0,undefined,0,0,660,64480,1118953
15,19,female,Belgian,2,59,ITC,win,10,right,5,ITC_collect,1000,k,0,0,660,63477,1119956
15,19,female,Belgian,2,59,ITC,win,10,right,5,ITC_outcome,0,undefined,0,0,680,62475,1120958
15,19,female,Belgian,2,60,guess,neutral,5,right,3,guess_start,794,space,0,0,680,61679,1121754
15,19,female,Belgian,2,60,guess,neutral,5,right,3,guess_choice,772,j,0,0,680,60903,1122530
15,19,female,Belgian,2,60,guess,neutral,5,right,3,guess_outcome,0,undefined,0,0,680,59349,1124084
15,19,female,Belgian,2,60,ITC,neutral,5,right,3,ITC_start,1211,space,0,0,680,58136,1125297
15,19,female,Belgian,2,60,ITC,neutral,5,right,3,ITC_choice,1320,j,0,0,680,56815,1126618
15,19,female,Belgian,2,60,ITC,neutral,5,right,3,ITC_wait,0,undefined,0,0,680,51810,1131623
15,19,female,Belgian,2,60,ITC,neutral,5,right,3,ITC_collect,1250,k,0,0,680,50557,1132876
15,19,female,Belgian,2,60,ITC,neutral,5,right,3,ITC_outcome,0,undefined,0,0,700,49550,1133883
15,19,female,Belgian,2,61,guess,win,10,left,1,guess_start,704,space,0,0,700,48844,1134589
15,19,female,Belgian,2,61,guess,win,10,left,1,guess_choice,981,f,0,0,700,47859,1135574
15,19,female,Belgian,2,61,guess,win,10,left,1,guess_outcome,0,undefined,0,0,720,46301,1137132
15,19,female,Belgian,2,61,ITC,win,10,left,1,ITC_start,1106,space,0,0,720,45193,1138240
15,19,female,Belgian,2,61,ITC,win,10,left,1,ITC_choice,986,f,0,0,720,44205,1139228
15,19,female,Belgian,2,61,ITC,win,10,left,1,ITC_wait,0,undefined,0,0,720,34198,1149235
15,19,female,Belgian,2,61,ITC,win,10,left,1,ITC_collect,716,k,0,0,720,33479,1149954
15,19,female,Belgian,2,61,ITC,win,10,left,1,ITC_outcome,0,undefined,0,0,740,32476,1150957
15,19,female,Belgian,2,62,guess,win,5,left,11,guess_start,763,space,0,0,740,31710,1151723
15,19,female,Belgian,2,62,guess,win,5,left,11,guess_choice,720,j,0,0,740,30987,1152446
15,19,female,Belgian,2,62,guess,win,5,left,11,guess_outcome,0,undefined,0,0,760,29429,1154004
15,19,female,Belgian,2,62,ITC,win,5,left,11,ITC_start,1294,space,0,0,760,28132,1155301
15,19,female,Belgian,2,62,ITC,win,5,left,11,ITC_choice,986,f,0,0,760,27145,1156288
15,19,female,Belgian,2,62,ITC,win,5,left,11,ITC_wait,0,undefined,0,0,760,22141,1161292
15,19,female,Belgian,2,62,ITC,win,5,left,11,ITC_collect,404,k,0,0,760,21734,1161699
15,19,female,Belgian,2,62,ITC,win,5,left,11,ITC_outcome,0,undefined,0,0,780,20727,1162706
15,19,female,Belgian,2,63,guess,neutral,5,left,10,guess_start,298,space,0,0,780,20427,1163006
15,19,female,Belgian,2,63,guess,neutral,5,left,10,guess_choice,656,j,0,0,780,19768,1163665
15,19,female,Belgian,2,63,guess,neutral,5,left,10,guess_outcome,0,undefined,0,0,780,18213,1165220
15,19,female,Belgian,2,63,ITC,neutral,5,left,10,ITC_start,456,space,0,0,780,17755,1165678
15,19,female,Belgian,2,63,ITC,neutral,5,left,10,ITC_choice,874,f,0,0,780,16879,1166554
15,19,female,Belgian,2,63,ITC,neutral,5,left,10,ITC_wait,0,undefined,0,0,780,11872,1171561
15,19,female,Belgian,2,63,ITC,neutral,5,left,10,ITC_collect,1583,k,0,0,780,10286,1173147
15,19,female,Belgian,2,63,ITC,neutral,5,left,10,ITC_outcome,0,undefined,0,0,800,9280,1174153
15,19,female,Belgian,2,64,guess,neutral,5,right,8,guess_start,547,space,0,0,800,8730,1174703
15,19,female,Belgian,2,64,guess,neutral,5,right,8,guess_choice,702,j,0,0,800,8025,1175408
15,19,female,Belgian,2,64,guess,neutral,5,right,8,guess_outcome,0,undefined,0,0,800,6471,1176962
15,19,female,Belgian,2,64,ITC,neutral,5,right,8,ITC_start,374,space,0,0,800,6095,1177338
15,19,female,Belgian,2,64,ITC,neutral,5,right,8,ITC_choice,1227,j,0,0,800,4867,1178566
15,19,female,Belgian,2,64,ITC,neutral,5,right,8,ITC_wait,0,undefined,0,0,800,-3,1183436
15,19,female,Belgian,3,65,guess,loss,5,right,5,guess_start,1444,space,0,0,0,478554,1206160
15,19,female,Belgian,3,65,guess,loss,5,right,5,guess_choice,426,f,0,0,0,478124,1206590
15,19,female,Belgian,3,65,guess,loss,5,right,5,guess_outcome,0,undefined,0,0,-15,476571,1208143
15,19,female,Belgian,3,65,ITC,loss,5,right,5,ITC_start,1146,space,0,0,-15,475423,1209291
15,19,female,Belgian,3,65,ITC,loss,5,right,5,ITC_choice,1133,j,0,0,-15,474288,1210426
15,19,female,Belgian,3,65,ITC,loss,5,right,5,ITC_wait,0,undefined,0,0,-15,469281,1215433
15,19,female,Belgian,3,65,ITC,loss,5,right,5,ITC_collect,1326,k,0,0,-15,467953,1216761
15,19,female,Belgian,3,65,ITC,loss,5,right,5,ITC_outcome,0,undefined,0,0,5,466947,1217767
15,19,female,Belgian,3,66,guess,loss,5,left,11,guess_start,496,space,0,0,5,466448,1218266
15,19,female,Belgian,3,66,guess,loss,5,left,11,guess_choice,577,f,0,0,5,465867,1218847
15,19,female,Belgian,3,66,guess,loss,5,left,11,guess_outcome,0,undefined,0,0,-10,464308,1220406
15,19,female,Belgian,3,66,ITC,loss,5,left,11,ITC_start,3589,space,0,0,-10,460717,1223997
15,19,female,Belgian,3,66,ITC,loss,5,left,11,ITC_choice,915,f,0,0,-10,459800,1224914
15,19,female,Belgian,3,66,ITC,loss,5,left,11,ITC_wait,0,undefined,0,0,-10,454796,1229918
15,19,female,Belgian,3,66,ITC,loss,5,left,11,ITC_collect,1578,k,0,0,-10,453214,1231500
15,19,female,Belgian,3,66,ITC,loss,5,left,11,ITC_outcome,0,undefined,0,0,10,452207,1232507
15,19,female,Belgian,3,67,guess,win,5,right,14,guess_start,801,space,0,0,10,451404,1233310
15,19,female,Belgian,3,67,guess,win,5,right,14,guess_choice,541,j,0,0,10,450859,1233855
15,19,female,Belgian,3,67,guess,win,5,right,14,guess_outcome,0,undefined,0,0,30,449306,1235408
15,19,female,Belgian,3,67,ITC,win,5,right,14,ITC_start,1030,space,0,0,30,448273,1236441
15,19,female,Belgian,3,67,ITC,win,5,right,14,ITC_choice,792,j,0,0,30,447480,1237234
15,19,female,Belgian,3,67,ITC,win,5,right,14,ITC_wait,0,undefined,0,0,30,442477,1242237
15,19,female,Belgian,3,67,ITC,win,5,right,14,ITC_collect,947,k,0,0,30,441527,1243187
15,19,female,Belgian,3,67,ITC,win,5,right,14,ITC_outcome,0,undefined,0,0,50,440519,1244195
15,19,female,Belgian,3,68,guess,neutral,10,left,6,guess_start,652,space,0,0,50,439864,1244850
15,19,female,Belgian,3,68,guess,neutral,10,left,6,guess_choice,615,f,0,0,50,439245,1245469
15,19,female,Belgian,3,68,guess,neutral,10,left,6,guess_outcome,0,undefined,0,0,50,437686,1247028
15,19,female,Belgian,3,68,ITC,neutral,10,left,6,ITC_start,592,space,0,0,50,437092,1247622
15,19,female,Belgian,3,68,ITC,neutral,10,left,6,ITC_choice,564,f,0,0,50,436527,1248187
15,19,female,Belgian,3,68,ITC,neutral,10,left,6,ITC_wait,0,undefined,0,0,50,426520,1258194
15,19,female,Belgian,3,68,ITC,neutral,10,left,6,ITC_collect,676,k,0,0,50,425842,1258872
15,19,female,Belgian,3,68,ITC,neutral,10,left,6,ITC_outcome,0,undefined,0,0,70,424835,1259879
15,19,female,Belgian,3,69,guess,loss,5,left,12,guess_start,774,space,0,0,70,424059,1260655
15,19,female,Belgian,3,69,guess,loss,5,left,12,guess_choice,858,f,0,0,70,423198,1261516
15,19,female,Belgian,3,69,guess,loss,5,left,12,guess_outcome,0,undefined,0,0,55,421640,1263074
15,19,female,Belgian,3,69,ITC,loss,5,left,12,ITC_start,906,space,0,0,55,420732,1263982
15,19,female,Belgian,3,69,ITC,loss,5,left,12,ITC_choice,859,f,0,0,55,419872,1264842
15,19,female,Belgian,3,69,ITC,loss,5,left,12,ITC_wait,0,undefined,0,0,55,414868,1269846
15,19,female,Belgian,3,69,ITC,loss,5,left,12,ITC_collect,986,k,0,0,55,413880,1270834
15,19,female,Belgian,3,69,ITC,loss,5,left,12,ITC_outcome,0,undefined,0,0,75,412876,1271838
15,19,female,Belgian,3,70,guess,neutral,5,left,12,guess_start,856,space,0,0,75,412018,1272696
15,19,female,Belgian,3,70,guess,neutral,5,left,12,guess_choice,978,f,0,0,75,411037,1273677
15,19,female,Belgian,3,70,guess,neutral,5,left,12,guess_outcome,0,undefined,0,0,75,409484,1275230
15,19,female,Belgian,3,70,ITC,neutral,5,left,12,ITC_start,1269,space,0,0,75,408214,1276500
15,19,female,Belgian,3,70,ITC,neutral,5,left,12,ITC_choice,1063,f,0,0,75,407149,1277565
15,19,female,Belgian,3,70,ITC,neutral,5,left,12,ITC_wait,0,undefined,0,0,75,402147,1282567
15,19,female,Belgian,3,70,ITC,neutral,5,left,12,ITC_collect,900,k,0,0,75,401245,1283469
15,19,female,Belgian,3,70,ITC,neutral,5,left,12,ITC_outcome,0,undefined,0,0,95,400241,1284473
15,19,female,Belgian,3,71,guess,neutral,5,left,5,guess_start,958,space,0,0,95,399281,1285433
15,19,female,Belgian,3,71,guess,neutral,5,left,5,guess_choice,545,f,0,0,95,398733,1285981
15,19,female,Belgian,3,71,guess,neutral,5,left,5,guess_outcome,0,undefined,0,0,95,397177,1287537
15,19,female,Belgian,3,71,ITC,neutral,5,left,5,ITC_start,1095,space,0,0,95,396080,1288634
15,19,female,Belgian,3,71,ITC,neutral,5,left,5,ITC_choice,646,f,0,0,95,395433,1289281
15,19,female,Belgian,3,71,ITC,neutral,5,left,5,ITC_wait,0,undefined,0,0,95,390426,1294288
15,19,female,Belgian,3,71,ITC,neutral,5,left,5,ITC_collect,400,k,0,0,95,390024,1294690
15,19,female,Belgian,3,71,ITC,neutral,5,left,5,ITC_outcome,0,undefined,0,0,115,389018,1295696
15,19,female,Belgian,3,72,guess,neutral,10,right,5,guess_start,330,space,0,0,115,388685,1296029
15,19,female,Belgian,3,72,guess,neutral,10,right,5,guess_choice,847,f,0,0,115,387835,1296879
15,19,female,Belgian,3,72,guess,neutral,10,right,5,guess_outcome,0,undefined,0,0,115,386281,1298433
15,19,female,Belgian,3,72,ITC,neutral,10,right,5,ITC_start,747,space,0,0,115,385532,1299182
15,19,female,Belgian,3,72,ITC,neutral,10,right,5,ITC_choice,723,j,0,0,115,384806,1299908
15,19,female,Belgian,3,72,ITC,neutral,10,right,5,ITC_wait,0,undefined,0,0,115,374804,1309910
15,19,female,Belgian,3,72,ITC,neutral,10,right,5,ITC_collect,401,k,0,0,115,374400,1310314
15,19,female,Belgian,3,72,ITC,neutral,10,right,5,ITC_outcome,0,undefined,0,0,135,373394,1311320
15,19,female,Belgian,3,73,guess,loss,10,right,4,guess_start,553,space,0,0,135,372839,1311875
15,19,female,Belgian,3,73,guess,loss,10,right,4,guess_choice,729,f,0,0,135,372106,1312608
15,19,female,Belgian,3,73,guess,loss,10,right,4,guess_outcome,0,undefined,0,0,120,370547,1314167
15,19,female,Belgian,3,73,ITC,loss,10,right,4,ITC_start,726,space,0,0,120,369819,1314895
15,19,female,Belgian,3,73,ITC,loss,10,right,4,ITC_choice,1227,j,0,0,120,368590,1316124
15,19,female,Belgian,3,73,ITC,loss,10,right,4,ITC_wait,0,undefined,0,0,120,358587,1326127
15,19,female,Belgian,3,73,ITC,loss,10,right,4,ITC_collect,619,k,0,0,120,357965,1326749
15,19,female,Belgian,3,73,ITC,loss,10,right,4,ITC_outcome,0,undefined,0,0,140,356958,1327756
15,19,female,Belgian,3,74,guess,neutral,10,left,5,guess_start,372,space,0,0,140,356584,1328130
15,19,female,Belgian,3,74,guess,neutral,10,left,5,guess_choice,622,f,0,0,140,355958,1328756
15,19,female,Belgian,3,74,guess,neutral,10,left,5,guess_outcome,0,undefined,0,0,140,354405,1330309
15,19,female,Belgian,3,74,ITC,neutral,10,left,5,ITC_start,291,space,0,0,140,354112,1330602
15,19,female,Belgian,3,74,ITC,neutral,10,left,5,ITC_choice,676,f,0,0,140,353434,1331280
15,19,female,Belgian,3,74,ITC,neutral,10,left,5,ITC_wait,0,undefined,0,0,140,343427,1341287
15,19,female,Belgian,3,74,ITC,neutral,10,left,5,ITC_collect,361,k,0,0,140,343063,1341651
15,19,female,Belgian,3,74,ITC,neutral,10,left,5,ITC_outcome,0,undefined,0,0,160,342057,1342657
15,19,female,Belgian,3,75,guess,win,5,left,9,guess_start,1016,space,0,0,160,341039,1343675
15,19,female,Belgian,3,75,guess,win,5,left,9,guess_choice,620,j,0,0,160,340415,1344299
15,19,female,Belgian,3,75,guess,win,5,left,9,guess_outcome,0,undefined,0,0,180,338857,1345857
15,19,female,Belgian,3,75,ITC,win,5,left,9,ITC_start,387,space,0,0,180,338468,1346246
15,19,female,Belgian,3,75,ITC,win,5,left,9,ITC_choice,1638,f,0,0,180,336828,1347886
15,19,female,Belgian,3,75,ITC,win,5,left,9,ITC_wait,0,undefined,0,0,180,331821,1352893
15,19,female,Belgian,3,75,ITC,win,5,left,9,ITC_collect,545,k,0,0,180,331273,1353441
15,19,female,Belgian,3,75,ITC,win,5,left,9,ITC_outcome,0,undefined,0,0,200,330266,1354448
15,19,female,Belgian,3,76,guess,loss,5,right,9,guess_start,317,space,0,0,200,329945,1354769
15,19,female,Belgian,3,76,guess,loss,5,right,9,guess_choice,584,j,0,0,200,329358,1355356
15,19,female,Belgian,3,76,guess,loss,5,right,9,guess_outcome,0,undefined,0,0,185,327804,1356910
15,19,female,Belgian,3,76,ITC,loss,5,right,9,ITC_start,467,space,0,0,185,327335,1357379
15,19,female,Belgian,3,76,ITC,loss,5,right,9,ITC_choice,701,j,0,0,185,326633,1358081
15,19,female,Belgian,3,76,ITC,loss,5,right,9,ITC_wait,0,undefined,0,0,185,321626,1363088
15,19,female,Belgian,3,76,ITC,loss,5,right,9,ITC_collect,862,k,0,0,185,320762,1363952
15,19,female,Belgian,3,76,ITC,loss,5,right,9,ITC_outcome,0,undefined,0,0,205,319756,1364958
15,19,female,Belgian,3,77,guess,win,5,left,12,guess_start,555,space,0,0,205,319198,1365516
15,19,female,Belgian,3,77,guess,win,5,left,12,guess_choice,540,f,0,0,205,318655,1366059
15,19,female,Belgian,3,77,guess,win,5,left,12,guess_outcome,0,undefined,0,0,225,317100,1367614
15,19,female,Belgian,3,77,ITC,win,5,left,12,ITC_start,502,space,0,0,225,316596,1368118
15,19,female,Belgian,3,77,ITC,win,5,left,12,ITC_choice,922,f,0,0,225,315671,1369043
15,19,female,Belgian,3,77,ITC,win,5,left,12,ITC_wait,0,undefined,0,0,225,310668,1374046
15,19,female,Belgian,3,77,ITC,win,5,left,12,ITC_collect,1535,k,0,0,225,309131,1375583
15,19,female,Belgian,3,77,ITC,win,5,left,12,ITC_outcome,0,undefined,0,0,245,308127,1376587
15,19,female,Belgian,3,78,guess,win,10,left,5,guess_start,1146,space,0,0,245,306979,1377735
15,19,female,Belgian,3,78,guess,win,10,left,5,guess_choice,695,j,0,0,245,306281,1378433
15,19,female,Belgian,3,78,guess,win,10,left,5,guess_outcome,0,undefined,0,0,265,304721,1379993
15,19,female,Belgian,3,78,ITC,win,10,left,5,ITC_start,593,space,0,0,265,304126,1380588
15,19,female,Belgian,3,78,ITC,win,10,left,5,ITC_choice,1165,f,0,0,265,302959,1381755
15,19,female,Belgian,3,78,ITC,win,10,left,5,ITC_wait,0,undefined,0,0,265,292956,1391758
15,19,female,Belgian,3,78,ITC,win,10,left,5,ITC_collect,1075,k,0,0,265,291878,1392836
15,19,female,Belgian,3,78,ITC,win,10,left,5,ITC_outcome,0,undefined,0,0,285,290875,1393839
15,19,female,Belgian,3,79,guess,neutral,10,right,3,guess_start,499,space,0,0,285,290373,1394341
15,19,female,Belgian,3,79,guess,neutral,10,right,3,guess_choice,570,f,0,0,285,289799,1394915
15,19,female,Belgian,3,79,guess,neutral,10,right,3,guess_outcome,0,undefined,0,0,285,288245,1396469
15,19,female,Belgian,3,79,ITC,neutral,10,right,3,ITC_start,314,space,0,0,285,287928,1396786
15,19,female,Belgian,3,79,ITC,neutral,10,right,3,ITC_choice,636,j,0,0,285,287291,1397423
15,19,female,Belgian,3,79,ITC,neutral,10,right,3,ITC_wait,0,undefined,0,0,285,277284,1407430
15,19,female,Belgian,3,80,guess,loss,5,left,6,guess_outcome,0,undefined,0,0,290,273232,1411482
15,19,female,Belgian,3,79,ITC,neutral,10,right,3,ITC_collect,369,k,0,0,285,276912,1407802
15,19,female,Belgian,3,80,guess,loss,5,left,6,guess_choice,735,f,0,0,305,274790,1409924
15,19,female,Belgian,3,79,ITC,neutral,10,right,3,ITC_outcome,0,undefined,0,0,305,275907,1408807
15,19,female,Belgian,3,80,guess,loss,5,left,6,guess_start,377,space,0,0,305,275528,1409186
15,19,female,Belgian,3,80,ITC,loss,5,left,6,ITC_start,306,space,0,0,290,272923,1411791
15,19,female,Belgian,3,80,ITC,loss,5,left,6,ITC_choice,585,f,0,0,290,272336,1412378
15,19,female,Belgian,3,80,ITC,loss,5,left,6,ITC_wait,0,undefined,0,0,290,267329,1417385
15,19,female,Belgian,3,80,ITC,loss,5,left,6,ITC_collect,540,k,0,0,290,266787,1417927
15,19,female,Belgian,3,80,ITC,loss,5,left,6,ITC_outcome,0,undefined,0,0,310,265781,1418933
15,19,female,Belgian,3,81,guess,loss,5,left,5,guess_start,382,space,0,0,310,265397,1419317
15,19,female,Belgian,3,81,guess,loss,5,left,5,guess_choice,572,j,0,0,310,264821,1419893
15,19,female,Belgian,3,81,guess,loss,5,left,5,guess_outcome,0,undefined,0,0,295,263263,1421451
15,19,female,Belgian,3,81,ITC,loss,5,left,5,ITC_start,386,space,0,0,295,262874,1421840
15,19,female,Belgian,3,81,ITC,loss,5,left,5,ITC_choice,543,f,0,0,295,262329,1422385
15,19,female,Belgian,3,81,ITC,loss,5,left,5,ITC_wait,0,undefined,0,0,295,257323,1427391
15,19,female,Belgian,3,81,ITC,loss,5,left,5,ITC_collect,617,k,0,0,295,256703,1428011
15,19,female,Belgian,3,81,ITC,loss,5,left,5,ITC_outcome,0,undefined,0,0,315,255697,1429017
15,19,female,Belgian,3,82,guess,loss,5,right,12,guess_start,431,space,0,0,315,255264,1429450
15,19,female,Belgian,3,82,guess,loss,5,right,12,guess_choice,656,f,0,0,315,254605,1430109
15,19,female,Belgian,3,82,guess,loss,5,right,12,guess_outcome,0,undefined,0,0,300,253047,1431667
15,19,female,Belgian,3,82,ITC,loss,5,right,12,ITC_start,768,space,0,0,300,252277,1432437
15,19,female,Belgian,3,82,ITC,loss,5,right,12,ITC_choice,1725,f,0,0,300,250550,1434164
15,19,female,Belgian,3,82,ITC,loss,5,right,12,ITC_wait,0,undefined,0,0,300,250547,1434167
15,19,female,Belgian,3,82,ITC,loss,5,right,12,ITC_collect,571,k,0,0,300,249975,1434739
15,19,female,Belgian,3,82,ITC,loss,5,right,12,ITC_outcome,0,undefined,0,0,312,248968,1435746
15,19,female,Belgian,3,83,guess,neutral,5,left,2,guess_start,531,space,0,0,312,248434,1436280
15,19,female,Belgian,3,83,guess,neutral,5,left,2,guess_choice,807,j,0,0,312,247624,1437090
15,19,female,Belgian,3,83,guess,neutral,5,left,2,guess_outcome,0,undefined,0,0,312,246068,1438646
15,19,female,Belgian,3,83,ITC,neutral,5,left,2,ITC_start,642,space,0,0,312,245424,1439290
15,19,female,Belgian,3,83,ITC,neutral,5,left,2,ITC_choice,2964,f,0,0,312,242459,1442255
15,19,female,Belgian,3,83,ITC,neutral,5,left,2,ITC_wait,0,undefined,0,0,312,237456,1447258
15,19,female,Belgian,3,83,ITC,neutral,5,left,2,ITC_collect,634,k,0,0,312,236820,1447894
15,19,female,Belgian,3,83,ITC,neutral,5,left,2,ITC_outcome,0,undefined,0,0,332,235814,1448900
15,19,female,Belgian,3,84,guess,loss,10,left,2,guess_start,520,space,0,0,332,235292,1449422
15,19,female,Belgian,3,84,guess,loss,10,left,2,guess_choice,572,f,0,0,332,234718,1449996
15,19,female,Belgian,3,84,guess,loss,10,left,2,guess_outcome,0,undefined,0,0,317,233162,1451552
15,19,female,Belgian,3,84,ITC,loss,10,left,2,ITC_start,751,space,0,0,317,232409,1452305
15,19,female,Belgian,3,84,ITC,loss,10,left,2,ITC_choice,708,f,0,0,317,231700,1453014
15,19,female,Belgian,3,84,ITC,loss,10,left,2,ITC_wait,0,undefined,0,0,317,221693,1463021
15,19,female,Belgian,3,84,ITC,loss,10,left,2,ITC_collect,427,k,0,0,317,221263,1463451
15,19,female,Belgian,3,84,ITC,loss,10,left,2,ITC_outcome,0,undefined,0,0,337,220256,1464458
15,19,female,Belgian,3,85,guess,neutral,5,right,12,guess_start,331,space,0,0,337,219922,1464792
15,19,female,Belgian,3,85,guess,neutral,5,right,12,guess_choice,535,j,0,0,337,219384,1465330
15,19,female,Belgian,3,85,guess,neutral,5,right,12,guess_outcome,0,undefined,0,0,337,217828,1466886
15,19,female,Belgian,3,85,ITC,neutral,5,right,12,ITC_start,377,space,0,0,337,217449,1467265
15,19,female,Belgian,3,85,ITC,neutral,5,right,12,ITC_choice,856,j,0,0,337,216591,1468123
15,19,female,Belgian,3,85,ITC,neutral,5,right,12,ITC_wait,0,undefined,0,0,337,211584,1473130
15,19,female,Belgian,3,85,ITC,neutral,5,right,12,ITC_collect,597,k,0,0,337,210984,1473730
15,19,female,Belgian,3,85,ITC,neutral,5,right,12,ITC_outcome,0,undefined,0,0,357,209979,1474735
15,19,female,Belgian,3,86,guess,loss,5,left,14,guess_start,1013,space,0,0,357,208963,1475751
15,19,female,Belgian,3,86,guess,loss,5,left,14,guess_choice,901,j,0,0,357,208059,1476655
15,19,female,Belgian,3,86,guess,loss,5,left,14,guess_outcome,0,undefined,0,0,342,206501,1478213
15,19,female,Belgian,3,86,ITC,loss,5,left,14,ITC_start,842,space,0,0,342,205656,1479058
15,19,female,Belgian,3,86,ITC,loss,5,left,14,ITC_choice,626,f,0,0,342,205028,1479686
15,19,female,Belgian,3,86,ITC,loss,5,left,14,ITC_wait,0,undefined,0,0,342,200026,1484688
15,19,female,Belgian,3,86,ITC,loss,5,left,14,ITC_collect,991,k,0,0,342,199033,1485681
15,19,female,Belgian,3,86,ITC,loss,5,left,14,ITC_outcome,0,undefined,0,0,362,198026,1486688
15,19,female,Belgian,3,87,guess,win,5,right,16,guess_start,445,space,0,0,362,197578,1487136
15,19,female,Belgian,3,87,guess,win,5,right,16,guess_choice,715,f,0,0,362,196860,1487854
15,19,female,Belgian,3,87,guess,win,5,right,16,guess_outcome,0,undefined,0,0,382,195304,1489410
15,19,female,Belgian,3,87,ITC,win,5,right,16,ITC_start,584,space,0,0,382,194718,1489996
15,19,female,Belgian,3,87,ITC,win,5,right,16,ITC_choice,1216,j,0,0,382,193500,1491214
15,19,female,Belgian,3,87,ITC,win,5,right,16,ITC_wait,0,undefined,0,0,382,188498,1496216
15,19,female,Belgian,3,87,ITC,win,5,right,16,ITC_collect,608,k,0,0,382,187887,1496827
15,19,female,Belgian,3,87,ITC,win,5,right,16,ITC_outcome,0,undefined,0,0,402,186881,1497833
15,19,female,Belgian,3,88,guess,neutral,5,left,3,guess_start,412,space,0,0,402,186465,1498249
15,19,female,Belgian,3,88,guess,neutral,5,left,3,guess_choice,730,f,0,0,402,185732,1498982
15,19,female,Belgian,3,88,guess,neutral,5,left,3,guess_outcome,0,undefined,0,0,402,184176,1500538
15,19,female,Belgian,3,88,ITC,neutral,5,left,3,ITC_start,1060,space,0,0,402,183114,1501600
15,19,female,Belgian,3,88,ITC,neutral,5,left,3,ITC_choice,1179,f,0,0,402,181933,1502781
15,19,female,Belgian,3,88,ITC,neutral,5,left,3,ITC_wait,0,undefined,0,0,402,176926,1507788
15,19,female,Belgian,3,88,ITC,neutral,5,left,3,ITC_collect,442,k,0,0,402,176482,1508232
15,19,female,Belgian,3,88,ITC,neutral,5,left,3,ITC_outcome,0,undefined,0,0,422,175479,1509235
15,19,female,Belgian,3,89,guess,neutral,5,left,9,guess_start,433,space,0,0,422,175044,1509670
15,19,female,Belgian,3,89,guess,neutral,5,left,9,guess_choice,604,f,0,0,422,174436,1510278
15,19,female,Belgian,3,89,guess,neutral,5,left,9,guess_outcome,0,undefined,0,0,422,172879,1511835
15,19,female,Belgian,3,89,ITC,neutral,5,left,9,ITC_start,370,space,0,0,422,172506,1512208
15,19,female,Belgian,3,89,ITC,neutral,5,left,9,ITC_choice,844,f,0,0,422,171661,1513053
15,19,female,Belgian,3,89,ITC,neutral,5,left,9,ITC_wait,0,undefined,0,0,422,166658,1518056
15,19,female,Belgian,3,89,ITC,neutral,5,left,9,ITC_collect,477,k,0,0,422,166177,1518537
15,19,female,Belgian,3,89,ITC,neutral,5,left,9,ITC_outcome,0,undefined,0,0,442,165170,1519544
15,19,female,Belgian,3,90,guess,loss,5,left,16,guess_start,943,space,0,0,442,164224,1520490
15,19,female,Belgian,3,90,guess,loss,5,left,16,guess_choice,1227,j,0,0,442,162994,1521720
15,19,female,Belgian,3,90,guess,loss,5,left,16,guess_outcome,0,undefined,0,0,427,161436,1523278
15,19,female,Belgian,3,90,ITC,loss,5,left,16,ITC_start,622,space,0,0,427,160811,1523903
15,19,female,Belgian,3,90,ITC,loss,5,left,16,ITC_choice,763,f,0,0,427,160046,1524668
15,19,female,Belgian,3,90,ITC,loss,5,left,16,ITC_wait,0,undefined,0,0,427,155044,1529670
15,19,female,Belgian,3,90,ITC,loss,5,left,16,ITC_collect,2160,k,0,0,427,152881,1531833
15,19,female,Belgian,3,90,ITC,loss,5,left,16,ITC_outcome,0,undefined,0,0,447,151875,1532839
15,19,female,Belgian,3,91,guess,win,10,right,3,guess_start,500,space,0,0,447,151372,1533342
15,19,female,Belgian,3,91,guess,win,10,right,3,guess_choice,652,j,0,0,447,150717,1533997
15,19,female,Belgian,3,91,guess,win,10,right,3,guess_outcome,0,undefined,0,0,467,149158,1535556
15,19,female,Belgian,3,91,ITC,win,10,right,3,ITC_start,394,space,0,0,467,148762,1535952
15,19,female,Belgian,3,91,ITC,win,10,right,3,ITC_choice,974,j,0,0,467,147786,1536928
15,19,female,Belgian,3,91,ITC,win,10,right,3,ITC_wait,0,undefined,0,0,467,137779,1546935
15,19,female,Belgian,3,91,ITC,win,10,right,3,ITC_collect,391,k,0,0,467,137385,1547329
15,19,female,Belgian,3,91,ITC,win,10,right,3,ITC_outcome,0,undefined,0,0,487,136378,1548336
15,19,female,Belgian,3,92,guess,loss,5,right,15,guess_start,494,space,0,0,487,135881,1548833
15,19,female,Belgian,3,92,guess,loss,5,right,15,guess_choice,608,f,0,0,487,135270,1549444
15,19,female,Belgian,3,92,guess,loss,5,right,15,guess_outcome,0,undefined,0,0,472,133713,1551001
15,19,female,Belgian,3,92,ITC,loss,5,right,15,ITC_start,520,space,0,0,472,133191,1551523
15,19,female,Belgian,3,92,ITC,loss,5,right,15,ITC_choice,550,j,0,0,472,132640,1552074
15,19,female,Belgian,3,92,ITC,loss,5,right,15,ITC_wait,0,undefined,0,0,472,127635,1557079
15,19,female,Belgian,3,92,ITC,loss,5,right,15,ITC_collect,549,k,0,0,472,127084,1557630
15,19,female,Belgian,3,92,ITC,loss,5,right,15,ITC_outcome,0,undefined,0,0,492,126081,1558633
15,19,female,Belgian,3,93,guess,loss,5,left,2,guess_start,833,space,0,0,492,125246,1559468
15,19,female,Belgian,3,93,guess,loss,5,left,2,guess_choice,1249,f,0,0,492,123993,1560721
15,19,female,Belgian,3,93,guess,loss,5,left,2,guess_outcome,0,undefined,0,0,477,122438,1562276
15,19,female,Belgian,3,93,ITC,loss,5,left,2,ITC_start,512,space,0,0,477,121925,1562789
15,19,female,Belgian,3,93,ITC,loss,5,left,2,ITC_choice,847,f,0,0,477,121076,1563638
15,19,female,Belgian,3,93,ITC,loss,5,left,2,ITC_wait,0,undefined,0,0,477,116073,1568641
15,19,female,Belgian,3,93,ITC,loss,5,left,2,ITC_collect,1354,k,0,0,477,114717,1569997
15,19,female,Belgian,3,93,ITC,loss,5,left,2,ITC_outcome,0,undefined,0,0,497,113715,1570999
15,19,female,Belgian,3,94,guess,win,5,right,1,guess_start,745,space,0,0,497,112968,1571746
15,19,female,Belgian,3,94,guess,win,5,right,1,guess_choice,813,j,0,0,497,112153,1572561
15,19,female,Belgian,3,94,guess,win,5,right,1,guess_outcome,0,undefined,0,0,517,110596,1574118
15,19,female,Belgian,3,94,ITC,win,5,right,1,ITC_start,1331,space,0,0,517,109263,1575451
15,19,female,Belgian,3,94,ITC,win,5,right,1,ITC_choice,1081,j,0,0,517,108180,1576534
15,19,female,Belgian,3,94,ITC,win,5,right,1,ITC_wait,0,undefined,0,0,517,103177,1581537
15,19,female,Belgian,3,94,ITC,win,5,right,1,ITC_collect,392,k,0,0,517,102783,1581931
15,19,female,Belgian,3,94,ITC,win,5,right,1,ITC_outcome,0,undefined,0,0,537,101776,1582938
15,19,female,Belgian,3,95,guess,neutral,10,left,2,guess_start,345,space,0,0,537,101428,1583286
15,19,female,Belgian,3,95,guess,neutral,10,left,2,guess_choice,623,j,0,0,537,100801,1583913
15,19,female,Belgian,3,95,guess,neutral,10,left,2,guess_outcome,0,undefined,0,0,537,99245,1585469
15,19,female,Belgian,3,95,ITC,neutral,10,left,2,ITC_start,389,space,0,0,537,98854,1585860
15,19,female,Belgian,3,95,ITC,neutral,10,left,2,ITC_choice,1110,f,0,0,537,97743,1586971
15,19,female,Belgian,3,95,ITC,neutral,10,left,2,ITC_wait,0,undefined,0,0,537,87736,1596978
15,19,female,Belgian,3,95,ITC,neutral,10,left,2,ITC_collect,425,k,0,0,537,87308,1597406
15,19,female,Belgian,3,95,ITC,neutral,10,left,2,ITC_outcome,0,undefined,0,0,557,86302,1598412
15,19,female,Belgian,3,96,guess,loss,5,right,10,guess_start,541,space,0,0,557,85759,1598955
15,19,female,Belgian,3,96,guess,loss,5,right,10,guess_choice,876,f,0,0,557,84880,1599834
15,19,female,Belgian,3,96,guess,loss,5,right,10,guess_outcome,0,undefined,0,0,542,83322,1601392
15,19,female,Belgian,3,96,ITC,loss,5,right,10,ITC_start,535,space,0,0,542,82785,1601929
15,19,female,Belgian,3,96,ITC,loss,5,right,10,ITC_choice,726,j,0,0,542,82057,1602657
15,19,female,Belgian,3,96,ITC,loss,5,right,10,ITC_wait,0,undefined,0,0,542,77051,1607663
15,19,female,Belgian,3,96,ITC,loss,5,right,10,ITC_collect,1058,k,0,0,542,75991,1608723
15,19,female,Belgian,3,96,ITC,loss,5,right,10,ITC_outcome,0,undefined,0,0,562,74985,1609729
15,19,female,Belgian,3,97,guess,win,10,left,4,guess_start,565,space,0,0,562,74417,1610297
15,19,female,Belgian,3,97,guess,win,10,left,4,guess_choice,783,j,0,0,562,73630,1611084
15,19,female,Belgian,3,97,guess,win,10,left,4,guess_outcome,0,undefined,0,0,582,72074,1612640
15,19,female,Belgian,3,97,ITC,win,10,left,4,ITC_start,557,space,0,0,582,71515,1613199
15,19,female,Belgian,3,97,ITC,win,10,left,4,ITC_choice,1060,f,0,0,582,70452,1614262
15,19,female,Belgian,3,97,ITC,win,10,left,4,ITC_wait,0,undefined,0,0,582,60449,1624265
15,19,female,Belgian,3,97,ITC,win,10,left,4,ITC_collect,324,k,0,0,582,60122,1624592
15,19,female,Belgian,3,97,ITC,win,10,left,4,ITC_outcome,0,undefined,0,0,602,59117,1625597
15,19,female,Belgian,3,98,guess,win,5,left,7,guess_start,645,space,0,0,602,58470,1626244
15,19,female,Belgian,3,98,guess,win,5,left,7,guess_choice,698,f,0,0,602,57768,1626946
15,19,female,Belgian,3,98,guess,win,5,left,7,guess_outcome,0,undefined,0,0,622,56210,1628504
15,19,female,Belgian,3,98,ITC,win,5,left,7,ITC_start,805,space,0,0,622,55403,1629311
15,19,female,Belgian,3,98,ITC,win,5,left,7,ITC_choice,1951,f,0,0,622,53451,1631263
15,19,female,Belgian,3,98,ITC,win,5,left,7,ITC_wait,0,undefined,0,0,622,48444,1636270
15,19,female,Belgian,3,98,ITC,win,5,left,7,ITC_collect,1083,k,0,0,622,47358,1637356
15,19,female,Belgian,3,98,ITC,win,5,left,7,ITC_outcome,0,undefined,0,0,642,46352,1638362
15,19,female,Belgian,3,99,guess,neutral,5,right,5,guess_start,744,space,0,0,642,45606,1639108
15,19,female,Belgian,3,99,guess,neutral,5,right,5,guess_choice,814,j,0,0,642,44788,1639926
15,19,female,Belgian,3,99,guess,neutral,5,right,5,guess_outcome,0,undefined,0,0,642,43231,1641483
15,19,female,Belgian,3,99,ITC,neutral,5,right,5,ITC_start,491,space,0,0,642,42739,1641975
15,19,female,Belgian,3,99,ITC,neutral,5,right,5,ITC_choice,719,j,0,0,642,42018,1642696
15,19,female,Belgian,3,99,ITC,neutral,5,right,5,ITC_wait,0,undefined,0,0,642,37011,1647703
15,19,female,Belgian,3,99,ITC,neutral,5,right,5,ITC_collect,942,k,0,0,642,36066,1648648
15,19,female,Belgian,3,99,ITC,neutral,5,right,5,ITC_outcome,0,undefined,0,0,662,35060,1649654
15,19,female,Belgian,3,100,guess,win,5,left,3,guess_start,367,space,0,0,662,34690,1650024
15,19,female,Belgian,3,100,guess,win,5,left,3,guess_choice,767,f,0,0,662,33920,1650794
15,19,female,Belgian,3,100,guess,win,5,left,3,guess_outcome,0,undefined,0,0,682,32361,1652353
15,19,female,Belgian,3,100,ITC,win,5,left,3,ITC_start,588,space,0,0,682,31770,1652944
15,19,female,Belgian,3,100,ITC,win,5,left,3,ITC_choice,863,f,0,0,682,30906,1653808
15,19,female,Belgian,3,100,ITC,win,5,left,3,ITC_wait,0,undefined,0,0,682,25899,1658815
15,19,female,Belgian,3,100,ITC,win,5,left,3,ITC_collect,594,k,0,0,682,25302,1659412
15,19,female,Belgian,3,100,ITC,win,5,left,3,ITC_outcome,0,undefined,0,0,702,24295,1660419
15,19,female,Belgian,3,101,guess,loss,10,right,8,guess_start,398,space,0,0,702,23895,1660819
15,19,female,Belgian,3,101,guess,loss,10,right,8,guess_choice,634,f,0,0,702,23258,1661456
15,19,female,Belgian,3,101,guess,loss,10,right,8,guess_outcome,0,undefined,0,0,687,21703,1663011
15,19,female,Belgian,3,101,ITC,loss,10,right,8,ITC_start,393,space,0,0,687,21308,1663406
15,19,female,Belgian,3,101,ITC,loss,10,right,8,ITC_choice,625,j,0,0,687,20681,1664033
15,19,female,Belgian,3,101,ITC,loss,10,right,8,ITC_wait,0,undefined,0,0,687,10675,1674039
15,19,female,Belgian,3,101,ITC,loss,10,right,8,ITC_collect,401,k,0,0,687,10272,1674442
15,19,female,Belgian,3,101,ITC,loss,10,right,8,ITC_outcome,0,undefined,0,0,707,9266,1675448
15,19,female,Belgian,3,102,guess,win,5,right,15,guess_start,321,space,0,0,707,8942,1675772
15,19,female,Belgian,3,102,guess,win,5,right,15,guess_choice,811,f,0,0,707,8128,1676586
15,19,female,Belgian,3,102,guess,win,5,right,15,guess_outcome,0,undefined,0,0,727,6569,1678145
15,19,female,Belgian,3,102,ITC,win,5,right,15,ITC_start,323,space,0,0,727,6244,1678470
15,19,female,Belgian,3,102,ITC,win,5,right,15,ITC_choice,580,j,0,0,727,5662,1679052
15,19,female,Belgian,3,102,ITC,win,5,right,15,ITC_wait,0,undefined,0,0,727,656,1684058
15,19,female,Belgian,3,102,ITC,win,5,right,15,ITC_collect,400,k,0,0,727,253,1684461
15,19,female,Belgian,3,102,ITC,win,5,right,15,ITC_outcome,0,undefined,0,0,747,-7,1684721
15,19,female,Belgian,4,103,guess,win,5,right,4,guess_start,791,space,0,0,0,479208,1696167
15,19,female,Belgian,4,103,guess,win,5,right,4,guess_choice,532,f,0,0,0,478673,1696702
15,19,female,Belgian,4,103,guess,win,5,right,4,guess_outcome,0,undefined,0,0,20,477118,1698257
15,19,female,Belgian,4,103,ITC,win,5,right,4,ITC_start,548,space,0,0,20,476568,1698807
15,19,female,Belgian,4,103,ITC,win,5,right,4,ITC_choice,650,j,0,0,20,475916,1699459
15,19,female,Belgian,4,103,ITC,win,5,right,4,ITC_wait,0,undefined,0,0,20,470909,1704466
15,19,female,Belgian,4,103,ITC,win,5,right,4,ITC_collect,75,k,0,0,20,470832,1704543
15,19,female,Belgian,4,103,ITC,win,5,right,4,ITC_outcome,0,undefined,0,0,40,469825,1705550
15,19,female,Belgian,4,104,guess,win,5,left,8,guess_start,613,space,0,0,40,469210,1706165
15,19,female,Belgian,4,104,guess,win,5,left,8,guess_choice,799,j,0,0,40,468408,1706967
15,19,female,Belgian,4,104,guess,win,5,left,8,guess_outcome,0,undefined,0,0,60,466851,1708524
15,19,female,Belgian,4,104,ITC,win,5,left,8,ITC_start,675,space,0,0,60,466174,1709201
15,19,female,Belgian,4,104,ITC,win,5,left,8,ITC_choice,1033,f,0,0,60,465139,1710236
15,19,female,Belgian,4,104,ITC,win,5,left,8,ITC_wait,0,undefined,0,0,60,460137,1715238
15,19,female,Belgian,4,104,ITC,win,5,left,8,ITC_collect,400,k,0,0,60,459735,1715640
15,19,female,Belgian,4,104,ITC,win,5,left,8,ITC_outcome,0,undefined,0,0,80,458729,1716646
15,19,female,Belgian,4,105,guess,neutral,5,left,8,guess_start,362,space,0,0,80,458365,1717010
15,19,female,Belgian,4,105,guess,neutral,5,left,8,guess_choice,1095,j,0,0,80,457267,1718108
15,19,female,Belgian,4,105,guess,neutral,5,left,8,guess_outcome,0,undefined,0,0,80,455708,1719667
15,19,female,Belgian,4,105,ITC,neutral,5,left,8,ITC_start,685,space,0,0,80,455021,1720354
15,19,female,Belgian,4,105,ITC,neutral,5,left,8,ITC_choice,1252,f,0,0,80,453768,1721607
15,19,female,Belgian,4,105,ITC,neutral,5,left,8,ITC_wait,0,undefined,0,0,80,448763,1726612
15,19,female,Belgian,4,105,ITC,neutral,5,left,8,ITC_collect,428,k,0,0,80,448333,1727042
15,19,female,Belgian,4,105,ITC,neutral,5,left,8,ITC_outcome,0,undefined,0,0,100,447329,1728046
15,19,female,Belgian,4,106,guess,win,10,left,7,guess_start,690,space,0,0,100,446637,1728738
15,19,female,Belgian,4,106,guess,win,10,left,7,guess_choice,447,j,0,0,100,446187,1729188
15,19,female,Belgian,4,106,guess,win,10,left,7,guess_outcome,0,undefined,0,0,120,444633,1730742
15,19,female,Belgian,4,106,ITC,win,10,left,7,ITC_start,665,space,0,0,120,443966,1731409
15,19,female,Belgian,4,106,ITC,win,10,left,7,ITC_choice,660,f,0,0,120,443305,1732070
15,19,female,Belgian,4,106,ITC,win,10,left,7,ITC_wait,0,undefined,0,0,120,433277,1742098
15,19,female,Belgian,4,106,ITC,win,10,left,7,ITC_collect,495,k,0,0,120,432781,1742594
15,19,female,Belgian,4,106,ITC,win,10,left,7,ITC_outcome,0,undefined,0,0,140,431775,1743600
15,19,female,Belgian,4,107,guess,win,5,right,11,guess_start,399,space,0,0,140,431374,1744001
15,19,female,Belgian,4,107,guess,win,5,right,11,guess_choice,632,f,0,0,140,430739,1744636
15,19,female,Belgian,4,107,guess,win,5,right,11,guess_outcome,0,undefined,0,0,160,429184,1746191
15,19,female,Belgian,4,107,ITC,win,5,right,11,ITC_start,834,space,0,0,160,428348,1747027
15,19,female,Belgian,4,107,ITC,win,5,right,11,ITC_choice,1429,j,0,0,160,426917,1748458
15,19,female,Belgian,4,107,ITC,win,5,right,11,ITC_wait,0,undefined,0,0,160,421914,1753461
15,19,female,Belgian,4,107,ITC,win,5,right,11,ITC_collect,422,k,0,0,160,421489,1753886
15,19,female,Belgian,4,107,ITC,win,5,right,11,ITC_outcome,0,undefined,0,0,180,420483,1754892
15,19,female,Belgian,4,108,guess,neutral,5,left,6,guess_start,802,space,0,0,180,419678,1755697
15,19,female,Belgian,4,108,guess,neutral,5,left,6,guess_choice,636,f,0,0,180,419040,1756335
15,19,female,Belgian,4,108,guess,neutral,5,left,6,guess_outcome,0,undefined,0,0,180,417482,1757893
15,19,female,Belgian,4,108,ITC,neutral,5,left,6,ITC_start,735,space,0,0,180,416744,1758631
15,19,female,Belgian,4,108,ITC,neutral,5,left,6,ITC_choice,720,f,0,0,180,416022,1759353
15,19,female,Belgian,4,108,ITC,neutral,5,left,6,ITC_wait,0,undefined,0,0,180,411015,1764360
15,19,female,Belgian,4,108,ITC,neutral,5,left,6,ITC_collect,750,k,0,0,180,410263,1765112
15,19,female,Belgian,4,108,ITC,neutral,5,left,6,ITC_outcome,0,undefined,0,0,200,409257,1766118
15,19,female,Belgian,4,109,guess,neutral,10,left,4,guess_start,1206,space,0,0,200,408049,1767326
15,19,female,Belgian,4,109,guess,neutral,10,left,4,guess_choice,860,f,0,0,200,407185,1768190
15,19,female,Belgian,4,109,guess,neutral,10,left,4,guess_outcome,0,undefined,0,0,200,405627,1769748
15,19,female,Belgian,4,109,ITC,neutral,10,left,4,ITC_start,409,space,0,0,200,405216,1770159
15,19,female,Belgian,4,109,ITC,neutral,10,left,4,ITC_choice,645,f,0,0,200,404569,1770806
15,19,female,Belgian,4,109,ITC,neutral,10,left,4,ITC_wait,0,undefined,0,0,200,394563,1780812
15,19,female,Belgian,4,109,ITC,neutral,10,left,4,ITC_collect,495,k,0,0,200,394066,1781309
15,19,female,Belgian,4,109,ITC,neutral,10,left,4,ITC_outcome,0,undefined,0,0,220,393063,1782312
15,19,female,Belgian,4,110,guess,win,5,left,10,guess_start,626,space,0,0,220,392435,1782940
15,19,female,Belgian,4,110,guess,win,5,left,10,guess_choice,517,j,0,0,220,391915,1783460
15,19,female,Belgian,4,110,guess,win,5,left,10,guess_outcome,0,undefined,0,0,240,390357,1785018
15,19,female,Belgian,4,110,ITC,win,5,left,10,ITC_start,740,space,0,0,240,389615,1785760
15,19,female,Belgian,4,110,ITC,win,5,left,10,ITC_choice,1129,f,0,0,240,388484,1786891
15,19,female,Belgian,4,110,ITC,win,5,left,10,ITC_wait,0,undefined,0,0,240,383478,1791897
15,19,female,Belgian,4,110,ITC,win,5,left,10,ITC_collect,860,k,0,0,240,382616,1792759
15,19,female,Belgian,4,110,ITC,win,5,left,10,ITC_outcome,0,undefined,0,0,260,381610,1793765
15,19,female,Belgian,4,111,guess,win,10,left,6,guess_start,338,space,0,0,260,381270,1794105
15,19,female,Belgian,4,111,guess,win,10,left,6,guess_choice,570,f,0,0,260,380696,1794679
15,19,female,Belgian,4,111,guess,win,10,left,6,guess_outcome,0,undefined,0,0,280,379139,1796236
15,19,female,Belgian,4,111,ITC,win,10,left,6,ITC_start,411,space,0,0,280,378725,1796650
15,19,female,Belgian,4,111,ITC,win,10,left,6,ITC_choice,668,f,0,0,280,378055,1797320
15,19,female,Belgian,4,111,ITC,win,10,left,6,ITC_wait,0,undefined,0,0,280,368052,1807323
15,19,female,Belgian,4,111,ITC,win,10,left,6,ITC_collect,586,k,0,0,280,367464,1807911
15,19,female,Belgian,4,111,ITC,win,10,left,6,ITC_outcome,0,undefined,0,0,300,366460,1808915
15,19,female,Belgian,4,112,guess,neutral,5,left,15,guess_start,337,space,0,0,300,366121,1809254
15,19,female,Belgian,4,112,guess,neutral,5,left,15,guess_choice,520,j,0,0,300,365598,1809777
15,19,female,Belgian,4,112,guess,neutral,5,left,15,guess_outcome,0,undefined,0,0,300,364044,1811331
15,19,female,Belgian,4,112,ITC,neutral,5,left,15,ITC_start,655,space,0,0,300,363387,1811988
15,19,female,Belgian,4,112,ITC,neutral,5,left,15,ITC_choice,650,f,0,0,300,362735,1812640
15,19,female,Belgian,4,112,ITC,neutral,5,left,15,ITC_wait,0,undefined,0,0,300,357732,1817643
15,19,female,Belgian,4,112,ITC,neutral,5,left,15,ITC_collect,699,k,0,0,300,357030,1818345
15,19,female,Belgian,4,112,ITC,neutral,5,left,15,ITC_outcome,0,undefined,0,0,320,356027,1819348
15,19,female,Belgian,4,113,guess,win,5,left,6,guess_start,745,space,0,0,320,355279,1820096
15,19,female,Belgian,4,113,guess,win,5,left,6,guess_choice,543,f,0,0,320,354732,1820643
15,19,female,Belgian,4,113,guess,win,5,left,6,guess_outcome,0,undefined,0,0,340,353174,1822201
15,19,female,Belgian,4,113,ITC,win,5,left,6,ITC_start,414,space,0,0,340,352759,1822616
15,19,female,Belgian,4,113,ITC,win,5,left,6,ITC_choice,1055,f,0,0,340,351702,1823673
15,19,female,Belgian,4,113,ITC,win,5,left,6,ITC_wait,0,undefined,0,0,340,346697,1828678
15,19,female,Belgian,4,113,ITC,win,5,left,6,ITC_collect,635,k,0,0,340,346059,1829316
15,19,female,Belgian,4,113,ITC,win,5,left,6,ITC_outcome,0,undefined,0,0,360,345052,1830323
15,19,female,Belgian,4,114,guess,win,5,left,5,guess_start,711,space,0,0,360,344338,1831037
15,19,female,Belgian,4,114,guess,win,5,left,5,guess_choice,519,f,0,0,360,343815,1831560
15,19,female,Belgian,4,114,guess,win,5,left,5,guess_outcome,0,undefined,0,0,380,342257,1833118
15,19,female,Belgian,4,114,ITC,win,5,left,5,ITC_start,586,space,0,0,380,341669,1833706
15,19,female,Belgian,4,114,ITC,win,5,left,5,ITC_choice,957,f,0,0,380,340711,1834664
15,19,female,Belgian,4,114,ITC,win,5,left,5,ITC_wait,0,undefined,0,0,380,335706,1839669
15,19,female,Belgian,4,114,ITC,win,5,left,5,ITC_collect,590,k,0,0,380,335113,1840262
15,19,female,Belgian,4,114,ITC,win,5,left,5,ITC_outcome,0,undefined,0,0,400,334107,1841268
15,19,female,Belgian,4,115,guess,loss,5,left,8,guess_start,554,space,0,0,400,333550,1841825
15,19,female,Belgian,4,115,guess,loss,5,left,8,guess_choice,1383,f,0,0,400,332163,1843212
15,19,female,Belgian,4,115,guess,loss,5,left,8,guess_outcome,0,undefined,0,0,385,330605,1844770
15,19,female,Belgian,4,115,ITC,loss,5,left,8,ITC_start,694,space,0,0,385,329908,1845467
15,19,female,Belgian,4,115,ITC,loss,5,left,8,ITC_choice,956,f,0,0,385,328950,1846425
15,19,female,Belgian,4,115,ITC,loss,5,left,8,ITC_wait,0,undefined,0,0,385,323943,1851432
15,19,female,Belgian,4,115,ITC,loss,5,left,8,ITC_collect,400,k,0,0,385,323540,1851835
15,19,female,Belgian,4,115,ITC,loss,5,left,8,ITC_outcome,0,undefined,0,0,405,322534,1852841
15,19,female,Belgian,4,116,guess,loss,5,left,3,guess_start,461,space,0,0,405,322070,1853305
15,19,female,Belgian,4,116,guess,loss,5,left,3,guess_choice,632,j,0,0,405,321435,1853940
15,19,female,Belgian,4,116,guess,loss,5,left,3,guess_outcome,0,undefined,0,0,390,319879,1855496
15,19,female,Belgian,4,116,ITC,loss,5,left,3,ITC_start,466,space,0,0,390,319411,1855964
15,19,female,Belgian,4,116,ITC,loss,5,left,3,ITC_choice,1102,f,0,0,390,318307,1857068
15,19,female,Belgian,4,116,ITC,loss,5,left,3,ITC_wait,0,undefined,0,0,390,313304,1862071
15,19,female,Belgian,4,116,ITC,loss,5,left,3,ITC_collect,980,k,0,0,390,312322,1863053
15,19,female,Belgian,4,116,ITC,loss,5,left,3,ITC_outcome,0,undefined,0,0,410,311316,1864059
15,19,female,Belgian,4,117,guess,win,10,right,1,guess_start,375,space,0,0,410,310938,1864437
15,19,female,Belgian,4,117,guess,win,10,right,1,guess_choice,334,f,0,0,410,310599,1864776
15,19,female,Belgian,4,117,guess,win,10,right,1,guess_outcome,0,undefined,0,0,430,309044,1866331
15,19,female,Belgian,4,117,ITC,win,10,right,1,ITC_start,380,space,0,0,430,308661,1866714
15,19,female,Belgian,4,117,ITC,win,10,right,1,ITC_choice,816,j,0,0,430,307843,1867532
15,19,female,Belgian,4,117,ITC,win,10,right,1,ITC_wait,0,undefined,0,0,430,297836,1877539
15,19,female,Belgian,4,117,ITC,win,10,right,1,ITC_collect,458,k,0,0,430,297375,1878000
15,19,female,Belgian,4,117,ITC,win,10,right,1,ITC_outcome,0,undefined,0,0,450,296368,1879007
15,19,female,Belgian,4,118,guess,neutral,5,left,13,guess_start,732,space,0,0,450,295633,1879742
15,19,female,Belgian,4,118,guess,neutral,5,left,13,guess_choice,814,f,0,0,450,294817,1880558
15,19,female,Belgian,4,118,guess,neutral,5,left,13,guess_outcome,0,undefined,0,0,450,293263,1882112
15,19,female,Belgian,4,118,ITC,neutral,5,left,13,ITC_start,333,space,0,0,450,292927,1882448
15,19,female,Belgian,4,118,ITC,neutral,5,left,13,ITC_choice,555,f,0,0,450,292370,1883005
15,19,female,Belgian,4,118,ITC,neutral,5,left,13,ITC_wait,0,undefined,0,0,450,287364,1888011
15,19,female,Belgian,4,118,ITC,neutral,5,left,13,ITC_collect,569,k,0,0,450,286793,1888582
15,19,female,Belgian,4,118,ITC,neutral,5,left,13,ITC_outcome,0,undefined,0,0,470,285790,1889585
15,19,female,Belgian,4,119,guess,neutral,10,left,6,guess_start,323,space,0,0,470,285465,1889910
15,19,female,Belgian,4,119,guess,neutral,10,left,6,guess_choice,682,j,0,0,470,284780,1890595
15,19,female,Belgian,4,119,guess,neutral,10,left,6,guess_outcome,0,undefined,0,0,470,283222,1892153
15,19,female,Belgian,4,119,ITC,neutral,10,left,6,ITC_start,426,space,0,0,470,282793,1892582
15,19,female,Belgian,4,119,ITC,neutral,10,left,6,ITC_choice,885,f,0,0,470,281907,1893468
15,19,female,Belgian,4,119,ITC,neutral,10,left,6,ITC_wait,0,undefined,0,0,470,271900,1903475
15,19,female,Belgian,4,119,ITC,neutral,10,left,6,ITC_collect,716,k,0,0,470,271181,1904194
15,19,female,Belgian,4,119,ITC,neutral,10,left,6,ITC_outcome,0,undefined,0,0,490,270174,1905201
15,19,female,Belgian,4,120,guess,loss,10,left,3,guess_start,457,space,0,0,490,269714,1905661
15,19,female,Belgian,4,120,guess,loss,10,left,3,guess_choice,863,f,0,0,490,268849,1906526
15,19,female,Belgian,4,120,guess,loss,10,left,3,guess_outcome,0,undefined,0,0,475,267292,1908083
15,19,female,Belgian,4,120,ITC,loss,10,left,3,ITC_start,450,space,0,0,475,266840,1908535
15,19,female,Belgian,4,120,ITC,loss,10,left,3,ITC_choice,1105,f,0,0,475,265733,1909642
15,19,female,Belgian,4,120,ITC,loss,10,left,3,ITC_wait,0,undefined,0,0,475,255726,1919649
15,19,female,Belgian,4,120,ITC,loss,10,left,3,ITC_collect,570,k,0,0,475,255153,1920222
15,19,female,Belgian,4,120,ITC,loss,10,left,3,ITC_outcome,0,undefined,0,0,495,254147,1921228
15,19,female,Belgian,4,121,guess,loss,10,left,1,guess_start,323,space,0,0,495,253822,1921553
15,19,female,Belgian,4,121,guess,loss,10,left,1,guess_choice,779,f,0,0,495,253039,1922336
15,19,female,Belgian,4,121,guess,loss,10,left,1,guess_outcome,0,undefined,0,0,480,251485,1923890
15,19,female,Belgian,4,121,ITC,loss,10,left,1,ITC_start,378,space,0,0,480,251105,1924270
15,19,female,Belgian,4,121,ITC,loss,10,left,1,ITC_choice,886,f,0,0,480,250217,1925158
15,19,female,Belgian,4,121,ITC,loss,10,left,1,ITC_wait,0,undefined,0,0,480,240213,1935162
15,19,female,Belgian,4,121,ITC,loss,10,left,1,ITC_collect,531,k,0,0,480,239680,1935695
15,19,female,Belgian,4,121,ITC,loss,10,left,1,ITC_outcome,0,undefined,0,0,500,238674,1936701
15,19,female,Belgian,4,122,guess,loss,10,right,7,guess_start,495,space,0,0,500,238175,1937200
15,19,female,Belgian,4,122,guess,loss,10,right,7,guess_choice,728,f,0,0,500,237444,1937931
15,19,female,Belgian,4,122,guess,loss,10,right,7,guess_outcome,0,undefined,0,0,485,235889,1939486
15,19,female,Belgian,4,122,ITC,loss,10,right,7,ITC_start,408,space,0,0,485,235479,1939896
15,19,female,Belgian,4,122,ITC,loss,10,right,7,ITC_choice,1050,j,0,0,485,234427,1940948
15,19,female,Belgian,4,122,ITC,loss,10,right,7,ITC_wait,0,undefined,0,0,485,224423,1950952
15,19,female,Belgian,4,122,ITC,loss,10,right,7,ITC_collect,832,k,0,0,485,223589,1951786
15,19,female,Belgian,4,122,ITC,loss,10,right,7,ITC_outcome,0,undefined,0,0,505,222585,1952790
15,19,female,Belgian,4,123,guess,neutral,5,left,4,guess_start,641,space,0,0,505,221942,1953433
15,19,female,Belgian,4,123,guess,neutral,5,left,4,guess_choice,757,j,0,0,505,221181,1954194
15,19,female,Belgian,4,123,guess,neutral,5,left,4,guess_outcome,0,undefined,0,0,505,219622,1955753
15,19,female,Belgian,4,123,ITC,neutral,5,left,4,ITC_start,1157,space,0,0,505,218463,1956912
15,19,female,Belgian,4,123,ITC,neutral,5,left,4,ITC_choice,911,f,0,0,505,217550,1957825
15,19,female,Belgian,4,123,ITC,neutral,5,left,4,ITC_wait,0,undefined,0,0,505,212543,1962832
15,19,female,Belgian,4,123,ITC,neutral,5,left,4,ITC_collect,933,k,0,0,505,211608,1963767
15,19,female,Belgian,4,123,ITC,neutral,5,left,4,ITC_outcome,0,undefined,0,0,525,210602,1964773
15,19,female,Belgian,4,124,guess,loss,5,left,4,guess_start,910,space,0,0,525,209688,1965687
15,19,female,Belgian,4,124,guess,loss,5,left,4,guess_choice,1037,f,0,0,525,208648,1966727
15,19,female,Belgian,4,124,guess,loss,5,left,4,guess_outcome,0,undefined,0,0,510,207089,1968286
15,19,female,Belgian,4,124,ITC,loss,5,left,4,ITC_start,509,space,0,0,510,206578,1968797
15,19,female,Belgian,4,124,ITC,loss,5,left,4,ITC_choice,814,f,0,0,510,205762,1969613
15,19,female,Belgian,4,124,ITC,loss,5,left,4,ITC_wait,0,undefined,0,0,510,200759,1974616
15,19,female,Belgian,4,124,ITC,loss,5,left,4,ITC_collect,555,k,0,0,510,200201,1975174
15,19,female,Belgian,4,124,ITC,loss,5,left,4,ITC_outcome,0,undefined,0,0,530,199196,1976179
15,19,female,Belgian,4,125,guess,loss,5,left,11,guess_start,363,space,0,0,530,198830,1976545
15,19,female,Belgian,4,125,guess,loss,5,left,11,guess_choice,367,j,0,0,530,198460,1976915
15,19,female,Belgian,4,125,guess,loss,5,left,11,guess_outcome,0,undefined,0,0,515,196902,1978473
15,19,female,Belgian,4,125,ITC,loss,5,left,11,ITC_start,349,space,0,0,515,196551,1978824
15,19,female,Belgian,4,125,ITC,loss,5,left,11,ITC_choice,743,f,0,0,515,195806,1979569
15,19,female,Belgian,4,125,ITC,loss,5,left,11,ITC_wait,0,undefined,0,0,515,190800,1984575
15,19,female,Belgian,4,125,ITC,loss,5,left,11,ITC_collect,735,k,0,0,515,190063,1985312
15,19,female,Belgian,4,125,ITC,loss,5,left,11,ITC_outcome,0,undefined,0,0,535,189056,1986319
15,19,female,Belgian,4,126,guess,neutral,10,left,7,guess_start,420,space,0,0,535,188633,1986742
15,19,female,Belgian,4,126,guess,neutral,10,left,7,guess_choice,576,f,0,0,535,188054,1987321
15,19,female,Belgian,4,126,guess,neutral,10,left,7,guess_outcome,0,undefined,0,0,535,186498,1988877
15,19,female,Belgian,4,126,ITC,neutral,10,left,7,ITC_start,409,space,0,0,535,186086,1989289
15,19,female,Belgian,4,126,ITC,neutral,10,left,7,ITC_choice,879,f,0,0,535,185205,1990170
15,19,female,Belgian,4,126,ITC,neutral,10,left,7,ITC_wait,0,undefined,0,0,535,175198,2000177
15,19,female,Belgian,4,126,ITC,neutral,10,left,7,ITC_collect,589,k,0,0,535,174607,2000768
15,19,female,Belgian,4,126,ITC,neutral,10,left,7,ITC_outcome,0,undefined,0,0,555,173601,2001774
15,19,female,Belgian,4,127,guess,neutral,5,right,14,guess_start,445,space,0,0,555,173154,2002221
15,19,female,Belgian,4,127,guess,neutral,5,right,14,guess_choice,943,j,0,0,555,172207,2003168
15,19,female,Belgian,4,127,guess,neutral,5,right,14,guess_outcome,0,undefined,0,0,555,170649,2004726
15,19,female,Belgian,4,127,ITC,neutral,5,right,14,ITC_start,474,space,0,0,555,170173,2005202
15,19,female,Belgian,4,127,ITC,neutral,5,right,14,ITC_choice,1069,j,0,0,555,169102,2006273
15,19,female,Belgian,4,127,ITC,neutral,5,right,14,ITC_wait,0,undefined,0,0,555,164095,2011280
15,19,female,Belgian,4,127,ITC,neutral,5,right,14,ITC_collect,851,k,0,0,555,163241,2012134
15,19,female,Belgian,4,127,ITC,neutral,5,right,14,ITC_outcome,0,undefined,0,0,575,162237,2013138
15,19,female,Belgian,4,128,guess,win,10,left,8,guess_start,280,space,0,0,575,161955,2013420
15,19,female,Belgian,4,128,guess,win,10,left,8,guess_choice,713,j,0,0,575,161238,2014137
15,19,female,Belgian,4,128,guess,win,10,left,8,guess_outcome,0,undefined,0,0,595,159681,2015694
15,19,female,Belgian,4,128,ITC,win,10,left,8,ITC_start,474,space,0,0,595,159206,2016169
15,19,female,Belgian,4,128,ITC,win,10,left,8,ITC_choice,1164,f,0,0,595,158041,2017334
15,19,female,Belgian,4,128,ITC,win,10,left,8,ITC_wait,0,undefined,0,0,595,148034,2027341
15,19,female,Belgian,4,128,ITC,win,10,left,8,ITC_collect,478,k,0,0,595,147553,2027822
15,19,female,Belgian,4,128,ITC,win,10,left,8,ITC_outcome,0,undefined,0,0,615,146547,2028828
15,19,female,Belgian,4,129,guess,neutral,5,left,7,guess_start,518,space,0,0,615,146026,2029349
15,19,female,Belgian,4,129,guess,neutral,5,left,7,guess_choice,781,j,0,0,615,145242,2030133
15,19,female,Belgian,4,129,guess,neutral,5,left,7,guess_outcome,0,undefined,0,0,615,143686,2031689
15,19,female,Belgian,4,129,ITC,neutral,5,left,7,ITC_start,1791,space,0,0,615,141893,2033482
15,19,female,Belgian,4,129,ITC,neutral,5,left,7,ITC_choice,911,f,0,0,615,140980,2034395
15,19,female,Belgian,4,129,ITC,neutral,5,left,7,ITC_wait,0,undefined,0,0,615,135973,2039402
15,19,female,Belgian,4,129,ITC,neutral,5,left,7,ITC_collect,457,k,0,0,615,135514,2039861
15,19,female,Belgian,4,129,ITC,neutral,5,left,7,ITC_outcome,0,undefined,0,0,635,134511,2040864
15,19,female,Belgian,4,130,guess,neutral,5,left,1,guess_start,490,space,0,0,635,134018,2041357
15,19,female,Belgian,4,130,guess,neutral,5,left,1,guess_choice,648,j,0,0,635,133366,2042009
15,19,female,Belgian,4,130,guess,neutral,5,left,1,guess_outcome,0,undefined,0,0,635,131809,2043566
15,19,female,Belgian,4,130,ITC,neutral,5,left,1,ITC_start,327,space,0,0,635,131479,2043896
15,19,female,Belgian,4,130,ITC,neutral,5,left,1,ITC_choice,1644,f,0,0,635,129833,2045542
15,19,female,Belgian,4,130,ITC,neutral,5,left,1,ITC_wait,0,undefined,0,0,635,124827,2050548
15,19,female,Belgian,4,130,ITC,neutral,5,left,1,ITC_collect,643,k,0,0,635,124182,2051193
15,19,female,Belgian,4,130,ITC,neutral,5,left,1,ITC_outcome,0,undefined,0,0,655,123175,2052200
15,19,female,Belgian,4,131,guess,neutral,5,right,10,guess_start,398,space,0,0,655,122774,2052601
15,19,female,Belgian,4,131,guess,neutral,5,right,10,guess_choice,562,j,0,0,655,122209,2053166
15,19,female,Belgian,4,131,guess,neutral,5,right,10,guess_outcome,0,undefined,0,0,655,120653,2054722
15,19,female,Belgian,4,131,ITC,neutral,5,right,10,ITC_start,390,space,0,0,655,120261,2055114
15,19,female,Belgian,4,131,ITC,neutral,5,right,10,ITC_choice,608,j,0,0,655,119652,2055723
15,19,female,Belgian,4,131,ITC,neutral,5,right,10,ITC_wait,0,undefined,0,0,655,114645,2060730
15,19,female,Belgian,4,131,ITC,neutral,5,right,10,ITC_collect,521,k,0,0,655,114122,2061253
15,19,female,Belgian,4,131,ITC,neutral,5,right,10,ITC_outcome,0,undefined,0,0,675,113118,2062257
15,19,female,Belgian,4,132,guess,loss,5,left,7,guess_start,579,space,0,0,675,112537,2062838
15,19,female,Belgian,4,132,guess,loss,5,left,7,guess_choice,720,f,0,0,675,111813,2063562
15,19,female,Belgian,4,132,guess,loss,5,left,7,guess_outcome,0,undefined,0,0,660,110256,2065119
15,19,female,Belgian,4,132,ITC,loss,5,left,7,ITC_start,379,space,0,0,660,109875,2065500
15,19,female,Belgian,4,132,ITC,loss,5,left,7,ITC_choice,580,f,0,0,660,109292,2066083
15,19,female,Belgian,4,132,ITC,loss,5,left,7,ITC_wait,0,undefined,0,0,660,104286,2071089
15,19,female,Belgian,4,132,ITC,loss,5,left,7,ITC_collect,939,k,0,0,660,103344,2072031
15,19,female,Belgian,4,132,ITC,loss,5,left,7,ITC_outcome,0,undefined,0,0,680,102337,2073038
15,19,female,Belgian,4,133,guess,win,10,right,2,guess_start,403,space,0,0,680,101932,2073443
15,19,female,Belgian,4,133,guess,win,10,right,2,guess_choice,544,f,0,0,680,101384,2073991
15,19,female,Belgian,4,133,guess,win,10,right,2,guess_outcome,0,undefined,0,0,700,99825,2075550
15,19,female,Belgian,4,133,ITC,win,10,right,2,ITC_start,485,space,0,0,700,99338,2076037
15,19,female,Belgian,4,133,ITC,win,10,right,2,ITC_choice,630,j,0,0,700,98706,2076669
15,19,female,Belgian,4,133,ITC,win,10,right,2,ITC_wait,0,undefined,0,0,700,88699,2086676
15,19,female,Belgian,4,133,ITC,win,10,right,2,ITC_collect,368,k,0,0,700,88329,2087046
15,19,female,Belgian,4,133,ITC,win,10,right,2,ITC_outcome,0,undefined,0,0,720,87323,2088052
15,19,female,Belgian,4,134,guess,loss,5,right,13,guess_start,370,space,0,0,720,86948,2088427
15,19,female,Belgian,4,134,guess,loss,5,right,13,guess_choice,535,j,0,0,720,86410,2088965
15,19,female,Belgian,4,134,guess,loss,5,right,13,guess_outcome,0,undefined,0,0,705,84856,2090519
15,19,female,Belgian,4,134,ITC,loss,5,right,13,ITC_start,442,space,0,0,705,84412,2090963
15,19,female,Belgian,4,134,ITC,loss,5,right,13,ITC_choice,831,j,0,0,705,83580,2091795
15,19,female,Belgian,4,134,ITC,loss,5,right,13,ITC_wait,0,undefined,0,0,705,78577,2096798
15,19,female,Belgian,4,134,ITC,loss,5,right,13,ITC_collect,1443,k,0,0,705,77132,2098243
15,19,female,Belgian,4,134,ITC,loss,5,right,13,ITC_outcome,0,undefined,0,0,725,76124,2099251
15,19,female,Belgian,4,135,guess,neutral,5,left,11,guess_start,524,space,0,0,725,75597,2099778
15,19,female,Belgian,4,135,guess,neutral,5,left,11,guess_choice,579,f,0,0,725,75015,2100360
15,19,female,Belgian,4,135,guess,neutral,5,left,11,guess_outcome,0,undefined,0,0,725,73457,2101918
15,19,female,Belgian,4,135,ITC,neutral,5,left,11,ITC_start,330,space,0,0,725,73125,2102250
15,19,female,Belgian,4,135,ITC,neutral,5,left,11,ITC_choice,1294,f,0,0,725,71830,2103545
15,19,female,Belgian,4,135,ITC,neutral,5,left,11,ITC_wait,0,undefined,0,0,725,66823,2108552
15,19,female,Belgian,4,135,ITC,neutral,5,left,11,ITC_collect,428,k,0,0,725,66393,2108982
15,19,female,Belgian,4,135,ITC,neutral,5,left,11,ITC_outcome,0,undefined,0,0,745,65385,2109990
15,19,female,Belgian,4,136,guess,neutral,5,left,16,guess_start,377,space,0,0,745,65006,2110369
15,19,female,Belgian,4,136,guess,neutral,5,left,16,guess_choice,522,f,0,0,745,64481,2110894
15,19,female,Belgian,4,136,guess,neutral,5,left,16,guess_outcome,0,undefined,0,0,745,62927,2112448
15,19,female,Belgian,4,136,ITC,neutral,5,left,16,ITC_start,370,space,0,0,745,62555,2112820
15,19,female,Belgian,4,136,ITC,neutral,5,left,16,ITC_choice,926,f,0,0,745,61627,2113748
15,19,female,Belgian,4,136,ITC,neutral,5,left,16,ITC_wait,0,undefined,0,0,745,56621,2118754
15,19,female,Belgian,4,136,ITC,neutral,5,left,16,ITC_collect,480,k,0,0,745,56139,2119236
15,19,female,Belgian,4,136,ITC,neutral,5,left,16,ITC_outcome,0,undefined,0,0,765,55134,2120241
15,19,female,Belgian,4,137,guess,loss,5,left,1,guess_start,383,space,0,0,765,54748,2120627
15,19,female,Belgian,4,137,guess,loss,5,left,1,guess_choice,617,j,0,0,765,54128,2121247
15,19,female,Belgian,4,137,guess,loss,5,left,1,guess_outcome,0,undefined,0,0,750,52573,2122802
15,19,female,Belgian,4,137,ITC,loss,5,left,1,ITC_start,384,space,0,0,750,52187,2123188
15,19,female,Belgian,4,137,ITC,loss,5,left,1,ITC_choice,538,f,0,0,750,51647,2123728
15,19,female,Belgian,4,137,ITC,loss,5,left,1,ITC_wait,0,undefined,0,0,750,46642,2128733
15,19,female,Belgian,4,137,ITC,loss,5,left,1,ITC_collect,356,k,0,0,750,46284,2129091
15,19,female,Belgian,4,137,ITC,loss,5,left,1,ITC_outcome,0,undefined,0,0,770,45278,2130097
15,19,female,Belgian,4,138,guess,win,5,right,13,guess_start,502,space,0,0,770,44774,2130601
15,19,female,Belgian,4,138,guess,win,5,right,13,guess_choice,513,j,0,0,770,44257,2131118
15,19,female,Belgian,4,138,guess,win,5,right,13,guess_outcome,0,undefined,0,0,790,42702,2132673
15,19,female,Belgian,4,138,ITC,win,5,right,13,ITC_start,354,space,0,0,790,42345,2133030
15,19,female,Belgian,4,138,ITC,win,5,right,13,ITC_choice,527,j,0,0,790,41816,2133559
15,19,female,Belgian,4,138,ITC,win,5,right,13,ITC_wait,0,undefined,0,0,790,36810,2138565
15,19,female,Belgian,4,138,ITC,win,5,right,13,ITC_collect,1089,k,0,0,790,35718,2139657
15,19,female,Belgian,4,138,ITC,win,5,right,13,ITC_outcome,0,undefined,0,0,810,34712,2140663
15,19,female,Belgian,4,139,guess,win,5,right,14,guess_start,434,space,0,0,810,34274,2141101
15,19,female,Belgian,4,139,guess,win,5,right,14,guess_choice,466,j,0,0,810,33804,2141571
15,19,female,Belgian,4,139,guess,win,5,right,14,guess_outcome,0,undefined,0,0,830,32245,2143130
15,19,female,Belgian,4,139,ITC,win,5,right,14,ITC_start,419,space,0,0,830,31824,2143551
15,19,female,Belgian,4,139,ITC,win,5,right,14,ITC_choice,687,j,0,0,830,31134,2144241
15,19,female,Belgian,4,139,ITC,win,5,right,14,ITC_wait,0,undefined,0,0,830,26131,2149244
15,19,female,Belgian,4,139,ITC,win,5,right,14,ITC_collect,448,k,0,0,830,25681,2149694
15,19,female,Belgian,4,139,ITC,win,5,right,14,ITC_outcome,0,undefined,0,0,850,24675,2150700
15,19,female,Belgian,4,140,guess,loss,10,left,6,guess_start,472,space,0,0,850,24200,2151175
15,19,female,Belgian,4,140,guess,loss,10,left,6,guess_choice,824,f,0,0,850,23372,2152003
15,19,female,Belgian,4,140,guess,loss,10,left,6,guess_outcome,0,undefined,0,0,835,21813,2153562
