subjectID,age,gender,nationality,block_number,trial_number,trial_type,guess_outcome,delay_time,delay_pos,immediate_amount,stage,respRT,respKey,blur_count,focus_count,total_points,remaining_duration,time_elapsed
subjectID,age,gender,nationality,block_number,trial_number,trial_type,guess_outcome,delay_time,delay_pos,immediate_amount,stage,respRT,respKey,blur_count,focus_count,total_points,remaining_duration,time_elapsed
8,19,female,Belgian,1,1,guess,loss,5,left,15,guess_start,3107,space,0,0,0,476891,569041
8,19,female,Belgian,1,1,guess,loss,5,left,15,guess_choice,50788,f,0,0,0,426040,619892
8,19,female,Belgian,1,1,guess,loss,5,left,15,guess_outcome,0,undefined,0,0,-15,424483,621449
8,19,female,Belgian,1,1,ITC,loss,5,left,15,ITC_start,9095,space,0,0,-15,415386,630546
8,19,female,Belgian,1,1,ITC,loss,5,left,15,ITC_choice,9442,f,0,0,-15,405942,639990
8,19,female,Belgian,1,1,ITC,loss,5,left,15,ITC_wait,0,undefined,0,0,-15,400939,644993
8,19,female,Belgian,1,1,ITC,loss,5,left,15,ITC_collect,26953,k,0,0,-15,373983,671949
8,19,female,Belgian,1,1,ITC,loss,5,left,15,ITC_outcome,0,undefined,0,0,5,372977,672955
8,19,female,Belgian,1,2,guess,win,5,left,8,guess_start,6970,space,0,0,5,366004,679928
8,19,female,Belgian,1,2,guess,win,5,left,8,guess_choice,16251,j,0,0,5,349748,696184
8,19,female,Belgian,1,2,guess,win,5,left,8,guess_outcome,0,undefined,0,0,25,348194,697738
8,19,female,Belgian,1,2,ITC,win,5,left,8,ITC_start,5063,space,0,0,25,343129,702803
8,19,female,Belgian,1,2,ITC,win,5,left,8,ITC_choice,3256,f,0,0,25,339872,706060
8,19,female,Belgian,1,2,ITC,win,5,left,8,ITC_wait,0,undefined,0,0,25,334865,711067
8,19,female,Belgian,1,2,ITC,win,5,left,8,ITC_collect,1032,k,0,0,25,333831,712101
8,19,female,Belgian,1,2,ITC,win,5,left,8,ITC_outcome,0,undefined,0,0,45,332824,713108
8,19,female,Belgian,1,3,guess,win,10,right,2,guess_start,1454,space,0,0,45,331368,714564
8,19,female,Belgian,1,3,guess,win,10,right,2,guess_choice,3749,f,0,0,45,327616,718316
8,19,female,Belgian,1,3,guess,win,10,right,2,guess_outcome,0,undefined,0,0,65,326059,719873
8,19,female,Belgian,1,3,ITC,win,10,right,2,ITC_start,2241,space,0,0,65,323816,722116
8,19,female,Belgian,1,3,ITC,win,10,right,2,ITC_choice,2123,j,0,0,65,321691,724241
8,19,female,Belgian,1,3,ITC,win,10,right,2,ITC_wait,0,undefined,0,0,65,311684,734248
8,19,female,Belgian,1,3,ITC,win,10,right,2,ITC_collect,1542,k,0,0,65,310140,735792
8,19,female,Belgian,1,3,ITC,win,10,right,2,ITC_outcome,0,undefined,0,0,85,309135,736797
8,19,female,Belgian,1,4,guess,loss,10,left,3,guess_start,1397,space,0,0,85,307736,738196
8,19,female,Belgian,1,4,guess,loss,10,left,3,guess_choice,4986,j,0,0,85,302747,743185
8,19,female,Belgian,1,4,guess,loss,10,left,3,guess_outcome,0,undefined,0,0,70,301192,744740
8,19,female,Belgian,1,4,ITC,loss,10,left,3,ITC_start,1193,space,0,0,70,299998,745934
8,19,female,Belgian,1,4,ITC,loss,10,left,3,ITC_choice,1671,f,0,0,70,298326,747606
8,19,female,Belgian,1,4,ITC,loss,10,left,3,ITC_wait,0,undefined,0,0,70,288324,757608
8,19,female,Belgian,1,4,ITC,loss,10,left,3,ITC_collect,1501,k,0,0,70,286821,759111
8,19,female,Belgian,1,4,ITC,loss,10,left,3,ITC_outcome,0,undefined,0,0,90,285816,760116
8,19,female,Belgian,1,5,guess,neutral,10,left,4,guess_start,879,space,0,0,90,284935,760997
8,19,female,Belgian,1,5,guess,neutral,10,left,4,guess_choice,2100,j,0,0,90,282831,763101
8,19,female,Belgian,1,5,guess,neutral,10,left,4,guess_outcome,0,undefined,0,0,90,281276,764656
8,19,female,Belgian,1,5,ITC,neutral,10,left,4,ITC_start,1066,space,0,0,90,280208,765724
8,19,female,Belgian,1,5,ITC,neutral,10,left,4,ITC_choice,1531,f,0,0,90,278676,767256
8,19,female,Belgian,1,5,ITC,neutral,10,left,4,ITC_wait,0,undefined,0,0,90,268674,777258
8,19,female,Belgian,1,5,ITC,neutral,10,left,4,ITC_collect,1525,k,0,0,90,267148,778784
8,19,female,Belgian,1,5,ITC,neutral,10,left,4,ITC_outcome,0,undefined,0,0,110,266141,779791
8,19,female,Belgian,1,6,guess,loss,5,left,13,guess_start,2929,space,0,0,110,263210,782722
8,19,female,Belgian,1,6,guess,loss,5,left,13,guess_choice,2780,f,0,0,110,260426,785506
8,19,female,Belgian,1,6,guess,loss,5,left,13,guess_outcome,0,undefined,0,0,95,258869,787063
8,19,female,Belgian,1,6,ITC,loss,5,left,13,ITC_start,3516,space,0,0,95,255351,790581
8,19,female,Belgian,1,6,ITC,loss,5,left,13,ITC_choice,1510,f,0,0,95,253840,792092
8,19,female,Belgian,1,6,ITC,loss,5,left,13,ITC_wait,0,undefined,0,0,95,248836,797096
8,19,female,Belgian,1,6,ITC,loss,5,left,13,ITC_collect,1244,k,0,0,95,247590,798342
8,19,female,Belgian,1,6,ITC,loss,5,left,13,ITC_outcome,0,undefined,0,0,115,246587,799345
8,19,female,Belgian,1,7,guess,neutral,5,left,13,guess_start,999,space,0,0,115,245586,800346
8,19,female,Belgian,1,7,guess,neutral,5,left,13,guess_choice,1271,j,0,0,115,244313,801619
8,19,female,Belgian,1,7,guess,neutral,5,left,13,guess_outcome,0,undefined,0,0,115,242755,803177
8,19,female,Belgian,1,7,ITC,neutral,5,left,13,ITC_start,853,space,0,0,115,241901,804031
8,19,female,Belgian,1,7,ITC,neutral,5,left,13,ITC_choice,1375,f,0,0,115,240524,805408
8,19,female,Belgian,1,7,ITC,neutral,5,left,13,ITC_wait,0,undefined,0,0,115,235522,810410
8,19,female,Belgian,1,7,ITC,neutral,5,left,13,ITC_collect,1344,k,0,0,115,234177,811755
8,19,female,Belgian,1,7,ITC,neutral,5,left,13,ITC_outcome,0,undefined,0,0,135,233172,812760
8,19,female,Belgian,1,8,guess,win,5,left,9,guess_start,938,space,0,0,135,232233,813699
8,19,female,Belgian,1,8,guess,win,5,left,9,guess_choice,18569,j,0,0,135,213661,832271
8,19,female,Belgian,1,8,guess,win,5,left,9,guess_outcome,0,undefined,0,0,155,212105,833827
8,19,female,Belgian,1,8,ITC,win,5,left,9,ITC_start,2454,space,0,0,155,209649,836283
8,19,female,Belgian,1,8,ITC,win,5,left,9,ITC_choice,1492,f,0,0,155,208156,837776
8,19,female,Belgian,1,8,ITC,win,5,left,9,ITC_wait,0,undefined,0,0,155,203153,842779
8,19,female,Belgian,1,8,ITC,win,5,left,9,ITC_collect,1559,k,0,0,155,201592,844340
8,19,female,Belgian,1,8,ITC,win,5,left,9,ITC_outcome,0,undefined,0,0,175,200590,845342
8,19,female,Belgian,1,9,guess,win,10,left,6,guess_start,1169,space,0,0,175,199419,846513
8,19,female,Belgian,1,9,guess,win,10,left,6,guess_choice,6839,f,0,0,175,192578,853354
8,19,female,Belgian,1,9,guess,win,10,left,6,guess_outcome,0,undefined,0,0,195,191025,854907
8,19,female,Belgian,1,9,ITC,win,10,left,6,ITC_start,1205,space,0,0,195,189818,856114
8,19,female,Belgian,1,9,ITC,win,10,left,6,ITC_choice,924,f,0,0,195,188893,857039
8,19,female,Belgian,1,9,ITC,win,10,left,6,ITC_wait,0,undefined,0,0,195,178886,867046
8,19,female,Belgian,1,9,ITC,win,10,left,6,ITC_collect,776,k,0,0,195,178108,867824
8,19,female,Belgian,1,9,ITC,win,10,left,6,ITC_outcome,0,undefined,0,0,215,177105,868827
8,19,female,Belgian,1,10,guess,win,5,left,13,guess_start,1060,space,0,0,215,176043,869889
8,19,female,Belgian,1,10,guess,win,5,left,13,guess_choice,3680,f,0,0,215,172360,873572
8,19,female,Belgian,1,10,guess,win,5,left,13,guess_outcome,0,undefined,0,0,235,170802,875130
8,19,female,Belgian,1,10,ITC,win,5,left,13,ITC_start,1146,space,0,0,235,169655,876277
8,19,female,Belgian,1,10,ITC,win,5,left,13,ITC_choice,1075,f,0,0,235,168579,877353
8,19,female,Belgian,1,10,ITC,win,5,left,13,ITC_wait,0,undefined,0,0,235,163572,882360
8,19,female,Belgian,1,10,ITC,win,5,left,13,ITC_collect,2175,k,0,0,235,161395,884537
8,19,female,Belgian,1,10,ITC,win,5,left,13,ITC_outcome,0,undefined,0,0,255,160389,885543
8,19,female,Belgian,1,11,guess,loss,5,right,11,guess_start,1215,space,0,0,255,159172,886760
8,19,female,Belgian,1,11,guess,loss,5,right,11,guess_choice,4750,f,0,0,255,154420,891512
8,19,female,Belgian,1,11,guess,loss,5,right,11,guess_outcome,0,undefined,0,0,240,152865,893067
8,19,female,Belgian,1,11,ITC,loss,5,right,11,ITC_start,1396,space,0,0,240,151468,894464
8,19,female,Belgian,1,11,ITC,loss,5,right,11,ITC_choice,1701,j,0,0,240,149766,896166
8,19,female,Belgian,1,11,ITC,loss,5,right,11,ITC_wait,0,undefined,0,0,240,144762,901170
8,19,female,Belgian,1,11,ITC,loss,5,right,11,ITC_collect,1317,k,0,0,240,143443,902489
8,19,female,Belgian,1,11,ITC,loss,5,right,11,ITC_outcome,0,undefined,0,0,260,142437,903495
8,19,female,Belgian,1,12,guess,neutral,5,right,9,guess_start,1129,space,0,0,260,141306,904626
8,19,female,Belgian,1,12,guess,neutral,5,right,9,guess_choice,1206,j,0,0,260,140098,905834
8,19,female,Belgian,1,12,guess,neutral,5,right,9,guess_outcome,0,undefined,0,0,260,138543,907389
8,19,female,Belgian,1,12,ITC,neutral,5,right,9,ITC_start,913,space,0,0,260,137629,908303
8,19,female,Belgian,1,12,ITC,neutral,5,right,9,ITC_choice,1064,j,0,0,260,136563,909369
8,19,female,Belgian,1,12,ITC,neutral,5,right,9,ITC_wait,0,undefined,0,0,260,131561,914371
8,19,female,Belgian,1,12,ITC,neutral,5,right,9,ITC_collect,613,k,0,0,260,130946,914986
8,19,female,Belgian,1,12,ITC,neutral,5,right,9,ITC_outcome,0,undefined,0,0,280,129940,915992
8,19,female,Belgian,1,13,guess,neutral,10,left,3,guess_start,1146,space,0,0,280,128793,917139
8,19,female,Belgian,1,13,guess,neutral,10,left,3,guess_choice,1265,j,0,0,280,127525,918407
8,19,female,Belgian,1,13,guess,neutral,10,left,3,guess_outcome,0,undefined,0,0,280,125967,919965
8,19,female,Belgian,1,13,ITC,neutral,10,left,3,ITC_start,1015,space,0,0,280,124952,920980
8,19,female,Belgian,1,13,ITC,neutral,10,left,3,ITC_choice,876,f,0,0,280,124075,921857
8,19,female,Belgian,1,13,ITC,neutral,10,left,3,ITC_wait,0,undefined,0,0,280,114068,931864
8,19,female,Belgian,1,13,ITC,neutral,10,left,3,ITC_collect,4206,k,0,0,280,109860,936072
8,19,female,Belgian,1,13,ITC,neutral,10,left,3,ITC_outcome,0,undefined,0,0,300,108852,937080
8,19,female,Belgian,1,14,guess,loss,5,right,8,guess_start,2872,space,0,0,300,105979,939953
8,19,female,Belgian,1,14,guess,loss,5,right,8,guess_choice,10199,j,0,0,300,95777,950155
8,19,female,Belgian,1,14,guess,loss,5,right,8,guess_outcome,0,undefined,0,0,285,94219,951713
8,19,female,Belgian,1,14,ITC,loss,5,right,8,ITC_start,813,space,0,0,285,93404,952528
8,19,female,Belgian,1,14,ITC,loss,5,right,8,ITC_choice,840,j,0,0,285,92563,953369
8,19,female,Belgian,1,14,ITC,loss,5,right,8,ITC_wait,0,undefined,0,0,285,87559,958373
8,19,female,Belgian,1,14,ITC,loss,5,right,8,ITC_collect,1150,k,0,0,285,86407,959525
8,19,female,Belgian,1,14,ITC,loss,5,right,8,ITC_outcome,0,undefined,0,0,305,85401,960531
8,19,female,Belgian,1,15,guess,loss,10,right,2,guess_start,2651,space,0,0,305,82748,963184
8,19,female,Belgian,1,15,guess,loss,10,right,2,guess_choice,2321,f,0,0,305,80425,965507
8,19,female,Belgian,1,15,guess,loss,10,right,2,guess_outcome,0,undefined,0,0,290,78871,967061
8,19,female,Belgian,1,15,ITC,loss,10,right,2,ITC_start,575,space,0,0,290,78294,967638
8,19,female,Belgian,1,15,ITC,loss,10,right,2,ITC_choice,801,j,0,0,290,77492,968440
8,19,female,Belgian,1,15,ITC,loss,10,right,2,ITC_wait,0,undefined,0,0,290,67488,978444
8,19,female,Belgian,1,15,ITC,loss,10,right,2,ITC_collect,1057,k,0,0,290,66430,979502
8,19,female,Belgian,1,15,ITC,loss,10,right,2,ITC_outcome,0,undefined,0,0,310,65425,980507
8,19,female,Belgian,1,16,guess,win,5,right,11,guess_start,2255,space,0,0,310,63168,982764
8,19,female,Belgian,1,16,guess,win,5,right,11,guess_choice,1946,j,0,0,310,61220,984712
8,19,female,Belgian,1,16,guess,win,5,right,11,guess_outcome,0,undefined,0,0,330,59665,986267
8,19,female,Belgian,1,16,ITC,win,5,right,11,ITC_start,597,space,0,0,330,59067,986865
8,19,female,Belgian,1,16,ITC,win,5,right,11,ITC_choice,890,j,0,0,330,58176,987756
8,19,female,Belgian,1,16,ITC,win,5,right,11,ITC_wait,0,undefined,0,0,330,53169,992763
8,19,female,Belgian,1,16,ITC,win,5,right,11,ITC_collect,1378,k,0,0,330,51790,994142
8,19,female,Belgian,1,16,ITC,win,5,right,11,ITC_outcome,0,undefined,0,0,350,50785,995147
8,19,female,Belgian,1,17,guess,win,5,right,2,guess_start,9632,space,0,0,350,41151,1004781
8,19,female,Belgian,1,17,guess,win,5,right,2,guess_choice,1597,j,0,0,350,39551,1006381
8,19,female,Belgian,1,17,guess,win,5,right,2,guess_outcome,0,undefined,0,0,370,37993,1007939
8,19,female,Belgian,1,17,ITC,win,5,right,2,ITC_start,464,space,0,0,370,37528,1008404
8,19,female,Belgian,1,17,ITC,win,5,right,2,ITC_choice,1215,j,0,0,370,36311,1009621
8,19,female,Belgian,1,17,ITC,win,5,right,2,ITC_wait,0,undefined,0,0,370,31305,1014627
8,19,female,Belgian,1,17,ITC,win,5,right,2,ITC_collect,1750,k,0,0,370,29553,1016379
8,19,female,Belgian,1,17,ITC,win,5,right,2,ITC_outcome,0,undefined,0,0,390,28546,1017386
8,19,female,Belgian,1,18,guess,neutral,10,right,1,guess_start,1957,space,0,0,390,26587,1019345
8,19,female,Belgian,1,18,guess,neutral,10,right,1,guess_choice,1135,j,0,0,390,25450,1020482
8,19,female,Belgian,1,18,guess,neutral,10,right,1,guess_outcome,0,undefined,0,0,390,23892,1022040
8,19,female,Belgian,1,18,ITC,neutral,10,right,1,ITC_start,753,space,0,0,390,23139,1022793
8,19,female,Belgian,1,18,ITC,neutral,10,right,1,ITC_choice,946,j,0,0,390,22192,1023740
8,19,female,Belgian,1,18,ITC,neutral,10,right,1,ITC_wait,0,undefined,0,0,390,12185,1033747
8,19,female,Belgian,1,18,ITC,neutral,10,right,1,ITC_collect,1314,k,0,0,390,10869,1035063
8,19,female,Belgian,1,18,ITC,neutral,10,right,1,ITC_outcome,0,undefined,0,0,410,9863,1036069
8,19,female,Belgian,1,19,guess,neutral,5,right,2,guess_start,2473,space,0,0,410,7388,1038544
8,19,female,Belgian,1,19,guess,neutral,5,right,2,guess_choice,2268,j,0,0,410,5117,1040815
8,19,female,Belgian,1,19,guess,neutral,5,right,2,guess_outcome,0,undefined,0,0,410,3559,1042373
8,19,female,Belgian,1,19,ITC,neutral,5,right,2,ITC_start,1865,space,0,0,410,1693,1044239
8,19,female,Belgian,1,19,ITC,neutral,5,right,2,ITC_choice,1630,j,0,0,410,62,1045870
8,19,female,Belgian,1,19,ITC,neutral,5,right,2,ITC_wait,0,undefined,0,0,410,-1,1045933
8,19,female,Belgian,2,20,guess,loss,5,right,9,guess_start,2481,space,0,0,0,477518,1144692
8,19,female,Belgian,2,20,guess,loss,5,right,9,guess_choice,987,j,0,0,0,476529,1145681
8,19,female,Belgian,2,20,guess,loss,5,right,9,guess_outcome,0,undefined,0,0,-15,474976,1147234
8,19,female,Belgian,2,20,ITC,loss,5,right,9,ITC_start,559,space,0,0,-15,474416,1147794
8,19,female,Belgian,2,20,ITC,loss,5,right,9,ITC_choice,839,j,0,0,-15,473576,1148634
8,19,female,Belgian,2,20,ITC,loss,5,right,9,ITC_wait,0,undefined,0,0,-15,468570,1153640
8,19,female,Belgian,2,20,ITC,loss,5,right,9,ITC_collect,1187,k,0,0,-15,467382,1154828
8,19,female,Belgian,2,20,ITC,loss,5,right,9,ITC_outcome,0,undefined,0,0,5,466376,1155834
8,19,female,Belgian,2,21,guess,win,5,right,14,guess_start,1122,space,0,0,5,465252,1156958
8,19,female,Belgian,2,21,guess,win,5,right,14,guess_choice,576,f,0,0,5,464674,1157536
8,19,female,Belgian,2,21,guess,win,5,right,14,guess_outcome,0,undefined,0,0,25,463121,1159089
8,19,female,Belgian,2,21,ITC,win,5,right,14,ITC_start,708,space,0,0,25,462412,1159798
8,19,female,Belgian,2,21,ITC,win,5,right,14,ITC_choice,832,j,0,0,25,461579,1160631
8,19,female,Belgian,2,21,ITC,win,5,right,14,ITC_wait,0,undefined,0,0,25,456573,1165637
8,19,female,Belgian,2,21,ITC,win,5,right,14,ITC_collect,1101,k,0,0,25,455469,1166741
8,19,female,Belgian,2,21,ITC,win,5,right,14,ITC_outcome,0,undefined,0,0,45,454464,1167746
8,19,female,Belgian,2,22,guess,win,5,left,7,guess_start,611,space,0,0,45,453851,1168359
8,19,female,Belgian,2,22,guess,win,5,left,7,guess_choice,611,f,0,0,45,453238,1168972
8,19,female,Belgian,2,22,guess,win,5,left,7,guess_outcome,0,undefined,0,0,65,451682,1170528
8,19,female,Belgian,2,22,ITC,win,5,left,7,ITC_start,1087,space,0,0,65,450594,1171616
8,19,female,Belgian,2,22,ITC,win,5,left,7,ITC_choice,693,f,0,0,65,449900,1172310
8,19,female,Belgian,2,22,ITC,win,5,left,7,ITC_wait,0,undefined,0,0,65,444895,1177315
8,19,female,Belgian,2,22,ITC,win,5,left,7,ITC_collect,1017,k,0,0,65,443877,1178333
8,19,female,Belgian,2,22,ITC,win,5,left,7,ITC_outcome,0,undefined,0,0,85,442872,1179338
8,19,female,Belgian,2,23,guess,loss,5,right,6,guess_start,765,space,0,0,85,442105,1180105
8,19,female,Belgian,2,23,guess,loss,5,right,6,guess_choice,789,j,0,0,85,441313,1180897
8,19,female,Belgian,2,23,guess,loss,5,right,6,guess_outcome,0,undefined,0,0,70,439760,1182450
8,19,female,Belgian,2,23,ITC,loss,5,right,6,ITC_start,390,space,0,0,70,439369,1182841
8,19,female,Belgian,2,23,ITC,loss,5,right,6,ITC_choice,645,j,0,0,70,438722,1183488
8,19,female,Belgian,2,23,ITC,loss,5,right,6,ITC_wait,0,undefined,0,0,70,433715,1188495
8,19,female,Belgian,2,23,ITC,loss,5,right,6,ITC_collect,473,k,0,0,70,433240,1188970
8,19,female,Belgian,2,23,ITC,loss,5,right,6,ITC_outcome,0,undefined,0,0,90,432235,1189975
8,19,female,Belgian,2,24,guess,win,5,left,4,guess_start,295,space,0,0,90,431938,1190272
8,19,female,Belgian,2,24,guess,win,5,left,4,guess_choice,491,f,0,0,90,431445,1190765
8,19,female,Belgian,2,24,guess,win,5,left,4,guess_outcome,0,undefined,0,0,110,429891,1192319
8,19,female,Belgian,2,24,ITC,win,5,left,4,ITC_start,671,space,0,0,110,429218,1192992
8,19,female,Belgian,2,24,ITC,win,5,left,4,ITC_choice,587,f,0,0,110,428630,1193580
8,19,female,Belgian,2,24,ITC,win,5,left,4,ITC_wait,0,undefined,0,0,110,423628,1198582
8,19,female,Belgian,2,24,ITC,win,5,left,4,ITC_collect,1315,k,0,0,110,422312,1199898
8,19,female,Belgian,2,24,ITC,win,5,left,4,ITC_outcome,0,undefined,0,0,130,421307,1200903
8,19,female,Belgian,2,25,guess,loss,5,right,14,guess_start,303,space,0,0,130,421002,1201208
8,19,female,Belgian,2,25,guess,loss,5,right,14,guess_choice,1225,j,0,0,130,419774,1202436
8,19,female,Belgian,2,25,guess,loss,5,right,14,guess_outcome,0,undefined,0,0,115,418217,1203993
8,19,female,Belgian,2,25,ITC,loss,5,right,14,ITC_start,562,space,0,0,115,417654,1204556
8,19,female,Belgian,2,25,ITC,loss,5,right,14,ITC_choice,1828,j,0,0,115,415825,1206385
8,19,female,Belgian,2,25,ITC,loss,5,right,14,ITC_wait,0,undefined,0,0,115,410823,1211387
8,19,female,Belgian,2,25,ITC,loss,5,right,14,ITC_collect,503,k,0,0,115,410318,1211892
8,19,female,Belgian,2,25,ITC,loss,5,right,14,ITC_outcome,0,undefined,0,0,135,409315,1212895
8,19,female,Belgian,2,26,guess,loss,5,left,7,guess_start,435,space,0,0,135,408878,1213332
8,19,female,Belgian,2,26,guess,loss,5,left,7,guess_choice,661,f,0,0,135,408214,1213996
8,19,female,Belgian,2,26,guess,loss,5,left,7,guess_outcome,0,undefined,0,0,120,406661,1215549
8,19,female,Belgian,2,26,ITC,loss,5,left,7,ITC_start,674,space,0,0,120,405986,1216224
8,19,female,Belgian,2,26,ITC,loss,5,left,7,ITC_choice,667,f,0,0,120,405317,1216893
8,19,female,Belgian,2,26,ITC,loss,5,left,7,ITC_wait,0,undefined,0,0,120,400314,1221896
8,19,female,Belgian,2,26,ITC,loss,5,left,7,ITC_collect,376,k,0,0,120,399937,1222273
8,19,female,Belgian,2,26,ITC,loss,5,left,7,ITC_outcome,0,undefined,0,0,140,398930,1223280
8,19,female,Belgian,2,27,guess,win,5,right,5,guess_start,719,space,0,0,140,398210,1224000
8,19,female,Belgian,2,27,guess,win,5,right,5,guess_choice,1110,f,0,0,140,397098,1225112
8,19,female,Belgian,2,27,guess,win,5,right,5,guess_outcome,0,undefined,0,0,160,395540,1226670
8,19,female,Belgian,2,27,ITC,win,5,right,5,ITC_start,1070,space,0,0,160,394469,1227741
8,19,female,Belgian,2,27,ITC,win,5,right,5,ITC_choice,1503,j,0,0,160,392965,1229245
8,19,female,Belgian,2,27,ITC,win,5,right,5,ITC_wait,0,undefined,0,0,160,387960,1234250
8,19,female,Belgian,2,27,ITC,win,5,right,5,ITC_collect,422,k,0,0,160,387536,1234674
8,19,female,Belgian,2,27,ITC,win,5,right,5,ITC_outcome,0,undefined,0,0,180,386531,1235679
8,19,female,Belgian,2,28,guess,neutral,5,right,1,guess_start,503,space,0,0,180,386026,1236184
8,19,female,Belgian,2,28,guess,neutral,5,right,1,guess_choice,517,f,0,0,180,385507,1236703
8,19,female,Belgian,2,28,guess,neutral,5,right,1,guess_outcome,0,undefined,0,0,180,383949,1238261
8,19,female,Belgian,2,28,ITC,neutral,5,right,1,ITC_start,1659,space,0,0,180,382289,1239921
8,19,female,Belgian,2,28,ITC,neutral,5,right,1,ITC_choice,959,j,0,0,180,381329,1240881
8,19,female,Belgian,2,28,ITC,neutral,5,right,1,ITC_wait,0,undefined,0,0,180,376322,1245888
8,19,female,Belgian,2,28,ITC,neutral,5,right,1,ITC_collect,592,k,0,0,180,375728,1246482
8,19,female,Belgian,2,28,ITC,neutral,5,right,1,ITC_outcome,0,undefined,0,0,200,374722,1247488
8,19,female,Belgian,2,29,guess,win,5,left,12,guess_start,327,space,0,0,200,374393,1247817
8,19,female,Belgian,2,29,guess,win,5,left,12,guess_choice,992,j,0,0,200,373399,1248811
8,19,female,Belgian,2,29,guess,win,5,left,12,guess_outcome,0,undefined,0,0,220,371844,1250366
8,19,female,Belgian,2,29,ITC,win,5,left,12,ITC_start,473,space,0,0,220,371369,1250841
8,19,female,Belgian,2,29,ITC,win,5,left,12,ITC_choice,743,f,0,0,220,370625,1251585
8,19,female,Belgian,2,29,ITC,win,5,left,12,ITC_wait,0,undefined,0,0,220,365618,1256592
8,19,female,Belgian,2,29,ITC,win,5,left,12,ITC_collect,466,k,0,0,220,365150,1257060
8,19,female,Belgian,2,29,ITC,win,5,left,12,ITC_outcome,0,undefined,0,0,240,364145,1258065
8,19,female,Belgian,2,30,guess,loss,5,right,4,guess_start,373,space,0,0,240,363770,1258440
8,19,female,Belgian,2,30,guess,loss,5,right,4,guess_choice,826,j,0,0,240,362942,1259268
8,19,female,Belgian,2,30,guess,loss,5,right,4,guess_outcome,0,undefined,0,0,225,361384,1260826
8,19,female,Belgian,2,30,ITC,loss,5,right,4,ITC_start,484,space,0,0,225,360898,1261312
8,19,female,Belgian,2,30,ITC,loss,5,right,4,ITC_choice,828,j,0,0,225,360069,1262141
8,19,female,Belgian,2,30,ITC,loss,5,right,4,ITC_wait,0,undefined,0,0,225,355067,1267143
8,19,female,Belgian,2,30,ITC,loss,5,right,4,ITC_collect,362,k,0,0,225,354704,1267506
8,19,female,Belgian,2,30,ITC,loss,5,right,4,ITC_outcome,0,undefined,0,0,245,353698,1268512
8,19,female,Belgian,2,31,guess,neutral,5,left,12,guess_start,452,space,0,0,245,353244,1268966
8,19,female,Belgian,2,31,guess,neutral,5,left,12,guess_choice,1653,j,0,0,245,351589,1270621
8,19,female,Belgian,2,31,guess,neutral,5,left,12,guess_outcome,0,undefined,0,0,245,350035,1272175
8,19,female,Belgian,2,31,ITC,neutral,5,left,12,ITC_start,2431,space,0,0,245,347602,1274608
8,19,female,Belgian,2,31,ITC,neutral,5,left,12,ITC_choice,710,f,0,0,245,346891,1275319
8,19,female,Belgian,2,31,ITC,neutral,5,left,12,ITC_wait,0,undefined,0,0,245,341885,1280325
8,19,female,Belgian,2,31,ITC,neutral,5,left,12,ITC_collect,500,k,0,0,245,341383,1280827
8,19,female,Belgian,2,31,ITC,neutral,5,left,12,ITC_outcome,0,undefined,0,0,265,340378,1281832
8,19,female,Belgian,2,32,guess,loss,5,right,5,guess_start,362,space,0,0,265,340013,1282197
8,19,female,Belgian,2,32,guess,loss,5,right,5,guess_choice,778,j,0,0,265,339233,1282977
8,19,female,Belgian,2,32,guess,loss,5,right,5,guess_outcome,0,undefined,0,0,250,337678,1284532
8,19,female,Belgian,2,32,ITC,loss,5,right,5,ITC_start,272,space,0,0,250,337404,1284806
8,19,female,Belgian,2,32,ITC,loss,5,right,5,ITC_choice,1492,j,0,0,250,335910,1286300
8,19,female,Belgian,2,32,ITC,loss,5,right,5,ITC_wait,0,undefined,0,0,250,330908,1291302
8,19,female,Belgian,2,32,ITC,loss,5,right,5,ITC_collect,377,k,0,0,250,330529,1291681
8,19,female,Belgian,2,32,ITC,loss,5,right,5,ITC_outcome,0,undefined,0,0,270,329522,1292688
8,19,female,Belgian,2,33,guess,win,10,right,4,guess_start,406,space,0,0,270,329115,1293095
8,19,female,Belgian,2,33,guess,win,10,right,4,guess_choice,491,f,0,0,270,328621,1293589
8,19,female,Belgian,2,33,guess,win,10,right,4,guess_outcome,0,undefined,0,0,290,327064,1295146
8,19,female,Belgian,2,33,ITC,win,10,right,4,ITC_start,290,space,0,0,290,326772,1295438
8,19,female,Belgian,2,33,ITC,win,10,right,4,ITC_choice,1279,j,0,0,290,325492,1296718
8,19,female,Belgian,2,33,ITC,win,10,right,4,ITC_wait,0,undefined,0,0,290,315485,1306725
8,19,female,Belgian,2,33,ITC,win,10,right,4,ITC_collect,379,k,0,0,290,315104,1307106
8,19,female,Belgian,2,33,ITC,win,10,right,4,ITC_outcome,0,undefined,0,0,310,314099,1308111
8,19,female,Belgian,2,34,guess,neutral,5,right,3,guess_start,466,space,0,0,310,313631,1308579
8,19,female,Belgian,2,34,guess,neutral,5,right,3,guess_choice,1102,j,0,0,310,312527,1309683
8,19,female,Belgian,2,34,guess,neutral,5,right,3,guess_outcome,0,undefined,0,0,310,310973,1311237
8,19,female,Belgian,2,34,ITC,neutral,5,right,3,ITC_start,447,space,0,0,310,310524,1311686
8,19,female,Belgian,2,34,ITC,neutral,5,right,3,ITC_choice,845,j,0,0,310,309679,1312531
8,19,female,Belgian,2,34,ITC,neutral,5,right,3,ITC_wait,0,undefined,0,0,310,304677,1317533
8,19,female,Belgian,2,34,ITC,neutral,5,right,3,ITC_collect,375,k,0,0,310,304300,1317910
8,19,female,Belgian,2,34,ITC,neutral,5,right,3,ITC_outcome,0,undefined,0,0,330,303295,1318915
8,19,female,Belgian,2,35,guess,loss,10,left,8,guess_start,377,space,0,0,330,302917,1319293
8,19,female,Belgian,2,35,guess,loss,10,left,8,guess_choice,815,f,0,0,330,302100,1320110
8,19,female,Belgian,2,35,guess,loss,10,left,8,guess_outcome,0,undefined,0,0,315,300543,1321667
8,19,female,Belgian,2,35,ITC,loss,10,left,8,ITC_start,545,space,0,0,315,299997,1322213
8,19,female,Belgian,2,35,ITC,loss,10,left,8,ITC_choice,1109,f,0,0,315,298886,1323324
8,19,female,Belgian,2,35,ITC,loss,10,left,8,ITC_wait,0,undefined,0,0,315,288879,1333331
8,19,female,Belgian,2,35,ITC,loss,10,left,8,ITC_collect,496,k,0,0,315,288382,1333828
8,19,female,Belgian,2,35,ITC,loss,10,left,8,ITC_outcome,0,undefined,0,0,335,287377,1334833
8,19,female,Belgian,2,36,guess,win,5,left,1,guess_start,435,space,0,0,335,286941,1335269
8,19,female,Belgian,2,36,guess,win,5,left,1,guess_choice,717,f,0,0,335,286222,1335988
8,19,female,Belgian,2,36,guess,win,5,left,1,guess_outcome,0,undefined,0,0,355,284665,1337545
8,19,female,Belgian,2,36,ITC,win,5,left,1,ITC_start,279,space,0,0,355,284384,1337826
8,19,female,Belgian,2,36,ITC,win,5,left,1,ITC_choice,584,f,0,0,355,283800,1338410
8,19,female,Belgian,2,36,ITC,win,5,left,1,ITC_wait,0,undefined,0,0,355,278797,1343413
8,19,female,Belgian,2,36,ITC,win,5,left,1,ITC_collect,442,k,0,0,355,278354,1343856
8,19,female,Belgian,2,36,ITC,win,5,left,1,ITC_outcome,0,undefined,0,0,375,277349,1344861
8,19,female,Belgian,2,37,guess,win,10,right,5,guess_start,423,space,0,0,375,276924,1345286
8,19,female,Belgian,2,37,guess,win,10,right,5,guess_choice,651,f,0,0,375,276271,1345939
8,19,female,Belgian,2,37,guess,win,10,right,5,guess_outcome,0,undefined,0,0,395,274713,1347497
8,19,female,Belgian,2,37,ITC,win,10,right,5,ITC_start,347,space,0,0,395,274365,1347845
8,19,female,Belgian,2,37,ITC,win,10,right,5,ITC_choice,1654,j,0,0,395,272710,1349500
8,19,female,Belgian,2,37,ITC,win,10,right,5,ITC_wait,0,undefined,0,0,395,262703,1359507
8,19,female,Belgian,2,37,ITC,win,10,right,5,ITC_collect,486,k,0,0,395,262216,1359994
8,19,female,Belgian,2,37,ITC,win,10,right,5,ITC_outcome,0,undefined,0,0,415,261212,1360998
8,19,female,Belgian,2,38,guess,loss,5,right,1,guess_start,449,space,0,0,415,260761,1361449
8,19,female,Belgian,2,38,guess,loss,5,right,1,guess_choice,686,f,0,0,415,260072,1362138
8,19,female,Belgian,2,38,guess,loss,5,right,1,guess_outcome,0,undefined,0,0,400,258517,1363693
8,19,female,Belgian,2,38,ITC,loss,5,right,1,ITC_start,280,space,0,0,400,258236,1363974
8,19,female,Belgian,2,38,ITC,loss,5,right,1,ITC_choice,1495,j,0,0,400,256739,1365471
8,19,female,Belgian,2,38,ITC,loss,5,right,1,ITC_wait,0,undefined,0,0,400,251737,1370473
8,19,female,Belgian,2,38,ITC,loss,5,right,1,ITC_collect,976,k,0,0,400,250759,1371451
8,19,female,Belgian,2,38,ITC,loss,5,right,1,ITC_outcome,0,undefined,0,0,420,249755,1372455
8,19,female,Belgian,2,39,guess,neutral,5,left,6,guess_start,718,space,0,0,420,249036,1373174
8,19,female,Belgian,2,39,guess,neutral,5,left,6,guess_choice,508,f,0,0,420,248526,1373684
8,19,female,Belgian,2,39,guess,neutral,5,left,6,guess_outcome,0,undefined,0,0,420,246973,1375237
8,19,female,Belgian,2,39,ITC,neutral,5,left,6,ITC_start,535,space,0,0,420,246437,1375773
8,19,female,Belgian,2,39,ITC,neutral,5,left,6,ITC_choice,938,f,0,0,420,245498,1376712
8,19,female,Belgian,2,39,ITC,neutral,5,left,6,ITC_wait,0,undefined,0,0,420,240494,1381716
8,19,female,Belgian,2,39,ITC,neutral,5,left,6,ITC_collect,879,k,0,0,420,239613,1382597
8,19,female,Belgian,2,39,ITC,neutral,5,left,6,ITC_outcome,0,undefined,0,0,440,238610,1383600
8,19,female,Belgian,2,40,guess,neutral,5,right,7,guess_start,379,space,0,0,440,238229,1383981
8,19,female,Belgian,2,40,guess,neutral,5,right,7,guess_choice,1020,j,0,0,440,237207,1385003
8,19,female,Belgian,2,40,guess,neutral,5,right,7,guess_outcome,0,undefined,0,0,440,235650,1386560
8,19,female,Belgian,2,40,ITC,neutral,5,right,7,ITC_start,480,space,0,0,440,235168,1387042
8,19,female,Belgian,2,40,ITC,neutral,5,right,7,ITC_choice,1072,j,0,0,440,234096,1388114
8,19,female,Belgian,2,40,ITC,neutral,5,right,7,ITC_wait,0,undefined,0,0,440,229093,1393117
8,19,female,Belgian,2,40,ITC,neutral,5,right,7,ITC_collect,403,k,0,0,440,228688,1393522
8,19,female,Belgian,2,40,ITC,neutral,5,right,7,ITC_outcome,0,undefined,0,0,460,227683,1394527
8,19,female,Belgian,2,41,guess,neutral,5,left,10,guess_start,334,space,0,0,460,227348,1394862
8,19,female,Belgian,2,41,guess,neutral,5,left,10,guess_choice,801,f,0,0,460,226545,1395665
8,19,female,Belgian,2,41,guess,neutral,5,left,10,guess_outcome,0,undefined,0,0,460,224988,1397222
8,19,female,Belgian,2,41,ITC,neutral,5,left,10,ITC_start,611,space,0,0,460,224375,1397835
8,19,female,Belgian,2,41,ITC,neutral,5,left,10,ITC_choice,1004,f,0,0,460,223370,1398840
8,19,female,Belgian,2,41,ITC,neutral,5,left,10,ITC_wait,0,undefined,0,0,460,218368,1403842
8,19,female,Belgian,2,41,ITC,neutral,5,left,10,ITC_collect,843,k,0,0,460,217524,1404686
8,19,female,Belgian,2,41,ITC,neutral,5,left,10,ITC_outcome,0,undefined,0,0,480,216518,1405692
8,19,female,Belgian,2,42,guess,neutral,10,right,7,guess_start,342,space,0,0,480,216175,1406035
8,19,female,Belgian,2,42,guess,neutral,10,right,7,guess_choice,721,f,0,0,480,215452,1406758
8,19,female,Belgian,2,42,guess,neutral,10,right,7,guess_outcome,0,undefined,0,0,480,213895,1408315
8,19,female,Belgian,2,42,ITC,neutral,10,right,7,ITC_start,638,space,0,0,480,213256,1408954
8,19,female,Belgian,2,42,ITC,neutral,10,right,7,ITC_choice,851,j,0,0,480,212405,1409805
8,19,female,Belgian,2,42,ITC,neutral,10,right,7,ITC_wait,0,undefined,0,0,480,202398,1419812
8,19,female,Belgian,2,42,ITC,neutral,10,right,7,ITC_collect,409,k,0,0,480,201987,1420223
8,19,female,Belgian,2,42,ITC,neutral,10,right,7,ITC_outcome,0,undefined,0,0,500,200980,1421230
8,19,female,Belgian,2,43,guess,neutral,5,left,11,guess_start,356,space,0,0,500,200623,1421587
8,19,female,Belgian,2,43,guess,neutral,5,left,11,guess_choice,793,f,0,0,500,199828,1422382
8,19,female,Belgian,2,43,guess,neutral,5,left,11,guess_outcome,0,undefined,0,0,500,198270,1423940
8,19,female,Belgian,2,43,ITC,neutral,5,left,11,ITC_start,666,space,0,0,500,197603,1424607
8,19,female,Belgian,2,43,ITC,neutral,5,left,11,ITC_choice,814,f,0,0,500,196788,1425422
8,19,female,Belgian,2,43,ITC,neutral,5,left,11,ITC_wait,0,undefined,0,0,500,191786,1430424
8,19,female,Belgian,2,43,ITC,neutral,5,left,11,ITC_collect,1077,k,0,0,500,190707,1431503
8,19,female,Belgian,2,43,ITC,neutral,5,left,11,ITC_outcome,0,undefined,0,0,520,189702,1432508
8,19,female,Belgian,2,44,guess,win,10,right,1,guess_start,654,space,0,0,520,189047,1433163
8,19,female,Belgian,2,44,guess,win,10,right,1,guess_choice,710,f,0,0,520,188335,1433875
8,19,female,Belgian,2,44,guess,win,10,right,1,guess_outcome,0,undefined,0,0,540,186778,1435432
8,19,female,Belgian,2,44,ITC,win,10,right,1,ITC_start,466,space,0,0,540,186311,1435899
8,19,female,Belgian,2,44,ITC,win,10,right,1,ITC_choice,909,j,0,0,540,185401,1436809
8,19,female,Belgian,2,44,ITC,win,10,right,1,ITC_wait,0,undefined,0,0,540,175394,1446816
8,19,female,Belgian,2,44,ITC,win,10,right,1,ITC_collect,387,k,0,0,540,175006,1447204
8,19,female,Belgian,2,44,ITC,win,10,right,1,ITC_outcome,0,undefined,0,0,560,174002,1448208
8,19,female,Belgian,2,45,guess,win,5,left,10,guess_start,385,space,0,0,560,173615,1448595
8,19,female,Belgian,2,45,guess,win,5,left,10,guess_choice,728,j,0,0,560,172885,1449325
8,19,female,Belgian,2,45,guess,win,5,left,10,guess_outcome,0,undefined,0,0,580,171330,1450880
8,19,female,Belgian,2,45,ITC,win,5,left,10,ITC_start,1214,space,0,0,580,170114,1452096
8,19,female,Belgian,2,45,ITC,win,5,left,10,ITC_choice,895,f,0,0,580,169218,1452992
8,19,female,Belgian,2,45,ITC,win,5,left,10,ITC_wait,0,undefined,0,0,580,164215,1457995
8,19,female,Belgian,2,45,ITC,win,5,left,10,ITC_collect,824,k,0,0,580,163390,1458820
8,19,female,Belgian,2,45,ITC,win,5,left,10,ITC_outcome,0,undefined,0,0,600,162383,1459827
8,19,female,Belgian,2,46,guess,win,5,left,6,guess_start,473,space,0,0,600,161909,1460301
8,19,female,Belgian,2,46,guess,win,5,left,6,guess_choice,677,j,0,0,600,161230,1460980
8,19,female,Belgian,2,46,guess,win,5,left,6,guess_outcome,0,undefined,0,0,620,159675,1462535
8,19,female,Belgian,2,46,ITC,win,5,left,6,ITC_start,535,space,0,0,620,159138,1463072
8,19,female,Belgian,2,46,ITC,win,5,left,6,ITC_choice,866,f,0,0,620,158271,1463939
8,19,female,Belgian,2,46,ITC,win,5,left,6,ITC_wait,0,undefined,0,0,620,153264,1468946
8,19,female,Belgian,2,46,ITC,win,5,left,6,ITC_collect,760,k,0,0,620,152503,1469707
8,19,female,Belgian,2,46,ITC,win,5,left,6,ITC_outcome,0,undefined,0,0,640,151499,1470711
8,19,female,Belgian,2,47,guess,win,5,left,15,guess_start,623,space,0,0,640,150875,1471335
8,19,female,Belgian,2,47,guess,win,5,left,15,guess_choice,904,j,0,0,640,149968,1472242
8,19,female,Belgian,2,47,guess,win,5,left,15,guess_outcome,0,undefined,0,0,660,148411,1473799
8,19,female,Belgian,2,47,ITC,win,5,left,15,ITC_start,639,space,0,0,660,147771,1474439
8,19,female,Belgian,2,47,ITC,win,5,left,15,ITC_choice,802,f,0,0,660,146968,1475242
8,19,female,Belgian,2,47,ITC,win,5,left,15,ITC_wait,0,undefined,0,0,660,141962,1480248
8,19,female,Belgian,2,47,ITC,win,5,left,15,ITC_collect,868,k,0,0,660,141091,1481119
8,19,female,Belgian,2,47,ITC,win,5,left,15,ITC_outcome,0,undefined,0,0,680,140086,1482124
8,19,female,Belgian,2,48,guess,neutral,5,left,14,guess_start,1679,space,0,0,680,138405,1483805
8,19,female,Belgian,2,48,guess,neutral,5,left,14,guess_choice,994,j,0,0,680,137408,1484802
8,19,female,Belgian,2,48,guess,neutral,5,left,14,guess_outcome,0,undefined,0,0,680,135854,1486356
8,19,female,Belgian,2,48,ITC,neutral,5,left,14,ITC_start,892,space,0,0,680,134961,1487249
8,19,female,Belgian,2,48,ITC,neutral,5,left,14,ITC_choice,835,f,0,0,680,134125,1488085
8,19,female,Belgian,2,48,ITC,neutral,5,left,14,ITC_wait,0,undefined,0,0,680,129118,1493092
8,19,female,Belgian,2,48,ITC,neutral,5,left,14,ITC_collect,677,k,0,0,680,128439,1493771
8,19,female,Belgian,2,48,ITC,neutral,5,left,14,ITC_outcome,0,undefined,0,0,700,127433,1494777
8,19,female,Belgian,2,49,guess,loss,10,right,4,guess_start,483,space,0,0,700,126949,1495261
8,19,female,Belgian,2,49,guess,loss,10,right,4,guess_choice,651,j,0,0,700,126296,1495914
8,19,female,Belgian,2,49,guess,loss,10,right,4,guess_outcome,0,undefined,0,0,685,124738,1497472
8,19,female,Belgian,2,49,ITC,loss,10,right,4,ITC_start,709,space,0,0,685,124027,1498183
8,19,female,Belgian,2,49,ITC,loss,10,right,4,ITC_choice,1187,j,0,0,685,122839,1499371
8,19,female,Belgian,2,49,ITC,loss,10,right,4,ITC_wait,0,undefined,0,0,685,112832,1509378
8,19,female,Belgian,2,49,ITC,loss,10,right,4,ITC_collect,432,k,0,0,685,112398,1509812
8,19,female,Belgian,2,49,ITC,loss,10,right,4,ITC_outcome,0,undefined,0,0,705,111394,1510816
8,19,female,Belgian,2,50,guess,neutral,5,right,15,guess_start,796,space,0,0,705,110596,1511614
8,19,female,Belgian,2,50,guess,neutral,5,right,15,guess_choice,867,f,0,0,705,109727,1512483
8,19,female,Belgian,2,50,guess,neutral,5,right,15,guess_outcome,0,undefined,0,0,705,108169,1514041
8,19,female,Belgian,2,50,ITC,neutral,5,right,15,ITC_start,1291,space,0,0,705,106876,1515334
8,19,female,Belgian,2,50,ITC,neutral,5,right,15,ITC_choice,898,j,0,0,705,105978,1516232
8,19,female,Belgian,2,50,ITC,neutral,5,right,15,ITC_wait,0,undefined,0,0,705,100971,1521239
8,19,female,Belgian,2,50,ITC,neutral,5,right,15,ITC_collect,487,k,0,0,705,100483,1521727
8,19,female,Belgian,2,50,ITC,neutral,5,right,15,ITC_outcome,0,undefined,0,0,725,99477,1522733
8,19,female,Belgian,2,51,guess,loss,5,left,10,guess_start,636,space,0,0,725,98840,1523370
8,19,female,Belgian,2,51,guess,loss,5,left,10,guess_choice,476,f,0,0,725,98362,1523848
8,19,female,Belgian,2,51,guess,loss,5,left,10,guess_outcome,0,undefined,0,0,710,96806,1525404
8,19,female,Belgian,2,51,ITC,loss,5,left,10,ITC_start,963,space,0,0,710,95842,1526368
8,19,female,Belgian,2,51,ITC,loss,5,left,10,ITC_choice,1075,f,0,0,710,94766,1527444
8,19,female,Belgian,2,51,ITC,loss,5,left,10,ITC_wait,0,undefined,0,0,710,89762,1532448
8,19,female,Belgian,2,51,ITC,loss,5,left,10,ITC_collect,509,k,0,0,710,89251,1532959
8,19,female,Belgian,2,51,ITC,loss,5,left,10,ITC_outcome,0,undefined,0,0,730,88244,1533966
8,19,female,Belgian,2,52,guess,loss,5,right,2,guess_start,536,space,0,0,730,87707,1534503
8,19,female,Belgian,2,52,guess,loss,5,right,2,guess_choice,631,f,0,0,730,87074,1535136
8,19,female,Belgian,2,52,guess,loss,5,right,2,guess_outcome,0,undefined,0,0,715,85517,1536693
8,19,female,Belgian,2,52,ITC,loss,5,right,2,ITC_start,676,space,0,0,715,84839,1537371
8,19,female,Belgian,2,52,ITC,loss,5,right,2,ITC_choice,922,j,0,0,715,83916,1538294
8,19,female,Belgian,2,52,ITC,loss,5,right,2,ITC_wait,0,undefined,0,0,715,78909,1543301
8,19,female,Belgian,2,52,ITC,loss,5,right,2,ITC_collect,468,k,0,0,715,78440,1543770
8,19,female,Belgian,2,52,ITC,loss,5,right,2,ITC_outcome,0,undefined,0,0,735,77434,1544776
8,19,female,Belgian,2,53,guess,loss,5,left,3,guess_start,387,space,0,0,735,77045,1545165
8,19,female,Belgian,2,53,guess,loss,5,left,3,guess_choice,645,j,0,0,735,76398,1545812
8,19,female,Belgian,2,53,guess,loss,5,left,3,guess_outcome,0,undefined,0,0,720,74845,1547365
8,19,female,Belgian,2,53,ITC,loss,5,left,3,ITC_start,840,space,0,0,720,74004,1548206
8,19,female,Belgian,2,53,ITC,loss,5,left,3,ITC_choice,909,f,0,0,720,73094,1549116
8,19,female,Belgian,2,53,ITC,loss,5,left,3,ITC_wait,0,undefined,0,0,720,68089,1554121
8,19,female,Belgian,2,53,ITC,loss,5,left,3,ITC_collect,910,k,0,0,720,67178,1555032
8,19,female,Belgian,2,53,ITC,loss,5,left,3,ITC_outcome,0,undefined,0,0,740,66172,1556038
8,19,female,Belgian,2,54,guess,neutral,5,right,16,guess_start,541,space,0,0,740,65630,1556580
8,19,female,Belgian,2,54,guess,neutral,5,right,16,guess_choice,633,f,0,0,740,64994,1557216
8,19,female,Belgian,2,54,guess,neutral,5,right,16,guess_outcome,0,undefined,0,0,740,63438,1558772
8,19,female,Belgian,2,54,ITC,neutral,5,right,16,ITC_start,456,space,0,0,740,62981,1559229
8,19,female,Belgian,2,54,ITC,neutral,5,right,16,ITC_choice,712,f,0,0,740,62268,1559942
8,19,female,Belgian,2,54,ITC,neutral,5,right,16,ITC_wait,0,undefined,0,0,740,62265,1559945
8,19,female,Belgian,2,54,ITC,neutral,5,right,16,ITC_collect,2143,k,0,0,740,60121,1562089
8,19,female,Belgian,2,54,ITC,neutral,5,right,16,ITC_outcome,0,undefined,0,0,756,59117,1563093
8,19,female,Belgian,2,55,guess,neutral,5,left,4,guess_start,717,space,0,0,756,58398,1563812
8,19,female,Belgian,2,55,guess,neutral,5,left,4,guess_choice,869,j,0,0,756,57527,1564683
8,19,female,Belgian,2,55,guess,neutral,5,left,4,guess_outcome,0,undefined,0,0,756,55969,1566241
8,19,female,Belgian,2,55,ITC,neutral,5,left,4,ITC_start,635,space,0,0,756,55333,1566877
8,19,female,Belgian,2,55,ITC,neutral,5,left,4,ITC_choice,809,f,0,0,756,54522,1567688
8,19,female,Belgian,2,55,ITC,neutral,5,left,4,ITC_wait,0,undefined,0,0,756,49519,1572691
8,19,female,Belgian,2,55,ITC,neutral,5,left,4,ITC_collect,1141,k,0,0,756,48376,1573834
8,19,female,Belgian,2,55,ITC,neutral,5,left,4,ITC_outcome,0,undefined,0,0,776,47374,1574836
8,19,female,Belgian,2,56,guess,neutral,10,right,5,guess_start,740,space,0,0,776,46632,1575578
8,19,female,Belgian,2,56,guess,neutral,10,right,5,guess_choice,831,j,0,0,776,45799,1576411
8,19,female,Belgian,2,56,guess,neutral,10,right,5,guess_outcome,0,undefined,0,0,776,44245,1577965
8,19,female,Belgian,2,56,ITC,neutral,10,right,5,ITC_start,1198,space,0,0,776,43045,1579165
8,19,female,Belgian,2,56,ITC,neutral,10,right,5,ITC_choice,1317,j,0,0,776,41727,1580483
8,19,female,Belgian,2,56,ITC,neutral,10,right,5,ITC_wait,0,undefined,0,0,776,31720,1590490
8,19,female,Belgian,2,56,ITC,neutral,10,right,5,ITC_collect,1142,k,0,0,776,30576,1591634
8,19,female,Belgian,2,56,ITC,neutral,10,right,5,ITC_outcome,0,undefined,0,0,796,29571,1592639
8,19,female,Belgian,2,57,guess,neutral,10,left,6,guess_start,987,space,0,0,796,28582,1593628
8,19,female,Belgian,2,57,guess,neutral,10,left,6,guess_choice,1263,f,0,0,796,27317,1594893
8,19,female,Belgian,2,57,guess,neutral,10,left,6,guess_outcome,0,undefined,0,0,796,25761,1596449
8,19,female,Belgian,2,57,ITC,neutral,10,left,6,ITC_start,932,space,0,0,796,24827,1597383
8,19,female,Belgian,2,57,ITC,neutral,10,left,6,ITC_choice,812,f,0,0,796,24015,1598195
8,19,female,Belgian,2,57,ITC,neutral,10,left,6,ITC_wait,0,undefined,0,0,796,14008,1608202
8,19,female,Belgian,2,57,ITC,neutral,10,left,6,ITC_collect,848,k,0,0,796,13158,1609052
8,19,female,Belgian,2,57,ITC,neutral,10,left,6,ITC_outcome,0,undefined,0,0,816,12152,1610058
8,19,female,Belgian,2,58,guess,loss,10,right,6,guess_start,1238,space,0,0,816,10912,1611298
8,19,female,Belgian,2,58,guess,loss,10,right,6,guess_choice,890,j,0,0,816,10020,1612190
8,19,female,Belgian,2,58,guess,loss,10,right,6,guess_outcome,0,undefined,0,0,801,8464,1613746
8,19,female,Belgian,2,58,ITC,loss,10,right,6,ITC_start,2154,space,0,0,801,6308,1615902
8,19,female,Belgian,2,58,ITC,loss,10,right,6,ITC_choice,852,j,0,0,801,5456,1616754
8,19,female,Belgian,2,58,ITC,loss,10,right,6,ITC_wait,0,undefined,0,0,801,-7,1622217
8,19,female,Belgian,3,59,guess,win,5,left,16,guess_start,1097,space,0,0,0,478902,2077494
8,19,female,Belgian,3,59,guess,win,5,left,16,guess_choice,752,f,0,0,0,478148,2078248
8,19,female,Belgian,3,59,guess,win,5,left,16,guess_outcome,0,undefined,0,0,20,476590,2079806
8,19,female,Belgian,3,59,ITC,win,5,left,16,ITC_start,373,space,0,0,20,476216,2080180
8,19,female,Belgian,3,59,ITC,win,5,left,16,ITC_choice,978,f,0,0,20,475237,2081159
8,19,female,Belgian,3,59,ITC,win,5,left,16,ITC_wait,0,undefined,0,0,20,470230,2086166
8,19,female,Belgian,3,59,ITC,win,5,left,16,ITC_collect,1090,k,0,0,20,469139,2087257
8,19,female,Belgian,3,59,ITC,win,5,left,16,ITC_outcome,0,undefined,0,0,40,468133,2088263
8,19,female,Belgian,3,60,guess,neutral,10,left,8,guess_start,354,space,0,0,40,467777,2088619
8,19,female,Belgian,3,60,guess,neutral,10,left,8,guess_choice,1123,f,0,0,40,466652,2089744
8,19,female,Belgian,3,60,guess,neutral,10,left,8,guess_outcome,0,undefined,0,0,40,465094,2091302
8,19,female,Belgian,3,60,ITC,neutral,10,left,8,ITC_start,652,space,0,0,40,464440,2091956
8,19,female,Belgian,3,60,ITC,neutral,10,left,8,ITC_choice,1110,f,0,0,40,463329,2093067
8,19,female,Belgian,3,60,ITC,neutral,10,left,8,ITC_wait,0,undefined,0,0,40,453328,2103068
8,19,female,Belgian,3,60,ITC,neutral,10,left,8,ITC_collect,584,k,0,0,40,452742,2103654
8,19,female,Belgian,3,60,ITC,neutral,10,left,8,ITC_outcome,0,undefined,0,0,60,451738,2104658
8,19,female,Belgian,3,61,guess,neutral,10,left,2,guess_start,263,space,0,0,60,451473,2104923
8,19,female,Belgian,3,61,guess,neutral,10,left,2,guess_choice,1027,f,0,0,60,450444,2105952
8,19,female,Belgian,3,61,guess,neutral,10,left,2,guess_outcome,0,undefined,0,0,60,448886,2107510
8,19,female,Belgian,3,61,ITC,neutral,10,left,2,ITC_start,651,space,0,0,60,448234,2108162
8,19,female,Belgian,3,61,ITC,neutral,10,left,2,ITC_choice,843,f,0,0,60,447390,2109006
8,19,female,Belgian,3,61,ITC,neutral,10,left,2,ITC_wait,0,undefined,0,0,60,437383,2119013
8,19,female,Belgian,3,61,ITC,neutral,10,left,2,ITC_collect,915,k,0,0,60,436467,2119929
8,19,female,Belgian,3,61,ITC,neutral,10,left,2,ITC_outcome,0,undefined,0,0,80,435462,2120934
8,19,female,Belgian,3,62,guess,win,5,right,3,guess_start,310,space,0,0,80,435151,2121245
8,19,female,Belgian,3,62,guess,win,5,right,3,guess_choice,723,f,0,0,80,434425,2121971
8,19,female,Belgian,3,62,guess,win,5,right,3,guess_outcome,0,undefined,0,0,100,432867,2123529
8,19,female,Belgian,3,62,ITC,win,5,right,3,ITC_start,481,space,0,0,100,432385,2124011
8,19,female,Belgian,3,62,ITC,win,5,right,3,ITC_choice,923,j,0,0,100,431461,2124935
8,19,female,Belgian,3,62,ITC,win,5,right,3,ITC_wait,0,undefined,0,0,100,426455,2129941
8,19,female,Belgian,3,62,ITC,win,5,right,3,ITC_collect,919,k,0,0,100,425534,2130862
8,19,female,Belgian,3,62,ITC,win,5,right,3,ITC_outcome,0,undefined,0,0,120,424528,2131868
8,19,female,Belgian,3,63,guess,win,10,right,7,guess_start,105,space,0,0,120,424422,2131974
8,19,female,Belgian,3,63,guess,win,10,right,7,guess_choice,652,j,0,0,120,423767,2132629
8,19,female,Belgian,3,63,guess,win,10,right,7,guess_outcome,0,undefined,0,0,140,422211,2134185
8,19,female,Belgian,3,63,ITC,win,10,right,7,ITC_start,488,space,0,0,140,421722,2134674
8,19,female,Belgian,3,63,ITC,win,10,right,7,ITC_choice,822,j,0,0,140,420898,2135498
8,19,female,Belgian,3,63,ITC,win,10,right,7,ITC_wait,0,undefined,0,0,140,410892,2145504
8,19,female,Belgian,3,63,ITC,win,10,right,7,ITC_collect,983,k,0,0,140,409907,2146489
8,19,female,Belgian,3,63,ITC,win,10,right,7,ITC_outcome,0,undefined,0,0,160,408902,2147494
8,19,female,Belgian,3,64,guess,neutral,5,right,8,guess_start,270,space,0,0,160,408630,2147766
8,19,female,Belgian,3,64,guess,neutral,5,right,8,guess_choice,940,j,0,0,160,407687,2148709
8,19,female,Belgian,3,64,guess,neutral,5,right,8,guess_outcome,0,undefined,0,0,160,406129,2150267
8,19,female,Belgian,3,64,ITC,neutral,5,right,8,ITC_start,661,space,0,0,160,405467,2150929
8,19,female,Belgian,3,64,ITC,neutral,5,right,8,ITC_choice,775,j,0,0,160,404691,2151705
8,19,female,Belgian,3,64,ITC,neutral,5,right,8,ITC_wait,0,undefined,0,0,160,399684,2156712
8,19,female,Belgian,3,64,ITC,neutral,5,right,8,ITC_collect,555,k,0,0,160,399128,2157268
8,19,female,Belgian,3,64,ITC,neutral,5,right,8,ITC_outcome,0,undefined,0,0,180,398123,2158273
8,19,female,Belgian,3,65,guess,loss,10,left,1,guess_start,378,space,0,0,180,397743,2158653
8,19,female,Belgian,3,65,guess,loss,10,left,1,guess_choice,782,f,0,0,180,396959,2159437
8,19,female,Belgian,3,65,guess,loss,10,left,1,guess_outcome,0,undefined,0,0,165,395406,2160990
8,19,female,Belgian,3,65,ITC,loss,10,left,1,ITC_start,225,space,0,0,165,395180,2161216
8,19,female,Belgian,3,65,ITC,loss,10,left,1,ITC_choice,673,f,0,0,165,394506,2161890
8,19,female,Belgian,3,65,ITC,loss,10,left,1,ITC_wait,0,undefined,0,0,165,384499,2171897
8,19,female,Belgian,3,65,ITC,loss,10,left,1,ITC_collect,423,k,0,0,165,384074,2172322
8,19,female,Belgian,3,65,ITC,loss,10,left,1,ITC_outcome,0,undefined,0,0,185,383069,2173327
8,19,female,Belgian,3,66,guess,loss,5,right,16,guess_start,52,space,0,0,185,383015,2173381
8,19,female,Belgian,3,66,guess,loss,5,right,16,guess_choice,750,f,0,0,185,382263,2174133
8,19,female,Belgian,3,66,guess,loss,5,right,16,guess_outcome,0,undefined,0,0,170,380706,2175690
8,19,female,Belgian,3,66,ITC,loss,5,right,16,ITC_start,107,space,0,0,170,380598,2175798
8,19,female,Belgian,3,66,ITC,loss,5,right,16,ITC_choice,952,j,0,0,170,379643,2176753
8,19,female,Belgian,3,66,ITC,loss,5,right,16,ITC_wait,0,undefined,0,0,170,374641,2181755
8,19,female,Belgian,3,66,ITC,loss,5,right,16,ITC_collect,729,k,0,0,170,373910,2182486
8,19,female,Belgian,3,66,ITC,loss,5,right,16,ITC_outcome,0,undefined,0,0,190,372904,2183492
8,19,female,Belgian,3,67,guess,neutral,5,right,5,guess_start,626,space,0,0,190,372277,2184119
8,19,female,Belgian,3,67,guess,neutral,5,right,5,guess_choice,815,f,0,0,190,371460,2184936
8,19,female,Belgian,3,67,guess,neutral,5,right,5,guess_outcome,0,undefined,0,0,190,369902,2186494
8,19,female,Belgian,3,67,ITC,neutral,5,right,5,ITC_start,987,space,0,0,190,368914,2187482
8,19,female,Belgian,3,67,ITC,neutral,5,right,5,ITC_choice,809,j,0,0,190,368104,2188292
8,19,female,Belgian,3,67,ITC,neutral,5,right,5,ITC_wait,0,undefined,0,0,190,363103,2193293
8,19,female,Belgian,3,67,ITC,neutral,5,right,5,ITC_collect,1422,k,0,0,190,361679,2194717
8,19,female,Belgian,3,67,ITC,neutral,5,right,5,ITC_outcome,0,undefined,0,0,210,360673,2195723
8,19,female,Belgian,3,68,guess,loss,10,right,7,guess_start,1261,space,0,0,210,359411,2196985
8,19,female,Belgian,3,68,guess,loss,10,right,7,guess_choice,754,f,0,0,210,358655,2197741
8,19,female,Belgian,3,68,guess,loss,10,right,7,guess_outcome,0,undefined,0,0,195,357100,2199296
8,19,female,Belgian,3,68,ITC,loss,10,right,7,ITC_start,579,space,0,0,195,356519,2199877
8,19,female,Belgian,3,68,ITC,loss,10,right,7,ITC_choice,1380,j,0,0,195,355138,2201258
8,19,female,Belgian,3,68,ITC,loss,10,right,7,ITC_wait,0,undefined,0,0,195,345132,2211264
8,19,female,Belgian,3,68,ITC,loss,10,right,7,ITC_collect,519,k,0,0,195,344611,2211785
8,19,female,Belgian,3,68,ITC,loss,10,right,7,ITC_outcome,0,undefined,0,0,215,343605,2212791
8,19,female,Belgian,3,69,guess,loss,5,left,12,guess_start,336,space,0,0,215,343268,2213128
8,19,female,Belgian,3,69,guess,loss,5,left,12,guess_choice,742,j,0,0,215,342524,2213872
8,19,female,Belgian,3,69,guess,loss,5,left,12,guess_outcome,0,undefined,0,0,200,340966,2215430
8,19,female,Belgian,3,69,ITC,loss,5,left,12,ITC_start,419,space,0,0,200,340546,2215850
8,19,female,Belgian,3,69,ITC,loss,5,left,12,ITC_choice,792,f,0,0,200,339753,2216643
8,19,female,Belgian,3,69,ITC,loss,5,left,12,ITC_wait,0,undefined,0,0,200,334752,2221644
8,19,female,Belgian,3,69,ITC,loss,5,left,12,ITC_collect,410,k,0,0,200,334340,2222056
8,19,female,Belgian,3,69,ITC,loss,5,left,12,ITC_outcome,0,undefined,0,0,220,333334,2223062
8,19,female,Belgian,3,70,guess,loss,10,right,5,guess_start,353,space,0,0,220,332979,2223417
8,19,female,Belgian,3,70,guess,loss,10,right,5,guess_choice,671,f,0,0,220,332306,2224090
8,19,female,Belgian,3,70,guess,loss,10,right,5,guess_outcome,0,undefined,0,0,205,330748,2225648
8,19,female,Belgian,3,70,ITC,loss,10,right,5,ITC_start,751,space,0,0,205,329996,2226400
8,19,female,Belgian,3,70,ITC,loss,10,right,5,ITC_choice,1283,j,0,0,205,328712,2227684
8,19,female,Belgian,3,70,ITC,loss,10,right,5,ITC_wait,0,undefined,0,0,205,318705,2237691
8,19,female,Belgian,3,70,ITC,loss,10,right,5,ITC_collect,841,k,0,0,205,317863,2238533
8,19,female,Belgian,3,70,ITC,loss,10,right,5,ITC_outcome,0,undefined,0,0,225,316859,2239537
8,19,female,Belgian,3,71,guess,win,10,left,8,guess_start,413,space,0,0,225,316444,2239952
8,19,female,Belgian,3,71,guess,win,10,left,8,guess_choice,640,f,0,0,225,315802,2240594
8,19,female,Belgian,3,71,guess,win,10,left,8,guess_outcome,0,undefined,0,0,245,314244,2242152
8,19,female,Belgian,3,71,ITC,win,10,left,8,ITC_start,375,space,0,0,245,313868,2242528
8,19,female,Belgian,3,71,ITC,win,10,left,8,ITC_choice,743,f,0,0,245,313124,2243272
8,19,female,Belgian,3,71,ITC,win,10,left,8,ITC_wait,0,undefined,0,0,245,303121,2253275
8,19,female,Belgian,3,71,ITC,win,10,left,8,ITC_collect,511,k,0,0,245,302608,2253788
8,19,female,Belgian,3,71,ITC,win,10,left,8,ITC_outcome,0,undefined,0,0,265,301606,2254790
8,19,female,Belgian,3,72,guess,win,10,right,3,guess_start,524,space,0,0,265,301080,2255316
8,19,female,Belgian,3,72,guess,win,10,right,3,guess_choice,606,f,0,0,265,300472,2255924
8,19,female,Belgian,3,72,guess,win,10,right,3,guess_outcome,0,undefined,0,0,285,298915,2257481
8,19,female,Belgian,3,72,ITC,win,10,right,3,ITC_start,561,space,0,0,285,298353,2258043
8,19,female,Belgian,3,72,ITC,win,10,right,3,ITC_choice,1447,j,0,0,285,296905,2259491
8,19,female,Belgian,3,72,ITC,win,10,right,3,ITC_wait,0,undefined,0,0,285,286898,2269498
8,19,female,Belgian,3,72,ITC,win,10,right,3,ITC_collect,572,k,0,0,285,286324,2270072
8,19,female,Belgian,3,72,ITC,win,10,right,3,ITC_outcome,0,undefined,0,0,305,285320,2271076
8,19,female,Belgian,3,73,guess,win,5,right,10,guess_start,281,space,0,0,305,285037,2271359
8,19,female,Belgian,3,73,guess,win,5,right,10,guess_choice,667,f,0,0,305,284368,2272028
8,19,female,Belgian,3,73,guess,win,5,right,10,guess_outcome,0,undefined,0,0,325,282815,2273581
8,19,female,Belgian,3,73,ITC,win,5,right,10,ITC_start,490,space,0,0,325,282323,2274073
8,19,female,Belgian,3,73,ITC,win,5,right,10,ITC_choice,738,j,0,0,325,281584,2274812
8,19,female,Belgian,3,73,ITC,win,5,right,10,ITC_wait,0,undefined,0,0,325,276578,2279818
8,19,female,Belgian,3,73,ITC,win,5,right,10,ITC_collect,1258,k,0,0,325,275318,2281078
8,19,female,Belgian,3,73,ITC,win,5,right,10,ITC_outcome,0,undefined,0,0,345,274311,2282085
8,19,female,Belgian,3,74,guess,loss,10,right,1,guess_start,378,space,0,0,345,273932,2282464
8,19,female,Belgian,3,74,guess,loss,10,right,1,guess_choice,666,f,0,0,345,273264,2283132
8,19,female,Belgian,3,74,guess,loss,10,right,1,guess_outcome,0,undefined,0,0,330,271706,2284690
8,19,female,Belgian,3,74,ITC,loss,10,right,1,ITC_start,828,space,0,0,330,270877,2285519
8,19,female,Belgian,3,74,ITC,loss,10,right,1,ITC_choice,1044,j,0,0,330,269831,2286565
8,19,female,Belgian,3,74,ITC,loss,10,right,1,ITC_wait,0,undefined,0,0,330,259825,2296571
8,19,female,Belgian,3,74,ITC,loss,10,right,1,ITC_collect,756,k,0,0,330,259067,2297329
8,19,female,Belgian,3,74,ITC,loss,10,right,1,ITC_outcome,0,undefined,0,0,350,258064,2298332
8,19,female,Belgian,3,75,guess,win,10,left,6,guess_start,1063,space,0,0,350,257000,2299396
8,19,female,Belgian,3,75,guess,win,10,left,6,guess_choice,681,j,0,0,350,256317,2300079
8,19,female,Belgian,3,75,guess,win,10,left,6,guess_outcome,0,undefined,0,0,370,254759,2301637
8,19,female,Belgian,3,75,ITC,win,10,left,6,ITC_start,421,space,0,0,370,254337,2302059
8,19,female,Belgian,3,75,ITC,win,10,left,6,ITC_choice,959,f,0,0,370,253377,2303019
8,19,female,Belgian,3,75,ITC,win,10,left,6,ITC_wait,0,undefined,0,0,370,243371,2313025
8,19,female,Belgian,3,75,ITC,win,10,left,6,ITC_collect,627,k,0,0,370,242742,2313654
8,19,female,Belgian,3,75,ITC,win,10,left,6,ITC_outcome,0,undefined,0,0,390,241736,2314660
8,19,female,Belgian,3,76,guess,loss,10,right,6,guess_start,313,space,0,0,390,241421,2314975
8,19,female,Belgian,3,76,guess,loss,10,right,6,guess_choice,669,f,0,0,390,240749,2315647
8,19,female,Belgian,3,76,guess,loss,10,right,6,guess_outcome,0,undefined,0,0,375,239196,2317200
8,19,female,Belgian,3,76,ITC,loss,10,right,6,ITC_start,374,space,0,0,375,238820,2317576
8,19,female,Belgian,3,76,ITC,loss,10,right,6,ITC_choice,476,f,0,0,375,238344,2318052
8,19,female,Belgian,3,76,ITC,loss,10,right,6,ITC_wait,0,undefined,0,0,375,238342,2318054
8,19,female,Belgian,3,76,ITC,loss,10,right,6,ITC_collect,1552,k,0,0,375,236788,2319608
8,19,female,Belgian,3,76,ITC,loss,10,right,6,ITC_outcome,0,undefined,0,0,381,235783,2320613
8,19,female,Belgian,3,77,guess,win,5,right,16,guess_start,342,space,0,0,381,235439,2320957
8,19,female,Belgian,3,77,guess,win,5,right,16,guess_choice,576,j,0,0,381,234861,2321535
8,19,female,Belgian,3,77,guess,win,5,right,16,guess_outcome,0,undefined,0,0,401,233306,2323090
8,19,female,Belgian,3,77,ITC,win,5,right,16,ITC_start,847,space,0,0,401,232457,2323939
8,19,female,Belgian,3,77,ITC,win,5,right,16,ITC_choice,1381,j,0,0,401,231076,2325320
8,19,female,Belgian,3,77,ITC,win,5,right,16,ITC_wait,0,undefined,0,0,401,226073,2330323
8,19,female,Belgian,3,77,ITC,win,5,right,16,ITC_collect,2214,k,0,0,401,223858,2332538
8,19,female,Belgian,3,77,ITC,win,5,right,16,ITC_outcome,0,undefined,0,0,421,222856,2333540
8,19,female,Belgian,3,78,guess,neutral,5,left,16,guess_start,319,space,0,0,421,222535,2333861
8,19,female,Belgian,3,78,guess,neutral,5,left,16,guess_choice,1008,f,0,0,421,221524,2334872
8,19,female,Belgian,3,78,guess,neutral,5,left,16,guess_outcome,0,undefined,0,0,421,219966,2336430
8,19,female,Belgian,3,78,ITC,neutral,5,left,16,ITC_start,409,space,0,0,421,219556,2336840
8,19,female,Belgian,3,78,ITC,neutral,5,left,16,ITC_choice,799,f,0,0,421,218755,2337641
8,19,female,Belgian,3,78,ITC,neutral,5,left,16,ITC_wait,0,undefined,0,0,421,213749,2342647
8,19,female,Belgian,3,78,ITC,neutral,5,left,16,ITC_collect,636,k,0,0,421,213111,2343285
8,19,female,Belgian,3,78,ITC,neutral,5,left,16,ITC_outcome,0,undefined,0,0,441,212106,2344290
8,19,female,Belgian,3,79,guess,neutral,5,right,2,guess_start,497,space,0,0,441,211607,2344789
8,19,female,Belgian,3,79,guess,neutral,5,right,2,guess_choice,916,j,0,0,441,210690,2345706
8,19,female,Belgian,3,79,guess,neutral,5,right,2,guess_outcome,0,undefined,0,0,441,209135,2347261
8,19,female,Belgian,3,79,ITC,neutral,5,right,2,ITC_start,503,space,0,0,441,208630,2347766
8,19,female,Belgian,3,79,ITC,neutral,5,right,2,ITC_choice,758,j,0,0,441,207871,2348525
8,19,female,Belgian,3,79,ITC,neutral,5,right,2,ITC_wait,0,undefined,0,0,441,202864,2353532
8,19,female,Belgian,3,79,ITC,neutral,5,right,2,ITC_collect,486,k,0,0,441,202376,2354020
8,19,female,Belgian,3,79,ITC,neutral,5,right,2,ITC_outcome,0,undefined,0,0,461,201372,2355024
8,19,female,Belgian,3,80,guess,win,10,right,2,guess_start,338,space,0,0,461,201032,2355364
8,19,female,Belgian,3,80,guess,win,10,right,2,guess_choice,642,f,0,0,461,200388,2356008
8,19,female,Belgian,3,80,guess,win,10,right,2,guess_outcome,0,undefined,0,0,481,198833,2357563
8,19,female,Belgian,3,80,ITC,win,10,right,2,ITC_start,354,space,0,0,481,198477,2357919
8,19,female,Belgian,3,80,ITC,win,10,right,2,ITC_choice,764,j,0,0,481,197712,2358684
8,19,female,Belgian,3,80,ITC,win,10,right,2,ITC_wait,0,undefined,0,0,481,187706,2368690
8,19,female,Belgian,3,80,ITC,win,10,right,2,ITC_collect,933,k,0,0,481,186771,2369625
8,19,female,Belgian,3,80,ITC,win,10,right,2,ITC_outcome,0,undefined,0,0,501,185765,2370631
8,19,female,Belgian,3,81,guess,win,10,right,8,guess_start,648,space,0,0,501,185115,2371281
8,19,female,Belgian,3,81,guess,win,10,right,8,guess_choice,793,f,0,0,501,184319,2372077
8,19,female,Belgian,3,81,guess,win,10,right,8,guess_outcome,0,undefined,0,0,521,182764,2373632
8,19,female,Belgian,3,81,ITC,win,10,right,8,ITC_start,594,space,0,0,521,182169,2374227
8,19,female,Belgian,3,81,ITC,win,10,right,8,ITC_choice,822,j,0,0,521,181346,2375050
8,19,female,Belgian,3,81,ITC,win,10,right,8,ITC_wait,0,undefined,0,0,521,171340,2385056
8,19,female,Belgian,3,81,ITC,win,10,right,8,ITC_collect,542,k,0,0,521,170796,2385600
8,19,female,Belgian,3,81,ITC,win,10,right,8,ITC_outcome,0,undefined,0,0,541,169789,2386607
8,19,female,Belgian,3,82,guess,neutral,10,left,8,guess_start,649,space,0,0,541,169138,2387258
8,19,female,Belgian,3,82,guess,neutral,10,left,8,guess_choice,653,f,0,0,541,168483,2387913
8,19,female,Belgian,3,82,guess,neutral,10,left,8,guess_outcome,0,undefined,0,0,541,166928,2389468
8,19,female,Belgian,3,82,ITC,neutral,10,left,8,ITC_start,424,space,0,0,541,166503,2389893
8,19,female,Belgian,3,82,ITC,neutral,10,left,8,ITC_choice,793,f,0,0,541,165709,2390687
8,19,female,Belgian,3,82,ITC,neutral,10,left,8,ITC_wait,0,undefined,0,0,541,155703,2400693
8,19,female,Belgian,3,82,ITC,neutral,10,left,8,ITC_collect,619,k,0,0,541,155082,2401314
8,19,female,Belgian,3,82,ITC,neutral,10,left,8,ITC_outcome,0,undefined,0,0,561,154076,2402320
8,19,female,Belgian,3,83,guess,win,5,left,11,guess_start,401,space,0,0,561,153673,2402723
8,19,female,Belgian,3,83,guess,win,5,left,11,guess_choice,622,f,0,0,561,153049,2403347
8,19,female,Belgian,3,83,guess,win,5,left,11,guess_outcome,0,undefined,0,0,581,151492,2404904
8,19,female,Belgian,3,83,ITC,win,5,left,11,ITC_start,349,space,0,0,581,151141,2405255
8,19,female,Belgian,3,83,ITC,win,5,left,11,ITC_choice,661,f,0,0,581,150479,2405917
8,19,female,Belgian,3,83,ITC,win,5,left,11,ITC_wait,0,undefined,0,0,581,145473,2410923
8,19,female,Belgian,3,83,ITC,win,5,left,11,ITC_collect,2241,k,0,0,581,143230,2413166
8,19,female,Belgian,3,83,ITC,win,5,left,11,ITC_outcome,0,undefined,0,0,601,142225,2414171
8,19,female,Belgian,3,84,guess,loss,5,right,3,guess_start,287,space,0,0,601,141935,2414461
8,19,female,Belgian,3,84,guess,loss,5,right,3,guess_choice,631,j,0,0,601,141302,2415094
8,19,female,Belgian,3,84,guess,loss,5,right,3,guess_outcome,0,undefined,0,0,586,139746,2416650
8,19,female,Belgian,3,84,ITC,loss,5,right,3,ITC_start,325,space,0,0,586,139419,2416977
8,19,female,Belgian,3,84,ITC,loss,5,right,3,ITC_choice,699,j,0,0,586,138719,2417677
8,19,female,Belgian,3,84,ITC,loss,5,right,3,ITC_wait,0,undefined,0,0,586,133715,2422681
8,19,female,Belgian,3,84,ITC,loss,5,right,3,ITC_collect,777,k,0,0,586,132936,2423460
8,19,female,Belgian,3,84,ITC,loss,5,right,3,ITC_outcome,0,undefined,0,0,606,131931,2424465
8,19,female,Belgian,3,85,guess,loss,10,left,8,guess_start,315,space,0,0,606,131614,2424782
8,19,female,Belgian,3,85,guess,loss,10,left,8,guess_choice,777,f,0,0,606,130835,2425561
8,19,female,Belgian,3,85,guess,loss,10,left,8,guess_outcome,0,undefined,0,0,591,129278,2427118
8,19,female,Belgian,3,85,ITC,loss,10,left,8,ITC_start,379,space,0,0,591,128898,2427498
8,19,female,Belgian,3,85,ITC,loss,10,left,8,ITC_choice,835,f,0,0,591,128062,2428334
8,19,female,Belgian,3,85,ITC,loss,10,left,8,ITC_wait,0,undefined,0,0,591,118055,2438341
8,19,female,Belgian,3,85,ITC,loss,10,left,8,ITC_collect,443,k,0,0,591,117610,2438786
8,19,female,Belgian,3,85,ITC,loss,10,left,8,ITC_outcome,0,undefined,0,0,611,116605,2439791
8,19,female,Belgian,3,86,guess,neutral,5,left,3,guess_start,307,space,0,0,611,116296,2440100
8,19,female,Belgian,3,86,guess,neutral,5,left,3,guess_choice,841,f,0,0,611,115453,2440943
8,19,female,Belgian,3,86,guess,neutral,5,left,3,guess_outcome,0,undefined,0,0,611,113895,2442501
8,19,female,Belgian,3,86,ITC,neutral,5,left,3,ITC_start,663,space,0,0,611,113231,2443165
8,19,female,Belgian,3,86,ITC,neutral,5,left,3,ITC_choice,800,f,0,0,611,112430,2443966
8,19,female,Belgian,3,86,ITC,neutral,5,left,3,ITC_wait,0,undefined,0,0,611,107424,2448972
8,19,female,Belgian,3,86,ITC,neutral,5,left,3,ITC_collect,838,k,0,0,611,106584,2449812
8,19,female,Belgian,3,86,ITC,neutral,5,left,3,ITC_outcome,0,undefined,0,0,631,105580,2450816
8,19,female,Belgian,3,87,guess,win,5,left,1,guess_start,782,space,0,0,631,104797,2451599
8,19,female,Belgian,3,87,guess,win,5,left,1,guess_choice,762,f,0,0,631,104033,2452363
8,19,female,Belgian,3,87,guess,win,5,left,1,guess_outcome,0,undefined,0,0,651,102476,2453920
8,19,female,Belgian,3,87,ITC,win,5,left,1,ITC_start,748,space,0,0,651,101726,2454670
8,19,female,Belgian,3,87,ITC,win,5,left,1,ITC_choice,776,f,0,0,651,100949,2455447
8,19,female,Belgian,3,87,ITC,win,5,left,1,ITC_wait,0,undefined,0,0,651,95945,2460451
8,19,female,Belgian,3,87,ITC,win,5,left,1,ITC_collect,485,k,0,0,651,95458,2460938
8,19,female,Belgian,3,87,ITC,win,5,left,1,ITC_outcome,0,undefined,0,0,671,94456,2461940
8,19,female,Belgian,3,88,guess,loss,10,left,7,guess_start,371,space,0,0,671,94083,2462313
8,19,female,Belgian,3,88,guess,loss,10,left,7,guess_choice,769,f,0,0,671,93312,2463084
8,19,female,Belgian,3,88,guess,loss,10,left,7,guess_outcome,0,undefined,0,0,656,91759,2464637
8,19,female,Belgian,3,88,ITC,loss,10,left,7,ITC_start,346,space,0,0,656,91412,2464984
8,19,female,Belgian,3,88,ITC,loss,10,left,7,ITC_choice,1321,f,0,0,656,90091,2466305
8,19,female,Belgian,3,88,ITC,loss,10,left,7,ITC_wait,0,undefined,0,0,656,80083,2476313
8,19,female,Belgian,3,88,ITC,loss,10,left,7,ITC_collect,2742,k,0,0,656,77339,2479057
8,19,female,Belgian,3,88,ITC,loss,10,left,7,ITC_outcome,0,undefined,0,0,676,76336,2480060
8,19,female,Belgian,3,89,guess,loss,5,right,2,guess_start,153,space,0,0,676,76181,2480215
8,19,female,Belgian,3,89,guess,loss,5,right,2,guess_choice,704,j,0,0,676,75475,2480921
8,19,female,Belgian,3,89,guess,loss,5,right,2,guess_outcome,0,undefined,0,0,661,73921,2482475
8,19,female,Belgian,3,89,ITC,loss,5,right,2,ITC_start,355,space,0,0,661,73565,2482831
8,19,female,Belgian,3,89,ITC,loss,5,right,2,ITC_choice,782,j,0,0,661,72782,2483614
8,19,female,Belgian,3,89,ITC,loss,5,right,2,ITC_wait,0,undefined,0,0,661,67780,2488616
8,19,female,Belgian,3,89,ITC,loss,5,right,2,ITC_collect,1159,k,0,0,661,66619,2489777
8,19,female,Belgian,3,89,ITC,loss,5,right,2,ITC_outcome,0,undefined,0,0,681,65613,2490783
8,19,female,Belgian,3,90,guess,loss,5,left,15,guess_start,1351,space,0,0,681,64261,2492135
8,19,female,Belgian,3,90,guess,loss,5,left,15,guess_choice,647,f,0,0,681,63612,2492784
8,19,female,Belgian,3,90,guess,loss,5,left,15,guess_outcome,0,undefined,0,0,666,62056,2494340
8,19,female,Belgian,3,90,ITC,loss,5,left,15,ITC_start,655,space,0,0,666,61400,2494996
8,19,female,Belgian,3,90,ITC,loss,5,left,15,ITC_choice,775,f,0,0,666,60624,2495772
8,19,female,Belgian,3,90,ITC,loss,5,left,15,ITC_wait,0,undefined,0,0,666,55618,2500778
8,19,female,Belgian,3,90,ITC,loss,5,left,15,ITC_collect,1289,k,0,0,666,54327,2502069
8,19,female,Belgian,3,90,ITC,loss,5,left,15,ITC_outcome,0,undefined,0,0,686,53325,2503071
8,19,female,Belgian,3,91,guess,neutral,10,right,2,guess_start,970,space,0,0,686,52352,2504044
8,19,female,Belgian,3,91,guess,neutral,10,right,2,guess_choice,899,f,0,0,686,51450,2504946
8,19,female,Belgian,3,91,guess,neutral,10,right,2,guess_outcome,0,undefined,0,0,686,49892,2506504
8,19,female,Belgian,3,91,ITC,neutral,10,right,2,ITC_start,583,space,0,0,686,49308,2507088
8,19,female,Belgian,3,91,ITC,neutral,10,right,2,ITC_choice,769,j,0,0,686,48538,2507858
8,19,female,Belgian,3,91,ITC,neutral,10,right,2,ITC_wait,0,undefined,0,0,686,38531,2517865
8,19,female,Belgian,3,91,ITC,neutral,10,right,2,ITC_collect,489,k,0,0,686,38041,2518355
8,19,female,Belgian,3,91,ITC,neutral,10,right,2,ITC_outcome,0,undefined,0,0,706,37036,2519360
8,19,female,Belgian,3,92,guess,win,5,right,9,guess_start,364,space,0,0,706,36670,2519726
8,19,female,Belgian,3,92,guess,win,5,right,9,guess_choice,629,f,0,0,706,36039,2520357
8,19,female,Belgian,3,92,guess,win,5,right,9,guess_outcome,0,undefined,0,0,726,34483,2521913
8,19,female,Belgian,3,92,ITC,win,5,right,9,ITC_start,464,space,0,0,726,34017,2522379
8,19,female,Belgian,3,92,ITC,win,5,right,9,ITC_choice,901,j,0,0,726,33116,2523280
8,19,female,Belgian,3,92,ITC,win,5,right,9,ITC_wait,0,undefined,0,0,726,28109,2528287
8,19,female,Belgian,3,92,ITC,win,5,right,9,ITC_collect,821,k,0,0,726,27286,2529110
8,19,female,Belgian,3,92,ITC,win,5,right,9,ITC_outcome,0,undefined,0,0,746,26280,2530116
8,19,female,Belgian,3,93,guess,win,10,left,3,guess_start,354,space,0,0,746,25925,2530471
8,19,female,Belgian,3,93,guess,win,10,left,3,guess_choice,626,j,0,0,746,25296,2531100
8,19,female,Belgian,3,93,guess,win,10,left,3,guess_outcome,0,undefined,0,0,766,23738,2532658
8,19,female,Belgian,3,93,ITC,win,10,left,3,ITC_start,423,space,0,0,766,23313,2533083
8,19,female,Belgian,3,93,ITC,win,10,left,3,ITC_choice,962,f,0,0,766,22350,2534046
8,19,female,Belgian,3,93,ITC,win,10,left,3,ITC_wait,0,undefined,0,0,766,12348,2544048
8,19,female,Belgian,3,93,ITC,win,10,left,3,ITC_collect,491,k,0,0,766,11855,2544541
8,19,female,Belgian,3,93,ITC,win,10,left,3,ITC_outcome,0,undefined,0,0,786,10849,2545547
8,19,female,Belgian,3,94,guess,loss,10,left,2,guess_start,291,space,0,0,786,10556,2545840
8,19,female,Belgian,3,94,guess,loss,10,left,2,guess_choice,674,f,0,0,786,9879,2546517
8,19,female,Belgian,3,94,guess,loss,10,left,2,guess_outcome,0,undefined,0,0,771,8324,2548072
8,19,female,Belgian,3,94,ITC,loss,10,left,2,ITC_start,113,space,0,0,771,8209,2548187
8,19,female,Belgian,3,94,ITC,loss,10,left,2,ITC_choice,680,f,0,0,771,7528,2548868
8,19,female,Belgian,3,94,ITC,loss,10,left,2,ITC_wait,0,undefined,0,0,771,-6,2556402
8,19,female,Belgian,4,95,guess,neutral,5,left,11,guess_start,1000,space,0,0,0,478999,3090379
8,19,female,Belgian,4,95,guess,neutral,5,left,11,guess_choice,890,j,0,0,0,478107,3091271
8,19,female,Belgian,4,95,guess,neutral,5,left,11,guess_outcome,0,undefined,0,0,0,476549,3092829
8,19,female,Belgian,4,95,ITC,neutral,5,left,11,ITC_start,478,space,0,0,0,476069,3093309
8,19,female,Belgian,4,95,ITC,neutral,5,left,11,ITC_choice,842,f,0,0,0,475225,3094153
8,19,female,Belgian,4,95,ITC,neutral,5,left,11,ITC_wait,0,undefined,0,0,0,470219,3099159
8,19,female,Belgian,4,95,ITC,neutral,5,left,11,ITC_collect,410,k,0,0,0,469807,3099571
8,19,female,Belgian,4,95,ITC,neutral,5,left,11,ITC_outcome,0,undefined,0,0,20,468800,3100578
8,19,female,Belgian,4,96,guess,neutral,5,left,7,guess_start,349,space,0,0,20,468450,3100928
8,19,female,Belgian,4,96,guess,neutral,5,left,7,guess_choice,721,j,0,0,20,467727,3101651
8,19,female,Belgian,4,96,guess,neutral,5,left,7,guess_outcome,0,undefined,0,0,20,466169,3103209
8,19,female,Belgian,4,96,ITC,neutral,5,left,7,ITC_start,260,space,0,0,20,465908,3103470
8,19,female,Belgian,4,96,ITC,neutral,5,left,7,ITC_choice,618,f,0,0,20,465288,3104090
8,19,female,Belgian,4,96,ITC,neutral,5,left,7,ITC_wait,0,undefined,0,0,20,460283,3109095
8,19,female,Belgian,4,96,ITC,neutral,5,left,7,ITC_collect,430,k,0,0,20,459851,3109527
8,19,female,Belgian,4,96,ITC,neutral,5,left,7,ITC_outcome,0,undefined,0,0,40,458846,3110532
8,19,female,Belgian,4,97,guess,loss,5,right,10,guess_start,324,space,0,0,40,458520,3110858
8,19,female,Belgian,4,97,guess,loss,5,right,10,guess_choice,575,f,0,0,40,457942,3111436
8,19,female,Belgian,4,97,guess,loss,5,right,10,guess_outcome,0,undefined,0,0,25,456384,3112994
8,19,female,Belgian,4,97,ITC,loss,5,right,10,ITC_start,264,space,0,0,25,456119,3113259
8,19,female,Belgian,4,97,ITC,loss,5,right,10,ITC_choice,751,j,0,0,25,455367,3114011
8,19,female,Belgian,4,97,ITC,loss,5,right,10,ITC_wait,0,undefined,0,0,25,450364,3119014
8,19,female,Belgian,4,97,ITC,loss,5,right,10,ITC_collect,597,k,0,0,25,449766,3119612
8,19,female,Belgian,4,97,ITC,loss,5,right,10,ITC_outcome,0,undefined,0,0,45,448760,3120618
8,19,female,Belgian,4,98,guess,win,5,left,7,guess_start,300,space,0,0,45,448459,3120919
8,19,female,Belgian,4,98,guess,win,5,left,7,guess_choice,530,f,0,0,45,447927,3121451
8,19,female,Belgian,4,98,guess,win,5,left,7,guess_outcome,0,undefined,0,0,65,446374,3123004
8,19,female,Belgian,4,98,ITC,win,5,left,7,ITC_start,276,space,0,0,65,446097,3123281
8,19,female,Belgian,4,98,ITC,win,5,left,7,ITC_choice,625,j,0,0,65,445471,3123907
8,19,female,Belgian,4,98,ITC,win,5,left,7,ITC_wait,0,undefined,0,0,65,445468,3123910
8,19,female,Belgian,4,98,ITC,win,5,left,7,ITC_collect,985,k,0,0,65,444482,3124896
8,19,female,Belgian,4,98,ITC,win,5,left,7,ITC_outcome,0,undefined,0,0,72,443477,3125901
8,19,female,Belgian,4,99,guess,loss,5,left,4,guess_start,329,space,0,0,72,443146,3126232
8,19,female,Belgian,4,99,guess,loss,5,left,4,guess_choice,516,f,0,0,72,442628,3126750
8,19,female,Belgian,4,99,guess,loss,5,left,4,guess_outcome,0,undefined,0,0,57,441074,3128304
8,19,female,Belgian,4,99,ITC,loss,5,left,4,ITC_start,291,space,0,0,57,440782,3128596
8,19,female,Belgian,4,99,ITC,loss,5,left,4,ITC_choice,759,f,0,0,57,440022,3129356
8,19,female,Belgian,4,99,ITC,loss,5,left,4,ITC_wait,0,undefined,0,0,57,435019,3134359
8,19,female,Belgian,4,99,ITC,loss,5,left,4,ITC_collect,445,k,0,0,57,434573,3134805
8,19,female,Belgian,4,99,ITC,loss,5,left,4,ITC_outcome,0,undefined,0,0,77,433567,3135811
8,19,female,Belgian,4,100,guess,win,10,right,1,guess_start,297,space,0,0,77,433268,3136110
8,19,female,Belgian,4,100,guess,win,10,right,1,guess_choice,628,f,0,0,77,432638,3136740
8,19,female,Belgian,4,100,guess,win,10,right,1,guess_outcome,0,undefined,0,0,97,431081,3138297
8,19,female,Belgian,4,100,ITC,win,10,right,1,ITC_start,539,space,0,0,97,430540,3138838
8,19,female,Belgian,4,100,ITC,win,10,right,1,ITC_choice,692,j,0,0,97,429846,3139532
8,19,female,Belgian,4,100,ITC,win,10,right,1,ITC_wait,0,undefined,0,0,97,419840,3149538
8,19,female,Belgian,4,100,ITC,win,10,right,1,ITC_collect,400,k,0,0,97,419438,3149940
8,19,female,Belgian,4,100,ITC,win,10,right,1,ITC_outcome,0,undefined,0,0,117,418436,3150942
8,19,female,Belgian,4,101,guess,neutral,10,left,7,guess_start,73,space,0,0,117,418361,3151017
8,19,female,Belgian,4,101,guess,neutral,10,left,7,guess_choice,570,f,0,0,117,417789,3151589
8,19,female,Belgian,4,101,guess,neutral,10,left,7,guess_outcome,0,undefined,0,0,117,416232,3153146
8,19,female,Belgian,4,101,ITC,neutral,10,left,7,ITC_start,307,space,0,0,117,415924,3153454
8,19,female,Belgian,4,101,ITC,neutral,10,left,7,ITC_choice,642,f,0,0,117,415281,3154097
8,19,female,Belgian,4,101,ITC,neutral,10,left,7,ITC_wait,0,undefined,0,0,117,405274,3164104
8,19,female,Belgian,4,101,ITC,neutral,10,left,7,ITC_collect,393,k,0,0,117,404880,3164498
8,19,female,Belgian,4,101,ITC,neutral,10,left,7,ITC_outcome,0,undefined,0,0,137,403875,3165503
8,19,female,Belgian,4,102,guess,neutral,10,left,5,guess_start,327,space,0,0,137,403546,3165832
8,19,female,Belgian,4,102,guess,neutral,10,left,5,guess_choice,504,f,0,0,137,403040,3166338
8,19,female,Belgian,4,102,guess,neutral,10,left,5,guess_outcome,0,undefined,0,0,137,401487,3167891
8,19,female,Belgian,4,102,ITC,neutral,10,left,5,ITC_start,247,space,0,0,137,401239,3168139
8,19,female,Belgian,4,102,ITC,neutral,10,left,5,ITC_choice,578,f,0,0,137,400661,3168717
8,19,female,Belgian,4,102,ITC,neutral,10,left,5,ITC_wait,0,undefined,0,0,137,390654,3178724
8,19,female,Belgian,4,102,ITC,neutral,10,left,5,ITC_collect,989,k,0,0,137,389663,3179715
8,19,female,Belgian,4,102,ITC,neutral,10,left,5,ITC_outcome,0,undefined,0,0,157,388658,3180720
8,19,female,Belgian,4,103,guess,win,5,right,4,guess_start,362,space,0,0,157,388294,3181084
8,19,female,Belgian,4,103,guess,win,5,right,4,guess_choice,568,f,0,0,157,387725,3181653
8,19,female,Belgian,4,103,guess,win,5,right,4,guess_outcome,0,undefined,0,0,177,386169,3183209
8,19,female,Belgian,4,103,ITC,win,5,right,4,ITC_start,377,space,0,0,177,385790,3183588
8,19,female,Belgian,4,103,ITC,win,5,right,4,ITC_choice,792,j,0,0,177,384997,3184381
8,19,female,Belgian,4,103,ITC,win,5,right,4,ITC_wait,0,undefined,0,0,177,379995,3189383
8,19,female,Belgian,4,103,ITC,win,5,right,4,ITC_collect,833,k,0,0,177,379161,3190217
8,19,female,Belgian,4,103,ITC,win,5,right,4,ITC_outcome,0,undefined,0,0,197,378155,3191223
8,19,female,Belgian,4,104,guess,win,5,right,2,guess_start,466,space,0,0,197,377688,3191690
8,19,female,Belgian,4,104,guess,win,5,right,2,guess_choice,545,f,0,0,197,377141,3192237
8,19,female,Belgian,4,104,guess,win,5,right,2,guess_outcome,0,undefined,0,0,217,375583,3193795
8,19,female,Belgian,4,104,ITC,win,5,right,2,ITC_start,372,space,0,0,217,375210,3194168
8,19,female,Belgian,4,104,ITC,win,5,right,2,ITC_choice,661,j,0,0,217,374548,3194830
8,19,female,Belgian,4,104,ITC,win,5,right,2,ITC_wait,0,undefined,0,0,217,369541,3199837
8,19,female,Belgian,4,104,ITC,win,5,right,2,ITC_collect,429,k,0,0,217,369111,3200267
8,19,female,Belgian,4,104,ITC,win,5,right,2,ITC_outcome,0,undefined,0,0,237,368105,3201273
8,19,female,Belgian,4,105,guess,loss,5,left,5,guess_start,268,space,0,0,237,367836,3201542
8,19,female,Belgian,4,105,guess,loss,5,left,5,guess_choice,567,f,0,0,237,367267,3202111
8,19,female,Belgian,4,105,guess,loss,5,left,5,guess_outcome,0,undefined,0,0,222,365709,3203669
8,19,female,Belgian,4,105,ITC,loss,5,left,5,ITC_start,346,space,0,0,222,365362,3204016
8,19,female,Belgian,4,105,ITC,loss,5,left,5,ITC_choice,644,f,0,0,222,364717,3204661
8,19,female,Belgian,4,105,ITC,loss,5,left,5,ITC_wait,0,undefined,0,0,222,359714,3209664
8,19,female,Belgian,4,105,ITC,loss,5,left,5,ITC_collect,880,k,0,0,222,358832,3210546
8,19,female,Belgian,4,105,ITC,loss,5,left,5,ITC_outcome,0,undefined,0,0,242,357830,3211548
8,19,female,Belgian,4,106,guess,neutral,5,right,6,guess_start,640,space,0,0,242,357189,3212189
8,19,female,Belgian,4,106,guess,neutral,5,right,6,guess_choice,638,f,0,0,242,356549,3212829
8,19,female,Belgian,4,106,guess,neutral,5,right,6,guess_outcome,0,undefined,0,0,242,354991,3214387
8,19,female,Belgian,4,106,ITC,neutral,5,right,6,ITC_start,577,space,0,0,242,354413,3214965
8,19,female,Belgian,4,106,ITC,neutral,5,right,6,ITC_choice,1689,j,0,0,242,352723,3216655
8,19,female,Belgian,4,106,ITC,neutral,5,right,6,ITC_wait,0,undefined,0,0,242,347720,3221658
8,19,female,Belgian,4,106,ITC,neutral,5,right,6,ITC_collect,1248,k,0,0,242,346471,3222907
8,19,female,Belgian,4,106,ITC,neutral,5,right,6,ITC_outcome,0,undefined,0,0,262,345469,3223909
8,19,female,Belgian,4,107,guess,loss,10,left,5,guess_start,311,space,0,0,262,345156,3224222
8,19,female,Belgian,4,107,guess,loss,10,left,5,guess_choice,598,j,0,0,262,344556,3224822
8,19,female,Belgian,4,107,guess,loss,10,left,5,guess_outcome,0,undefined,0,0,247,342998,3226380
8,19,female,Belgian,4,107,ITC,loss,10,left,5,ITC_start,205,space,0,0,247,342792,3226586
8,19,female,Belgian,4,107,ITC,loss,10,left,5,ITC_choice,586,f,0,0,247,342204,3227174
8,19,female,Belgian,4,107,ITC,loss,10,left,5,ITC_wait,0,undefined,0,0,247,332197,3237181
8,19,female,Belgian,4,107,ITC,loss,10,left,5,ITC_collect,415,k,0,0,247,331780,3237598
8,19,female,Belgian,4,107,ITC,loss,10,left,5,ITC_outcome,0,undefined,0,0,267,330773,3238605
8,19,female,Belgian,4,108,guess,win,5,left,8,guess_start,313,space,0,0,267,330458,3238920
8,19,female,Belgian,4,108,guess,win,5,left,8,guess_choice,500,f,0,0,267,329956,3239422
8,19,female,Belgian,4,108,guess,win,5,left,8,guess_outcome,0,undefined,0,0,287,328401,3240977
8,19,female,Belgian,4,108,ITC,win,5,left,8,ITC_start,884,space,0,0,287,327515,3241863
8,19,female,Belgian,4,108,ITC,win,5,left,8,ITC_choice,526,f,0,0,287,326988,3242390
8,19,female,Belgian,4,108,ITC,win,5,left,8,ITC_wait,0,undefined,0,0,287,321982,3247396
8,19,female,Belgian,4,108,ITC,win,5,left,8,ITC_collect,418,k,0,0,287,321563,3247815
8,19,female,Belgian,4,108,ITC,win,5,left,8,ITC_outcome,0,undefined,0,0,307,320558,3248820
8,19,female,Belgian,4,109,guess,neutral,10,right,4,guess_start,251,space,0,0,307,320306,3249072
8,19,female,Belgian,4,109,guess,neutral,10,right,4,guess_choice,682,j,0,0,307,319621,3249757
8,19,female,Belgian,4,109,guess,neutral,10,right,4,guess_outcome,0,undefined,0,0,307,318065,3251313
8,19,female,Belgian,4,109,ITC,neutral,10,right,4,ITC_start,467,space,0,0,307,317596,3251782
8,19,female,Belgian,4,109,ITC,neutral,10,right,4,ITC_choice,741,j,0,0,307,316854,3252524
8,19,female,Belgian,4,109,ITC,neutral,10,right,4,ITC_wait,0,undefined,0,0,307,306848,3262530
8,19,female,Belgian,4,109,ITC,neutral,10,right,4,ITC_collect,409,k,0,0,307,306437,3262941
8,19,female,Belgian,4,109,ITC,neutral,10,right,4,ITC_outcome,0,undefined,0,0,327,305431,3263947
8,19,female,Belgian,4,110,guess,win,10,left,7,guess_start,264,space,0,0,327,305165,3264213
8,19,female,Belgian,4,110,guess,win,10,left,7,guess_choice,643,f,0,0,327,304520,3264858
8,19,female,Belgian,4,110,guess,win,10,left,7,guess_outcome,0,undefined,0,0,347,302964,3266414
8,19,female,Belgian,4,110,ITC,win,10,left,7,ITC_start,395,space,0,0,347,302568,3266810
8,19,female,Belgian,4,110,ITC,win,10,left,7,ITC_choice,580,f,0,0,347,301987,3267391
8,19,female,Belgian,4,110,ITC,win,10,left,7,ITC_wait,0,undefined,0,0,347,291924,3277454
8,19,female,Belgian,4,110,ITC,win,10,left,7,ITC_collect,417,k,0,0,347,291504,3277874
8,19,female,Belgian,4,110,ITC,win,10,left,7,ITC_outcome,0,undefined,0,0,367,290499,3278879
8,19,female,Belgian,4,111,guess,neutral,10,right,6,guess_start,231,space,0,0,367,290265,3279113
8,19,female,Belgian,4,111,guess,neutral,10,right,6,guess_choice,606,j,0,0,367,289657,3279721
8,19,female,Belgian,4,111,guess,neutral,10,right,6,guess_outcome,0,undefined,0,0,367,288104,3281274
8,19,female,Belgian,4,111,ITC,neutral,10,right,6,ITC_start,232,space,0,0,367,287870,3281508
8,19,female,Belgian,4,111,ITC,neutral,10,right,6,ITC_choice,764,j,0,0,367,287105,3282273
8,19,female,Belgian,4,111,ITC,neutral,10,right,6,ITC_wait,0,undefined,0,0,367,277102,3292276
8,19,female,Belgian,4,111,ITC,neutral,10,right,6,ITC_collect,627,k,0,0,367,276473,3292905
8,19,female,Belgian,4,111,ITC,neutral,10,right,6,ITC_outcome,0,undefined,0,0,387,275468,3293910
8,19,female,Belgian,4,112,guess,neutral,5,right,9,guess_start,422,space,0,0,387,275045,3294333
8,19,female,Belgian,4,112,guess,neutral,5,right,9,guess_choice,885,j,0,0,387,274158,3295220
8,19,female,Belgian,4,112,guess,neutral,5,right,9,guess_outcome,0,undefined,0,0,387,272603,3296775
8,19,female,Belgian,4,112,ITC,neutral,5,right,9,ITC_start,282,space,0,0,387,272320,3297058
8,19,female,Belgian,4,112,ITC,neutral,5,right,9,ITC_choice,696,j,0,0,387,271623,3297755
8,19,female,Belgian,4,112,ITC,neutral,5,right,9,ITC_wait,0,undefined,0,0,387,266618,3302760
8,19,female,Belgian,4,112,ITC,neutral,5,right,9,ITC_collect,512,k,0,0,387,266104,3303274
8,19,female,Belgian,4,112,ITC,neutral,5,right,9,ITC_outcome,0,undefined,0,0,407,265099,3304279
8,19,female,Belgian,4,113,guess,loss,5,left,7,guess_start,379,space,0,0,407,264718,3304660
8,19,female,Belgian,4,113,guess,loss,5,left,7,guess_choice,675,f,0,0,407,264041,3305337
8,19,female,Belgian,4,113,guess,loss,5,left,7,guess_outcome,0,undefined,0,0,392,262483,3306895
8,19,female,Belgian,4,113,ITC,loss,5,left,7,ITC_start,490,space,0,0,392,261992,3307386
8,19,female,Belgian,4,113,ITC,loss,5,left,7,ITC_choice,771,f,0,0,392,261220,3308158
8,19,female,Belgian,4,113,ITC,loss,5,left,7,ITC_wait,0,undefined,0,0,392,256218,3313160
8,19,female,Belgian,4,113,ITC,loss,5,left,7,ITC_collect,778,k,0,0,392,255438,3313940
8,19,female,Belgian,4,113,ITC,loss,5,left,7,ITC_outcome,0,undefined,0,0,412,254434,3314944
8,19,female,Belgian,4,114,guess,neutral,10,left,3,guess_start,396,space,0,0,412,254037,3315341
8,19,female,Belgian,4,114,guess,neutral,10,left,3,guess_choice,663,j,0,0,412,253371,3316007
8,19,female,Belgian,4,114,guess,neutral,10,left,3,guess_outcome,0,undefined,0,0,412,251815,3317563
8,19,female,Belgian,4,114,ITC,neutral,10,left,3,ITC_start,487,space,0,0,412,251327,3318051
8,19,female,Belgian,4,114,ITC,neutral,10,left,3,ITC_choice,807,f,0,0,412,250518,3318860
8,19,female,Belgian,4,114,ITC,neutral,10,left,3,ITC_wait,0,undefined,0,0,412,240511,3328867
8,19,female,Belgian,4,114,ITC,neutral,10,left,3,ITC_collect,405,k,0,0,412,240105,3329273
8,19,female,Belgian,4,114,ITC,neutral,10,left,3,ITC_outcome,0,undefined,0,0,432,239100,3330278
8,19,female,Belgian,4,115,guess,loss,10,right,4,guess_start,337,space,0,0,432,238761,3330617
8,19,female,Belgian,4,115,guess,loss,10,right,4,guess_choice,619,f,0,0,432,238140,3331238
8,19,female,Belgian,4,115,guess,loss,10,right,4,guess_outcome,0,undefined,0,0,417,236586,3332792
8,19,female,Belgian,4,115,ITC,loss,10,right,4,ITC_start,264,space,0,0,417,236320,3333058
8,19,female,Belgian,4,115,ITC,loss,10,right,4,ITC_choice,1244,j,0,0,417,235075,3334303
8,19,female,Belgian,4,115,ITC,loss,10,right,4,ITC_wait,0,undefined,0,0,417,225068,3344310
8,19,female,Belgian,4,115,ITC,loss,10,right,4,ITC_collect,416,k,0,0,417,224650,3344728
8,19,female,Belgian,4,115,ITC,loss,10,right,4,ITC_outcome,0,undefined,0,0,437,223646,3345732
8,19,female,Belgian,4,116,guess,neutral,5,left,4,guess_start,446,space,0,0,437,223198,3346180
8,19,female,Belgian,4,116,guess,neutral,5,left,4,guess_choice,666,f,0,0,437,222529,3346849
8,19,female,Belgian,4,116,guess,neutral,5,left,4,guess_outcome,0,undefined,0,0,437,220976,3348402
8,19,female,Belgian,4,116,ITC,neutral,5,left,4,ITC_start,744,space,0,0,437,220231,3349147
8,19,female,Belgian,4,116,ITC,neutral,5,left,4,ITC_choice,668,f,0,0,437,219561,3349817
8,19,female,Belgian,4,116,ITC,neutral,5,left,4,ITC_wait,0,undefined,0,0,437,214559,3354819
8,19,female,Belgian,4,116,ITC,neutral,5,left,4,ITC_collect,520,k,0,0,437,214037,3355341
8,19,female,Belgian,4,116,ITC,neutral,5,left,4,ITC_outcome,0,undefined,0,0,457,213033,3356345
8,19,female,Belgian,4,117,guess,win,5,left,5,guess_start,282,space,0,0,457,212749,3356629
8,19,female,Belgian,4,117,guess,win,5,left,5,guess_choice,545,f,0,0,457,212202,3357176
8,19,female,Belgian,4,117,guess,win,5,left,5,guess_outcome,0,undefined,0,0,477,210647,3358731
8,19,female,Belgian,4,117,ITC,win,5,left,5,ITC_start,421,space,0,0,477,210225,3359153
8,19,female,Belgian,4,117,ITC,win,5,left,5,ITC_choice,517,f,0,0,477,209707,3359671
8,19,female,Belgian,4,117,ITC,win,5,left,5,ITC_wait,0,undefined,0,0,477,204701,3364677
8,19,female,Belgian,4,117,ITC,win,5,left,5,ITC_collect,393,k,0,0,477,204306,3365072
8,19,female,Belgian,4,117,ITC,win,5,left,5,ITC_outcome,0,undefined,0,0,497,203300,3366078
8,19,female,Belgian,4,118,guess,loss,5,right,9,guess_start,269,space,0,0,497,203029,3366349
8,19,female,Belgian,4,118,guess,loss,5,right,9,guess_choice,766,j,0,0,497,202262,3367116
8,19,female,Belgian,4,118,guess,loss,5,right,9,guess_outcome,0,undefined,0,0,482,200706,3368672
8,19,female,Belgian,4,118,ITC,loss,5,right,9,ITC_start,411,space,0,0,482,200293,3369085
8,19,female,Belgian,4,118,ITC,loss,5,right,9,ITC_choice,758,j,0,0,482,199533,3369845
8,19,female,Belgian,4,118,ITC,loss,5,right,9,ITC_wait,0,undefined,0,0,482,194526,3374852
8,19,female,Belgian,4,118,ITC,loss,5,right,9,ITC_collect,413,k,0,0,482,194112,3375266
8,19,female,Belgian,4,118,ITC,loss,5,right,9,ITC_outcome,0,undefined,0,0,502,193106,3376272
8,19,female,Belgian,4,119,guess,win,10,left,5,guess_start,316,space,0,0,502,192789,3376589
8,19,female,Belgian,4,119,guess,win,10,left,5,guess_choice,514,f,0,0,502,192272,3377106
8,19,female,Belgian,4,119,guess,win,10,left,5,guess_outcome,0,undefined,0,0,522,190715,3378663
8,19,female,Belgian,4,119,ITC,win,10,left,5,ITC_start,271,space,0,0,522,190442,3378936
8,19,female,Belgian,4,119,ITC,win,10,left,5,ITC_choice,528,f,0,0,522,189913,3379465
8,19,female,Belgian,4,119,ITC,win,10,left,5,ITC_wait,0,undefined,0,0,522,179910,3389468
8,19,female,Belgian,4,119,ITC,win,10,left,5,ITC_collect,486,k,0,0,522,179422,3389956
8,19,female,Belgian,4,119,ITC,win,10,left,5,ITC_outcome,0,undefined,0,0,542,178417,3390961
8,19,female,Belgian,4,120,guess,loss,5,right,16,guess_start,334,space,0,0,542,178081,3391297
8,19,female,Belgian,4,120,guess,loss,5,right,16,guess_choice,546,f,0,0,542,177533,3391845
8,19,female,Belgian,4,120,guess,loss,5,right,16,guess_outcome,0,undefined,0,0,527,175975,3393403
8,19,female,Belgian,4,120,ITC,loss,5,right,16,ITC_start,410,space,0,0,527,175564,3393814
8,19,female,Belgian,4,120,ITC,loss,5,right,16,ITC_choice,1480,j,0,0,527,174083,3395295
8,19,female,Belgian,4,120,ITC,loss,5,right,16,ITC_wait,0,undefined,0,0,527,169080,3400298
8,19,female,Belgian,4,120,ITC,loss,5,right,16,ITC_collect,448,k,0,0,527,168631,3400747
8,19,female,Belgian,4,120,ITC,loss,5,right,16,ITC_outcome,0,undefined,0,0,547,167625,3401753
8,19,female,Belgian,4,121,guess,neutral,5,left,5,guess_start,369,space,0,0,547,167255,3402123
8,19,female,Belgian,4,121,guess,neutral,5,left,5,guess_choice,652,j,0,0,547,166600,3402778
8,19,female,Belgian,4,121,guess,neutral,5,left,5,guess_outcome,0,undefined,0,0,547,165046,3404332
8,19,female,Belgian,4,121,ITC,neutral,5,left,5,ITC_start,596,space,0,0,547,164449,3404929
8,19,female,Belgian,4,121,ITC,neutral,5,left,5,ITC_choice,748,f,0,0,547,163699,3405679
8,19,female,Belgian,4,121,ITC,neutral,5,left,5,ITC_wait,0,undefined,0,0,547,158693,3410685
8,19,female,Belgian,4,121,ITC,neutral,5,left,5,ITC_collect,674,k,0,0,547,158017,3411361
8,19,female,Belgian,4,121,ITC,neutral,5,left,5,ITC_outcome,0,undefined,0,0,567,157014,3412364
8,19,female,Belgian,4,122,guess,neutral,5,right,14,guess_start,402,space,0,0,567,156610,3412768
8,19,female,Belgian,4,122,guess,neutral,5,right,14,guess_choice,544,f,0,0,567,156064,3413314
8,19,female,Belgian,4,122,guess,neutral,5,right,14,guess_outcome,0,undefined,0,0,567,154506,3414872
8,19,female,Belgian,4,122,ITC,neutral,5,right,14,ITC_start,257,space,0,0,567,154247,3415131
8,19,female,Belgian,4,122,ITC,neutral,5,right,14,ITC_choice,871,j,0,0,567,153374,3416004
8,19,female,Belgian,4,122,ITC,neutral,5,right,14,ITC_wait,0,undefined,0,0,567,148372,3421006
8,19,female,Belgian,4,122,ITC,neutral,5,right,14,ITC_collect,840,k,0,0,567,147530,3421848
8,19,female,Belgian,4,122,ITC,neutral,5,right,14,ITC_outcome,0,undefined,0,0,587,146525,3422853
8,19,female,Belgian,4,123,guess,neutral,5,right,1,guess_start,1550,space,0,0,587,144973,3424405
8,19,female,Belgian,4,123,guess,neutral,5,right,1,guess_choice,637,f,0,0,587,144334,3425044
8,19,female,Belgian,4,123,guess,neutral,5,right,1,guess_outcome,0,undefined,0,0,587,142778,3426600
8,19,female,Belgian,4,123,ITC,neutral,5,right,1,ITC_start,763,space,0,0,587,142014,3427364
8,19,female,Belgian,4,123,ITC,neutral,5,right,1,ITC_choice,945,j,0,0,587,141068,3428310
8,19,female,Belgian,4,123,ITC,neutral,5,right,1,ITC_wait,0,undefined,0,0,587,136063,3433315
8,19,female,Belgian,4,123,ITC,neutral,5,right,1,ITC_collect,772,k,0,0,587,135289,3434089
8,19,female,Belgian,4,123,ITC,neutral,5,right,1,ITC_outcome,0,undefined,0,0,607,134284,3435094
8,19,female,Belgian,4,124,guess,neutral,5,left,12,guess_start,686,space,0,0,607,133595,3435783
8,19,female,Belgian,4,124,guess,neutral,5,left,12,guess_choice,598,f,0,0,607,132995,3436383
8,19,female,Belgian,4,124,guess,neutral,5,left,12,guess_outcome,0,undefined,0,0,607,131441,3437937
8,19,female,Belgian,4,124,ITC,neutral,5,left,12,ITC_start,701,space,0,0,607,130738,3438640
8,19,female,Belgian,4,124,ITC,neutral,5,left,12,ITC_choice,661,f,0,0,607,130076,3439302
8,19,female,Belgian,4,124,ITC,neutral,5,left,12,ITC_wait,0,undefined,0,0,607,125070,3444308
8,19,female,Belgian,4,124,ITC,neutral,5,left,12,ITC_collect,818,k,0,0,607,124250,3445128
8,19,female,Belgian,4,124,ITC,neutral,5,left,12,ITC_outcome,0,undefined,0,0,627,123244,3446134
8,19,female,Belgian,4,125,guess,win,5,right,14,guess_start,424,space,0,0,627,122818,3446560
8,19,female,Belgian,4,125,guess,win,5,right,14,guess_choice,661,f,0,0,627,122155,3447223
8,19,female,Belgian,4,125,guess,win,5,right,14,guess_outcome,0,undefined,0,0,647,120597,3448781
8,19,female,Belgian,4,125,ITC,win,5,right,14,ITC_start,485,space,0,0,647,120110,3449268
8,19,female,Belgian,4,125,ITC,win,5,right,14,ITC_choice,1062,j,0,0,647,119047,3450331
8,19,female,Belgian,4,125,ITC,win,5,right,14,ITC_wait,0,undefined,0,0,647,114043,3455335
8,19,female,Belgian,4,125,ITC,win,5,right,14,ITC_collect,403,k,0,0,647,113637,3455741
8,19,female,Belgian,4,125,ITC,win,5,right,14,ITC_outcome,0,undefined,0,0,667,112630,3456748
8,19,female,Belgian,4,126,guess,win,10,right,4,guess_start,260,space,0,0,667,112368,3457010
8,19,female,Belgian,4,126,guess,win,10,right,4,guess_choice,615,f,0,0,667,111751,3457627
8,19,female,Belgian,4,126,guess,win,10,right,4,guess_outcome,0,undefined,0,0,687,110193,3459185
8,19,female,Belgian,4,126,ITC,win,10,right,4,ITC_start,393,space,0,0,687,109798,3459580
8,19,female,Belgian,4,126,ITC,win,10,right,4,ITC_choice,739,j,0,0,687,109058,3460320
8,19,female,Belgian,4,126,ITC,win,10,right,4,ITC_wait,0,undefined,0,0,687,99051,3470327
8,19,female,Belgian,4,126,ITC,win,10,right,4,ITC_collect,1294,k,0,0,687,97755,3471623
8,19,female,Belgian,4,126,ITC,win,10,right,4,ITC_outcome,0,undefined,0,0,707,96749,3472629
8,19,female,Belgian,4,127,guess,win,5,right,12,guess_start,302,space,0,0,707,96445,3472933
8,19,female,Belgian,4,127,guess,win,5,right,12,guess_choice,624,f,0,0,707,95818,3473560
8,19,female,Belgian,4,127,guess,win,5,right,12,guess_outcome,0,undefined,0,0,727,94260,3475118
8,19,female,Belgian,4,127,ITC,win,5,right,12,ITC_start,404,space,0,0,727,93855,3475523
8,19,female,Belgian,4,127,ITC,win,5,right,12,ITC_choice,675,j,0,0,727,93179,3476199
8,19,female,Belgian,4,127,ITC,win,5,right,12,ITC_wait,0,undefined,0,0,727,88175,3481203
8,19,female,Belgian,4,127,ITC,win,5,right,12,ITC_collect,870,k,0,0,727,87303,3482075
8,19,female,Belgian,4,127,ITC,win,5,right,12,ITC_outcome,0,undefined,0,0,747,86297,3483081
8,19,female,Belgian,4,128,guess,loss,5,right,8,guess_start,601,space,0,0,747,85695,3483683
8,19,female,Belgian,4,128,guess,loss,5,right,8,guess_choice,801,j,0,0,747,84891,3484487
8,19,female,Belgian,4,128,guess,loss,5,right,8,guess_outcome,0,undefined,0,0,732,83335,3486043
8,19,female,Belgian,4,128,ITC,loss,5,right,8,ITC_start,409,space,0,0,732,82924,3486454
8,19,female,Belgian,4,128,ITC,loss,5,right,8,ITC_choice,686,j,0,0,732,82236,3487142
8,19,female,Belgian,4,128,ITC,loss,5,right,8,ITC_wait,0,undefined,0,0,732,77229,3492149
8,19,female,Belgian,4,128,ITC,loss,5,right,8,ITC_collect,492,k,0,0,732,76735,3492643
8,19,female,Belgian,4,128,ITC,loss,5,right,8,ITC_outcome,0,undefined,0,0,752,75730,3493648
8,19,female,Belgian,4,129,guess,neutral,5,right,8,guess_start,349,space,0,0,752,75379,3493999
8,19,female,Belgian,4,129,guess,neutral,5,right,8,guess_choice,1147,j,0,0,752,74230,3495148
8,19,female,Belgian,4,129,guess,neutral,5,right,8,guess_outcome,0,undefined,0,0,752,72677,3496701
8,19,female,Belgian,4,129,ITC,neutral,5,right,8,ITC_start,1542,space,0,0,752,71133,3498245
8,19,female,Belgian,4,129,ITC,neutral,5,right,8,ITC_choice,1590,j,0,0,752,69542,3499836
8,19,female,Belgian,4,129,ITC,neutral,5,right,8,ITC_wait,0,undefined,0,0,752,64540,3504838
8,19,female,Belgian,4,129,ITC,neutral,5,right,8,ITC_collect,1447,k,0,0,752,63091,3506287
8,19,female,Belgian,4,129,ITC,neutral,5,right,8,ITC_outcome,0,undefined,0,0,772,62088,3507290
8,19,female,Belgian,4,130,guess,loss,10,left,3,guess_start,1113,space,0,0,772,60974,3508404
8,19,female,Belgian,4,130,guess,loss,10,left,3,guess_choice,2122,f,0,0,772,58850,3510528
8,19,female,Belgian,4,130,guess,loss,10,left,3,guess_outcome,0,undefined,0,0,757,57293,3512085
8,19,female,Belgian,4,130,ITC,loss,10,left,3,ITC_start,728,space,0,0,757,56564,3512814
8,19,female,Belgian,4,130,ITC,loss,10,left,3,ITC_choice,1256,f,0,0,757,55306,3514072
8,19,female,Belgian,4,130,ITC,loss,10,left,3,ITC_wait,0,undefined,0,0,757,45299,3524079
8,19,female,Belgian,4,130,ITC,loss,10,left,3,ITC_collect,939,k,0,0,757,44359,3525019
8,19,female,Belgian,4,130,ITC,loss,10,left,3,ITC_outcome,0,undefined,0,0,777,43355,3526023
8,19,female,Belgian,4,131,guess,win,5,right,6,guess_start,773,space,0,0,777,42580,3526798
8,19,female,Belgian,4,131,guess,win,5,right,6,guess_choice,824,f,0,0,777,41754,3527624
8,19,female,Belgian,4,131,guess,win,5,right,6,guess_outcome,0,undefined,0,0,797,40196,3529182
8,19,female,Belgian,4,131,ITC,win,5,right,6,ITC_start,1411,space,0,0,797,38784,3530594
8,19,female,Belgian,4,131,ITC,win,5,right,6,ITC_choice,1273,j,0,0,797,37510,3531868
8,19,female,Belgian,4,131,ITC,win,5,right,6,ITC_wait,0,undefined,0,0,797,32504,3536874
8,19,female,Belgian,4,131,ITC,win,5,right,6,ITC_collect,907,k,0,0,797,31595,3537783
8,19,female,Belgian,4,131,ITC,win,5,right,6,ITC_outcome,0,undefined,0,0,817,30590,3538788
8,19,female,Belgian,4,132,guess,loss,5,right,11,guess_start,443,space,0,0,817,30145,3539233
8,19,female,Belgian,4,132,guess,loss,5,right,11,guess_choice,825,f,0,0,817,29318,3540060
8,19,female,Belgian,4,132,guess,loss,5,right,11,guess_outcome,0,undefined,0,0,802,27761,3541617
8,19,female,Belgian,4,132,ITC,loss,5,right,11,ITC_start,299,space,0,0,802,27459,3541919
8,19,female,Belgian,4,132,ITC,loss,5,right,11,ITC_choice,731,j,0,0,802,26727,3542651
8,19,female,Belgian,4,132,ITC,loss,5,right,11,ITC_wait,0,undefined,0,0,802,21720,3547658
8,19,female,Belgian,4,132,ITC,loss,5,right,11,ITC_collect,852,k,0,0,802,20867,3548511
8,19,female,Belgian,4,132,ITC,loss,5,right,11,ITC_outcome,0,undefined,0,0,822,19860,3549518
8,19,female,Belgian,4,133,guess,loss,5,left,12,guess_start,403,space,0,0,822,19456,3549922
8,19,female,Belgian,4,133,guess,loss,5,left,12,guess_choice,637,f,0,0,822,18816,3550562
8,19,female,Belgian,4,133,guess,loss,5,left,12,guess_outcome,0,undefined,0,0,807,17259,3552119
8,19,female,Belgian,4,133,ITC,loss,5,left,12,ITC_start,376,space,0,0,807,16882,3552496
8,19,female,Belgian,4,133,ITC,loss,5,left,12,ITC_choice,680,f,0,0,807,16201,3553177
8,19,female,Belgian,4,133,ITC,loss,5,left,12,ITC_wait,0,undefined,0,0,807,11198,3558180
8,19,female,Belgian,4,133,ITC,loss,5,left,12,ITC_collect,1309,k,0,0,807,9888,3559490
8,19,female,Belgian,4,133,ITC,loss,5,left,12,ITC_outcome,0,undefined,0,0,827,8883,3560495
8,19,female,Belgian,4,134,guess,neutral,5,left,10,guess_start,362,space,0,0,827,8519,3560859
8,19,female,Belgian,4,134,guess,neutral,5,left,10,guess_choice,607,f,0,0,827,7909,3561469
8,19,female,Belgian,4,134,guess,neutral,5,left,10,guess_outcome,0,undefined,0,0,827,6355,3563023
8,19,female,Belgian,4,134,ITC,neutral,5,left,10,ITC_start,420,space,0,0,827,5933,3563445
8,19,female,Belgian,4,134,ITC,neutral,5,left,10,ITC_choice,580,f,0,0,827,5352,3564026
8,19,female,Belgian,4,134,ITC,neutral,5,left,10,ITC_wait,0,undefined,0,0,827,347,3569031
8,19,female,Belgian,4,134,ITC,neutral,5,left,10,ITC_collect,0,undefined,0,0,827,-6,3569384
8,19,female,Belgian,5,135,guess,neutral,10,right,1,guess_start,704,space,0,0,0,479295,3678479
8,19,female,Belgian,5,135,guess,neutral,10,right,1,guess_choice,599,f,0,0,0,478693,3679081
8,19,female,Belgian,5,135,guess,neutral,10,right,1,guess_outcome,0,undefined,0,0,0,477136,3680638
8,19,female,Belgian,5,135,ITC,neutral,10,right,1,ITC_start,358,space,0,0,0,476776,3680998
8,19,female,Belgian,5,135,ITC,neutral,10,right,1,ITC_choice,730,j,0,0,0,476045,3681729
8,19,female,Belgian,5,135,ITC,neutral,10,right,1,ITC_wait,0,undefined,0,0,0,466038,3691736
8,19,female,Belgian,5,135,ITC,neutral,10,right,1,ITC_collect,992,k,0,0,0,465045,3692729
8,19,female,Belgian,5,135,ITC,neutral,10,right,1,ITC_outcome,0,undefined,0,0,20,464040,3693734
8,19,female,Belgian,5,136,guess,neutral,5,right,13,guess_start,331,space,0,0,20,463707,3694067
8,19,female,Belgian,5,136,guess,neutral,5,right,13,guess_choice,510,f,0,0,20,463194,3694580
8,19,female,Belgian,5,136,guess,neutral,5,right,13,guess_outcome,0,undefined,0,0,20,461641,3696133
8,19,female,Belgian,5,136,ITC,neutral,5,right,13,ITC_start,405,space,0,0,20,461235,3696539
8,19,female,Belgian,5,136,ITC,neutral,5,right,13,ITC_choice,554,j,0,0,20,460681,3697093
8,19,female,Belgian,5,136,ITC,neutral,5,right,13,ITC_wait,0,undefined,0,0,20,455678,3702096
8,19,female,Belgian,5,136,ITC,neutral,5,right,13,ITC_collect,366,k,0,0,20,455311,3702463
8,19,female,Belgian,5,136,ITC,neutral,5,right,13,ITC_outcome,0,undefined,0,0,40,454307,3703467
8,19,female,Belgian,5,137,guess,loss,5,right,6,guess_start,217,space,0,0,40,454089,3703685
8,19,female,Belgian,5,137,guess,loss,5,right,6,guess_choice,204,f,0,0,40,453882,3703892
8,19,female,Belgian,5,137,guess,loss,5,right,6,guess_outcome,0,undefined,0,0,25,452325,3705449
8,19,female,Belgian,5,137,ITC,loss,5,right,6,ITC_start,409,space,0,0,25,451915,3705859
8,19,female,Belgian,5,137,ITC,loss,5,right,6,ITC_choice,418,j,0,0,25,451496,3706278
8,19,female,Belgian,5,137,ITC,loss,5,right,6,ITC_wait,0,undefined,0,0,25,446489,3711285
8,19,female,Belgian,5,137,ITC,loss,5,right,6,ITC_collect,437,k,0,0,25,446050,3711724
8,19,female,Belgian,5,137,ITC,loss,5,right,6,ITC_outcome,0,undefined,0,0,45,445044,3712730
8,19,female,Belgian,5,138,guess,loss,5,right,13,guess_start,321,space,0,0,45,444721,3713053
8,19,female,Belgian,5,138,guess,loss,5,right,13,guess_choice,566,f,0,0,45,444153,3713621
8,19,female,Belgian,5,138,guess,loss,5,right,13,guess_outcome,0,undefined,0,0,30,442596,3715178
8,19,female,Belgian,5,138,ITC,loss,5,right,13,ITC_start,334,space,0,0,30,442261,3715513
8,19,female,Belgian,5,138,ITC,loss,5,right,13,ITC_choice,618,j,0,0,30,441642,3716132
8,19,female,Belgian,5,138,ITC,loss,5,right,13,ITC_wait,0,undefined,0,0,30,436637,3721137
8,19,female,Belgian,5,138,ITC,loss,5,right,13,ITC_collect,677,k,0,0,30,435959,3721815
8,19,female,Belgian,5,138,ITC,loss,5,right,13,ITC_outcome,0,undefined,0,0,50,434953,3722821
8,19,female,Belgian,5,139,guess,loss,5,right,1,guess_start,310,space,0,0,50,434642,3723132
8,19,female,Belgian,5,139,guess,loss,5,right,1,guess_choice,646,j,0,0,50,433994,3723780
8,19,female,Belgian,5,139,guess,loss,5,right,1,guess_outcome,0,undefined,0,0,35,432436,3725338
8,19,female,Belgian,5,139,ITC,loss,5,right,1,ITC_start,375,space,0,0,35,432059,3725715
8,19,female,Belgian,5,139,ITC,loss,5,right,1,ITC_choice,608,j,0,0,35,431449,3726325
8,19,female,Belgian,5,139,ITC,loss,5,right,1,ITC_wait,0,undefined,0,0,35,426446,3731328
8,19,female,Belgian,5,139,ITC,loss,5,right,1,ITC_collect,1067,k,0,0,35,425378,3732396
8,19,female,Belgian,5,139,ITC,loss,5,right,1,ITC_outcome,0,undefined,0,0,55,424374,3733400
8,19,female,Belgian,5,140,guess,neutral,5,left,15,guess_start,331,space,0,0,55,424042,3733732
8,19,female,Belgian,5,140,guess,neutral,5,left,15,guess_choice,1023,j,0,0,55,423016,3734758
8,19,female,Belgian,5,140,guess,neutral,5,left,15,guess_outcome,0,undefined,0,0,55,421460,3736314
8,19,female,Belgian,5,140,ITC,neutral,5,left,15,ITC_start,215,space,0,0,55,421243,3736531
8,19,female,Belgian,5,140,ITC,neutral,5,left,15,ITC_choice,661,f,0,0,55,420582,3737192
8,19,female,Belgian,5,140,ITC,neutral,5,left,15,ITC_wait,0,undefined,0,0,55,415576,3742198
8,19,female,Belgian,5,140,ITC,neutral,5,left,15,ITC_collect,751,k,0,0,55,414824,3742950
8,19,female,Belgian,5,140,ITC,neutral,5,left,15,ITC_outcome,0,undefined,0,0,75,413818,3743956
8,19,female,Belgian,5,141,guess,loss,5,right,14,guess_start,394,space,0,0,75,413423,3744351
