subjectID,age,gender,nationality,block_number,trial_number,trial_type,guess_outcome,delay_time,delay_pos,immediate_amount,stage,respRT,respKey,blur_count,focus_count,total_points,remaining_duration,time_elapsed
17,18,male,Irish,1,1,guess,win,5,right,6,guess_start,2617,space,0,0,0,477382,275160
17,18,male,Irish,1,1,guess,win,5,right,6,guess_choice,1898,j,0,0,0,475481,277061
17,18,male,Irish,1,1,guess,win,5,right,6,guess_outcome,0,undefined,0,0,20,473929,278613
17,18,male,Irish,1,1,ITC,win,5,right,6,ITC_start,5615,space,0,0,20,468313,284229
17,18,male,Irish,1,1,ITC,win,5,right,6,ITC_choice,3100,j,0,0,20,465211,287331
17,18,male,Irish,1,1,ITC,win,5,right,6,ITC_wait,0,undefined,0,0,20,460208,292334
17,18,male,Irish,1,1,ITC,win,5,right,6,ITC_collect,1506,k,0,0,20,458701,293841
17,18,male,Irish,1,1,ITC,win,5,right,6,ITC_outcome,0,undefined,0,0,40,457698,294844
17,18,male,Irish,1,2,guess,neutral,10,left,8,guess_start,2177,space,0,0,40,455520,297022
17,18,male,Irish,1,2,guess,neutral,10,left,8,guess_choice,1152,f,0,0,40,454366,298176
17,18,male,Irish,1,2,guess,neutral,10,left,8,guess_outcome,0,undefined,0,0,40,452813,299729
17,18,male,Irish,1,2,ITC,neutral,10,left,8,ITC_start,2411,space,0,0,40,450401,302141
17,18,male,Irish,1,2,ITC,neutral,10,left,8,ITC_choice,5199,j,0,0,40,445201,307341
17,18,male,Irish,1,2,ITC,neutral,10,left,8,ITC_wait,0,undefined,0,0,40,445199,307343
17,18,male,Irish,1,2,ITC,neutral,10,left,8,ITC_collect,726,k,0,0,40,444473,308069
17,18,male,Irish,1,2,ITC,neutral,10,left,8,ITC_outcome,0,undefined,0,0,48,443470,309072
17,18,male,Irish,1,3,guess,loss,5,right,11,guess_start,913,space,0,0,48,442556,309986
17,18,male,Irish,1,3,guess,loss,5,right,11,guess_choice,2025,j,0,0,48,440530,312012
17,18,male,Irish,1,3,guess,loss,5,right,11,guess_outcome,0,undefined,0,0,33,438977,313565
17,18,male,Irish,1,3,ITC,loss,5,right,11,ITC_start,854,space,0,0,33,438122,314420
17,18,male,Irish,1,3,ITC,loss,5,right,11,ITC_choice,3139,j,0,0,33,434982,317560
17,18,male,Irish,1,3,ITC,loss,5,right,11,ITC_wait,0,undefined,0,0,33,429980,322562
17,18,male,Irish,1,3,ITC,loss,5,right,11,ITC_collect,1049,k,0,0,33,428930,323612
17,18,male,Irish,1,3,ITC,loss,5,right,11,ITC_outcome,0,undefined,0,0,53,427927,324615
17,18,male,Irish,1,4,guess,loss,5,left,4,guess_start,1043,space,0,0,53,426882,325660
17,18,male,Irish,1,4,guess,loss,5,left,4,guess_choice,1933,f,0,0,53,424947,327595
17,18,male,Irish,1,4,guess,loss,5,left,4,guess_outcome,0,undefined,0,0,38,423395,329147
17,18,male,Irish,1,4,ITC,loss,5,left,4,ITC_start,1752,space,0,0,38,421642,330900
17,18,male,Irish,1,4,ITC,loss,5,left,4,ITC_choice,2092,f,0,0,38,419549,332993
17,18,male,Irish,1,4,ITC,loss,5,left,4,ITC_wait,0,undefined,0,0,38,414546,337996
17,18,male,Irish,1,4,ITC,loss,5,left,4,ITC_collect,415,k,0,0,38,414130,338412
17,18,male,Irish,1,4,ITC,loss,5,left,4,ITC_outcome,0,undefined,0,0,58,413128,339414
17,18,male,Irish,1,5,guess,win,10,right,1,guess_start,566,space,0,0,58,412561,339981
17,18,male,Irish,1,5,guess,win,10,right,1,guess_choice,2998,f,0,0,58,409561,342981
17,18,male,Irish,1,5,guess,win,10,right,1,guess_outcome,0,undefined,0,0,78,408007,344535
17,18,male,Irish,1,5,ITC,win,10,right,1,ITC_start,1106,space,0,0,78,406900,345642
17,18,male,Irish,1,5,ITC,win,10,right,1,ITC_choice,1667,f,0,0,78,405232,347310
17,18,male,Irish,1,5,ITC,win,10,right,1,ITC_wait,0,undefined,0,0,78,405230,347312
17,18,male,Irish,1,5,ITC,win,10,right,1,ITC_collect,499,k,0,0,78,404730,347812
17,18,male,Irish,1,5,ITC,win,10,right,1,ITC_outcome,0,undefined,0,0,79,403727,348815
17,18,male,Irish,1,6,guess,loss,5,right,15,guess_start,818,space,0,0,79,402908,349634
17,18,male,Irish,1,6,guess,loss,5,right,15,guess_choice,724,j,0,0,79,402182,350360
17,18,male,Irish,1,6,guess,loss,5,right,15,guess_outcome,0,undefined,0,0,64,400629,351913
17,18,male,Irish,1,6,ITC,loss,5,right,15,ITC_start,977,space,0,0,64,399652,352890
17,18,male,Irish,1,6,ITC,loss,5,right,15,ITC_choice,2201,f,0,0,64,397450,355092
17,18,male,Irish,1,6,ITC,loss,5,right,15,ITC_wait,0,undefined,0,0,64,397447,355095
17,18,male,Irish,1,6,ITC,loss,5,right,15,ITC_collect,762,k,0,0,64,396685,355857
17,18,male,Irish,1,6,ITC,loss,5,right,15,ITC_outcome,0,undefined,0,0,79,395682,356860
17,18,male,Irish,1,7,guess,win,10,left,6,guess_start,591,space,0,0,79,395090,357452
17,18,male,Irish,1,7,guess,win,10,left,6,guess_choice,929,f,0,0,79,394160,358382
17,18,male,Irish,1,7,guess,win,10,left,6,guess_outcome,0,undefined,0,0,99,392607,359935
17,18,male,Irish,1,7,ITC,win,10,left,6,ITC_start,1060,space,0,0,99,391546,360996
17,18,male,Irish,1,7,ITC,win,10,left,6,ITC_choice,1887,j,0,0,99,389658,362884
17,18,male,Irish,1,7,ITC,win,10,left,6,ITC_wait,0,undefined,0,0,99,389656,362886
17,18,male,Irish,1,7,ITC,win,10,left,6,ITC_collect,433,k,0,0,99,389222,363320
17,18,male,Irish,1,7,ITC,win,10,left,6,ITC_outcome,0,undefined,0,0,105,388220,364322
17,18,male,Irish,1,8,guess,neutral,5,right,3,guess_start,708,space,0,0,105,387511,365031
17,18,male,Irish,1,8,guess,neutral,5,right,3,guess_choice,1121,f,0,0,105,386388,366154
17,18,male,Irish,1,8,guess,neutral,5,right,3,guess_outcome,0,undefined,0,0,105,384836,367706
17,18,male,Irish,1,8,ITC,neutral,5,right,3,ITC_start,788,space,0,0,105,384047,368495
17,18,male,Irish,1,8,ITC,neutral,5,right,3,ITC_choice,1940,j,0,0,105,382106,370436
17,18,male,Irish,1,8,ITC,neutral,5,right,3,ITC_wait,0,undefined,0,0,105,377105,375437
17,18,male,Irish,1,8,ITC,neutral,5,right,3,ITC_collect,443,k,0,0,105,376661,375881
17,18,male,Irish,1,8,ITC,neutral,5,right,3,ITC_outcome,0,undefined,0,0,125,375659,376883
17,18,male,Irish,1,9,guess,neutral,5,left,4,guess_start,507,space,0,0,125,375151,377391
17,18,male,Irish,1,9,guess,neutral,5,left,4,guess_choice,870,f,0,0,125,374279,378263
17,18,male,Irish,1,9,guess,neutral,5,left,4,guess_outcome,0,undefined,0,0,125,372726,379816
17,18,male,Irish,1,9,ITC,neutral,5,left,4,ITC_start,0,space,0,0,125,372725,379817
17,18,male,Irish,1,9,ITC,neutral,5,left,4,ITC_choice,2394,f,0,0,125,370331,382211
17,18,male,Irish,1,9,ITC,neutral,5,left,4,ITC_wait,0,undefined,0,0,125,365329,387213
17,18,male,Irish,1,9,ITC,neutral,5,left,4,ITC_collect,437,k,0,0,125,364891,387651
17,18,male,Irish,1,9,ITC,neutral,5,left,4,ITC_outcome,0,undefined,0,0,145,363889,388653
17,18,male,Irish,1,10,guess,loss,5,left,7,guess_start,599,space,0,0,145,363289,389253
17,18,male,Irish,1,10,guess,loss,5,left,7,guess_choice,1260,j,0,0,145,362027,390515
17,18,male,Irish,1,10,guess,loss,5,left,7,guess_outcome,0,undefined,0,0,130,360474,392068
17,18,male,Irish,1,10,ITC,loss,5,left,7,ITC_start,1135,space,0,0,130,359338,393204
17,18,male,Irish,1,10,ITC,loss,5,left,7,ITC_choice,2628,f,0,0,130,356709,395833
17,18,male,Irish,1,10,ITC,loss,5,left,7,ITC_wait,0,undefined,0,0,130,351706,400836
17,18,male,Irish,1,10,ITC,loss,5,left,7,ITC_collect,1235,k,0,0,130,350469,402073
17,18,male,Irish,1,10,ITC,loss,5,left,7,ITC_outcome,0,undefined,0,0,150,349467,403075
17,18,male,Irish,1,11,guess,loss,5,left,8,guess_start,1607,space,0,0,150,347859,404683
17,18,male,Irish,1,11,guess,loss,5,left,8,guess_choice,1411,j,0,0,150,346446,406096
17,18,male,Irish,1,11,guess,loss,5,left,8,guess_outcome,0,undefined,0,0,135,344892,407650
17,18,male,Irish,1,11,ITC,loss,5,left,8,ITC_start,1095,space,0,0,135,343796,408746
17,18,male,Irish,1,11,ITC,loss,5,left,8,ITC_choice,1698,f,0,0,135,342097,410445
17,18,male,Irish,1,11,ITC,loss,5,left,8,ITC_wait,0,undefined,0,0,135,337095,415447
17,18,male,Irish,1,11,ITC,loss,5,left,8,ITC_collect,687,k,0,0,135,336407,416135
17,18,male,Irish,1,11,ITC,loss,5,left,8,ITC_outcome,0,undefined,0,0,155,335404,417138
17,18,male,Irish,1,12,guess,loss,5,left,1,guess_start,1056,space,0,0,155,334347,418195
17,18,male,Irish,1,12,guess,loss,5,left,1,guess_choice,1775,f,0,0,155,332571,419971
17,18,male,Irish,1,12,guess,loss,5,left,1,guess_outcome,0,undefined,0,0,140,331018,421524
17,18,male,Irish,1,12,ITC,loss,5,left,1,ITC_start,798,space,0,0,140,330219,422323
17,18,male,Irish,1,12,ITC,loss,5,left,1,ITC_choice,1561,f,0,0,140,328657,423885
17,18,male,Irish,1,12,ITC,loss,5,left,1,ITC_wait,0,undefined,0,0,140,323654,428888
17,18,male,Irish,1,12,ITC,loss,5,left,1,ITC_collect,928,k,0,0,140,322725,429817
17,18,male,Irish,1,12,ITC,loss,5,left,1,ITC_outcome,0,undefined,0,0,160,321722,430820
17,18,male,Irish,1,13,guess,neutral,5,right,8,guess_start,395,space,0,0,160,321327,431215
17,18,male,Irish,1,13,guess,neutral,5,right,8,guess_choice,865,j,0,0,160,320460,432082
17,18,male,Irish,1,13,guess,neutral,5,right,8,guess_outcome,0,undefined,0,0,160,318907,433635
17,18,male,Irish,1,13,ITC,neutral,5,right,8,ITC_start,700,space,0,0,160,318207,434335
17,18,male,Irish,1,13,ITC,neutral,5,right,8,ITC_choice,1569,f,0,0,160,316637,435905
17,18,male,Irish,1,13,ITC,neutral,5,right,8,ITC_wait,0,undefined,0,0,160,316635,435907
17,18,male,Irish,1,13,ITC,neutral,5,right,8,ITC_collect,735,k,0,0,160,315899,436643
17,18,male,Irish,1,13,ITC,neutral,5,right,8,ITC_outcome,0,undefined,0,0,168,314896,437646
17,18,male,Irish,1,14,guess,win,5,left,2,guess_start,591,space,0,0,168,314305,438237
17,18,male,Irish,1,14,guess,win,5,left,2,guess_choice,1285,j,0,0,168,313018,439524
17,18,male,Irish,1,14,guess,win,5,left,2,guess_outcome,0,undefined,0,0,188,311465,441077
17,18,male,Irish,1,14,ITC,win,5,left,2,ITC_start,557,space,0,0,188,310907,441635
17,18,male,Irish,1,14,ITC,win,5,left,2,ITC_choice,2478,f,0,0,188,308429,444113
17,18,male,Irish,1,14,ITC,win,5,left,2,ITC_wait,0,undefined,0,0,188,303428,449114
17,18,male,Irish,1,14,ITC,win,5,left,2,ITC_collect,599,k,0,0,188,302828,449714
17,18,male,Irish,1,14,ITC,win,5,left,2,ITC_outcome,0,undefined,0,0,208,301825,450717
17,18,male,Irish,1,15,guess,loss,5,right,5,guess_start,607,space,0,0,208,301217,451325
17,18,male,Irish,1,15,guess,loss,5,right,5,guess_choice,984,f,0,0,208,300231,452311
17,18,male,Irish,1,15,guess,loss,5,right,5,guess_outcome,0,undefined,0,0,193,298677,453865
17,18,male,Irish,1,15,ITC,loss,5,right,5,ITC_start,1279,space,0,0,193,297398,455144
17,18,male,Irish,1,15,ITC,loss,5,right,5,ITC_choice,1868,j,0,0,193,295529,457013
17,18,male,Irish,1,15,ITC,loss,5,right,5,ITC_wait,0,undefined,0,0,193,290526,462016
17,18,male,Irish,1,15,ITC,loss,5,right,5,ITC_collect,745,k,0,0,193,289780,462762
17,18,male,Irish,1,15,ITC,loss,5,right,5,ITC_outcome,0,undefined,0,0,213,288777,463765
17,18,male,Irish,1,16,guess,loss,5,left,16,guess_start,1157,space,0,0,213,287619,464923
17,18,male,Irish,1,16,guess,loss,5,left,16,guess_choice,1260,f,0,0,213,286357,466185
17,18,male,Irish,1,16,guess,loss,5,left,16,guess_outcome,0,undefined,0,0,198,284804,467738
17,18,male,Irish,1,16,ITC,loss,5,left,16,ITC_start,1627,space,0,0,198,283177,469365
17,18,male,Irish,1,16,ITC,loss,5,left,16,ITC_choice,1720,j,0,0,198,281456,471086
17,18,male,Irish,1,16,ITC,loss,5,left,16,ITC_wait,0,undefined,0,0,198,281454,471088
17,18,male,Irish,1,16,ITC,loss,5,left,16,ITC_collect,529,k,0,0,198,280925,471617
17,18,male,Irish,1,16,ITC,loss,5,left,16,ITC_outcome,0,undefined,0,0,214,279922,472620
17,18,male,Irish,1,17,guess,loss,5,left,9,guess_start,582,space,0,0,214,279339,473203
17,18,male,Irish,1,17,guess,loss,5,left,9,guess_choice,960,j,0,0,214,278377,474165
17,18,male,Irish,1,17,guess,loss,5,left,9,guess_outcome,0,undefined,0,0,199,276825,475717
17,18,male,Irish,1,17,ITC,loss,5,left,9,ITC_start,1151,space,0,0,199,275673,476869
17,18,male,Irish,1,17,ITC,loss,5,left,9,ITC_choice,1397,j,0,0,199,274275,478267
17,18,male,Irish,1,17,ITC,loss,5,left,9,ITC_wait,0,undefined,0,0,199,274272,478270
17,18,male,Irish,1,17,ITC,loss,5,left,9,ITC_collect,1165,k,0,0,199,273107,479435
17,18,male,Irish,1,17,ITC,loss,5,left,9,ITC_outcome,0,undefined,0,0,208,272103,480439
17,18,male,Irish,1,18,guess,loss,10,right,2,guess_start,2238,space,0,0,208,269864,482678
17,18,male,Irish,1,18,guess,loss,10,right,2,guess_choice,1356,j,0,0,208,268507,484035
17,18,male,Irish,1,18,guess,loss,10,right,2,guess_outcome,0,undefined,0,0,193,266953,485589
17,18,male,Irish,1,18,ITC,loss,10,right,2,ITC_start,555,space,0,0,193,266397,486145
17,18,male,Irish,1,18,ITC,loss,10,right,2,ITC_choice,1599,j,0,0,193,264797,487745
17,18,male,Irish,1,18,ITC,loss,10,right,2,ITC_wait,0,undefined,0,0,193,254794,497748
17,18,male,Irish,1,18,ITC,loss,10,right,2,ITC_collect,777,k,0,0,193,254016,498526
17,18,male,Irish,1,18,ITC,loss,10,right,2,ITC_outcome,0,undefined,0,0,213,253014,499528
17,18,male,Irish,1,19,guess,win,5,left,16,guess_start,698,space,0,0,213,252316,500226
17,18,male,Irish,1,19,guess,win,5,left,16,guess_choice,1657,f,0,0,213,250657,501885
17,18,male,Irish,1,19,guess,win,5,left,16,guess_outcome,0,undefined,0,0,233,249105,503437
17,18,male,Irish,1,19,ITC,win,5,left,16,ITC_start,729,space,0,0,233,248375,504167
17,18,male,Irish,1,19,ITC,win,5,left,16,ITC_choice,1609,j,0,0,233,246765,505777
17,18,male,Irish,1,19,ITC,win,5,left,16,ITC_wait,0,undefined,0,0,233,246762,505780
17,18,male,Irish,1,19,ITC,win,5,left,16,ITC_collect,314,k,0,0,233,246447,506095
17,18,male,Irish,1,19,ITC,win,5,left,16,ITC_outcome,0,undefined,0,0,249,245445,507097
17,18,male,Irish,1,20,guess,win,5,right,8,guess_start,529,space,0,0,249,244915,507627
17,18,male,Irish,1,20,guess,win,5,right,8,guess_choice,970,j,0,0,249,243943,508599
17,18,male,Irish,1,20,guess,win,5,right,8,guess_outcome,0,undefined,0,0,269,242391,510151
17,18,male,Irish,1,20,ITC,win,5,right,8,ITC_start,567,space,0,0,269,241823,510719
17,18,male,Irish,1,20,ITC,win,5,right,8,ITC_choice,1438,f,0,0,269,240385,512157
17,18,male,Irish,1,20,ITC,win,5,right,8,ITC_wait,0,undefined,0,0,269,240382,512160
17,18,male,Irish,1,20,ITC,win,5,right,8,ITC_collect,928,k,0,0,269,239453,513089
17,18,male,Irish,1,20,ITC,win,5,right,8,ITC_outcome,0,undefined,0,0,277,238451,514091
17,18,male,Irish,1,21,guess,neutral,10,right,4,guess_start,573,space,0,0,277,237876,514666
17,18,male,Irish,1,21,guess,neutral,10,right,4,guess_choice,892,j,0,0,277,236983,515559
17,18,male,Irish,1,21,guess,neutral,10,right,4,guess_outcome,0,undefined,0,0,277,235430,517112
17,18,male,Irish,1,21,ITC,neutral,10,right,4,ITC_start,1358,space,0,0,277,234072,518470
17,18,male,Irish,1,21,ITC,neutral,10,right,4,ITC_choice,1599,f,0,0,277,232472,520070
17,18,male,Irish,1,21,ITC,neutral,10,right,4,ITC_wait,0,undefined,0,0,277,232469,520073
17,18,male,Irish,1,21,ITC,neutral,10,right,4,ITC_collect,703,k,0,0,277,231765,520777
17,18,male,Irish,1,21,ITC,neutral,10,right,4,ITC_outcome,0,undefined,0,0,281,230763,521779
17,18,male,Irish,1,22,guess,neutral,5,right,15,guess_start,620,space,0,0,281,230142,522400
17,18,male,Irish,1,22,guess,neutral,5,right,15,guess_choice,876,f,0,0,281,229265,523277
17,18,male,Irish,1,22,guess,neutral,5,right,15,guess_outcome,0,undefined,0,0,281,227711,524831
17,18,male,Irish,1,22,ITC,neutral,5,right,15,ITC_start,3446,space,0,0,281,224265,528277
17,18,male,Irish,1,22,ITC,neutral,5,right,15,ITC_choice,1571,f,0,0,281,222693,529849
17,18,male,Irish,1,22,ITC,neutral,5,right,15,ITC_wait,0,undefined,0,0,281,222691,529851
17,18,male,Irish,1,22,ITC,neutral,5,right,15,ITC_collect,705,k,0,0,281,221985,530557
17,18,male,Irish,1,22,ITC,neutral,5,right,15,ITC_outcome,0,undefined,0,0,296,220984,531558
17,18,male,Irish,1,23,guess,loss,10,left,7,guess_start,677,space,0,0,296,220306,532236
17,18,male,Irish,1,23,guess,loss,10,left,7,guess_choice,789,j,0,0,296,219515,533027
17,18,male,Irish,1,23,guess,loss,10,left,7,guess_outcome,0,undefined,0,0,281,217962,534580
17,18,male,Irish,1,23,ITC,loss,10,left,7,ITC_start,539,space,0,0,281,217422,535120
17,18,male,Irish,1,23,ITC,loss,10,left,7,ITC_choice,1348,f,0,0,281,216073,536469
17,18,male,Irish,1,23,ITC,loss,10,left,7,ITC_wait,0,undefined,0,0,281,206071,546471
17,18,male,Irish,1,23,ITC,loss,10,left,7,ITC_collect,726,k,0,0,281,205343,547199
17,18,male,Irish,1,23,ITC,loss,10,left,7,ITC_outcome,0,undefined,0,0,301,204341,548201
17,18,male,Irish,1,24,guess,neutral,5,left,6,guess_start,617,space,0,0,301,203723,548819
17,18,male,Irish,1,24,guess,neutral,5,left,6,guess_choice,1009,f,0,0,301,202713,549829
17,18,male,Irish,1,24,guess,neutral,5,left,6,guess_outcome,0,undefined,0,0,301,201160,551382
17,18,male,Irish,1,24,ITC,neutral,5,left,6,ITC_start,698,space,0,0,301,200461,552081
17,18,male,Irish,1,24,ITC,neutral,5,left,6,ITC_choice,1067,j,0,0,301,199393,553149
17,18,male,Irish,1,24,ITC,neutral,5,left,6,ITC_wait,0,undefined,0,0,301,199391,553151
17,18,male,Irish,1,24,ITC,neutral,5,left,6,ITC_collect,1050,k,0,0,301,198340,554202
17,18,male,Irish,1,24,ITC,neutral,5,left,6,ITC_outcome,0,undefined,0,0,307,197338,555204
17,18,male,Irish,1,25,guess,neutral,5,left,12,guess_start,474,space,0,0,307,196863,555679
17,18,male,Irish,1,25,guess,neutral,5,left,12,guess_choice,670,j,0,0,307,196192,556350
17,18,male,Irish,1,25,guess,neutral,5,left,12,guess_outcome,0,undefined,0,0,307,194637,557905
17,18,male,Irish,1,25,ITC,neutral,5,left,12,ITC_start,560,space,0,0,307,194076,558466
17,18,male,Irish,1,25,ITC,neutral,5,left,12,ITC_choice,994,j,0,0,307,193081,559461
17,18,male,Irish,1,25,ITC,neutral,5,left,12,ITC_wait,0,undefined,0,0,307,193079,559463
17,18,male,Irish,1,25,ITC,neutral,5,left,12,ITC_collect,562,k,0,0,307,192517,560025
17,18,male,Irish,1,25,ITC,neutral,5,left,12,ITC_outcome,0,undefined,0,0,319,191514,561028
17,18,male,Irish,1,26,guess,neutral,10,left,6,guess_start,603,space,0,0,319,190910,561632
17,18,male,Irish,1,26,guess,neutral,10,left,6,guess_choice,698,f,0,0,319,190210,562332
17,18,male,Irish,1,26,guess,neutral,10,left,6,guess_outcome,0,undefined,0,0,319,188658,563884
17,18,male,Irish,1,26,ITC,neutral,10,left,6,ITC_start,556,space,0,0,319,188101,564441
17,18,male,Irish,1,26,ITC,neutral,10,left,6,ITC_choice,965,j,0,0,319,187135,565407
17,18,male,Irish,1,26,ITC,neutral,10,left,6,ITC_wait,0,undefined,0,0,319,187132,565410
17,18,male,Irish,1,26,ITC,neutral,10,left,6,ITC_collect,584,k,0,0,319,186548,565994
17,18,male,Irish,1,26,ITC,neutral,10,left,6,ITC_outcome,0,undefined,0,0,325,185545,566997
17,18,male,Irish,1,27,guess,loss,5,left,2,guess_start,591,space,0,0,325,184953,567589
17,18,male,Irish,1,27,guess,loss,5,left,2,guess_choice,1018,f,0,0,325,183934,568608
17,18,male,Irish,1,27,guess,loss,5,left,2,guess_outcome,0,undefined,0,0,310,182380,570162
17,18,male,Irish,1,27,ITC,loss,5,left,2,ITC_start,596,space,0,0,310,181783,570759
17,18,male,Irish,1,27,ITC,loss,5,left,2,ITC_choice,1648,f,0,0,310,180134,572408
17,18,male,Irish,1,27,ITC,loss,5,left,2,ITC_wait,0,undefined,0,0,310,175132,577410
17,18,male,Irish,1,27,ITC,loss,5,left,2,ITC_collect,378,k,0,0,310,174753,577789
17,18,male,Irish,1,27,ITC,loss,5,left,2,ITC_outcome,0,undefined,0,0,330,173749,578793
17,18,male,Irish,1,28,guess,neutral,10,left,5,guess_start,475,space,0,0,330,173274,579268
17,18,male,Irish,1,28,guess,neutral,10,left,5,guess_choice,771,j,0,0,330,172501,580041
17,18,male,Irish,1,28,guess,neutral,10,left,5,guess_outcome,0,undefined,0,0,330,170948,581594
17,18,male,Irish,1,28,ITC,neutral,10,left,5,ITC_start,1157,space,0,0,330,169791,582751
17,18,male,Irish,1,28,ITC,neutral,10,left,5,ITC_choice,1326,j,0,0,330,168463,584079
17,18,male,Irish,1,28,ITC,neutral,10,left,5,ITC_wait,0,undefined,0,0,330,168460,584082
17,18,male,Irish,1,28,ITC,neutral,10,left,5,ITC_collect,436,k,0,0,330,168023,584519
17,18,male,Irish,1,28,ITC,neutral,10,left,5,ITC_outcome,0,undefined,0,0,335,167020,585522
17,18,male,Irish,1,29,guess,win,10,left,2,guess_start,605,space,0,0,335,166415,586127
17,18,male,Irish,1,29,guess,win,10,left,2,guess_choice,888,j,0,0,335,165525,587017
17,18,male,Irish,1,29,guess,win,10,left,2,guess_outcome,0,undefined,0,0,355,163972,588570
17,18,male,Irish,1,29,ITC,win,10,left,2,ITC_start,539,space,0,0,355,163433,589109
17,18,male,Irish,1,29,ITC,win,10,left,2,ITC_choice,1239,f,0,0,355,162193,590349
17,18,male,Irish,1,29,ITC,win,10,left,2,ITC_wait,0,undefined,0,0,355,152190,600352
17,18,male,Irish,1,29,ITC,win,10,left,2,ITC_collect,870,k,0,0,355,151319,601223
17,18,male,Irish,1,29,ITC,win,10,left,2,ITC_outcome,0,undefined,0,0,375,150316,602226
17,18,male,Irish,1,30,guess,neutral,5,left,7,guess_start,603,space,0,0,375,149713,602829
17,18,male,Irish,1,30,guess,neutral,5,left,7,guess_choice,696,f,0,0,375,149015,603527
17,18,male,Irish,1,30,guess,neutral,5,left,7,guess_outcome,0,undefined,0,0,375,147461,605081
17,18,male,Irish,1,30,ITC,neutral,5,left,7,ITC_start,651,space,0,0,375,146809,605733
17,18,male,Irish,1,30,ITC,neutral,5,left,7,ITC_choice,907,j,0,0,375,145901,606641
17,18,male,Irish,1,30,ITC,neutral,5,left,7,ITC_wait,0,undefined,0,0,375,145899,606643
17,18,male,Irish,1,30,ITC,neutral,5,left,7,ITC_collect,409,k,0,0,375,145489,607053
17,18,male,Irish,1,30,ITC,neutral,5,left,7,ITC_outcome,0,undefined,0,0,382,144487,608055
17,18,male,Irish,1,31,guess,win,5,left,13,guess_start,583,space,0,0,382,143903,608639
17,18,male,Irish,1,31,guess,win,5,left,13,guess_choice,740,j,0,0,382,143162,609380
17,18,male,Irish,1,31,guess,win,5,left,13,guess_outcome,0,undefined,0,0,402,141609,610933
17,18,male,Irish,1,31,ITC,win,5,left,13,ITC_start,977,space,0,0,402,140632,611910
17,18,male,Irish,1,31,ITC,win,5,left,13,ITC_choice,1199,j,0,0,402,139431,613111
17,18,male,Irish,1,31,ITC,win,5,left,13,ITC_wait,0,undefined,0,0,402,139429,613113
17,18,male,Irish,1,31,ITC,win,5,left,13,ITC_collect,318,k,0,0,402,139110,613432
17,18,male,Irish,1,31,ITC,win,5,left,13,ITC_outcome,0,undefined,0,0,415,138106,614436
17,18,male,Irish,1,32,guess,loss,10,left,6,guess_start,635,space,0,0,415,137471,615071
17,18,male,Irish,1,32,guess,loss,10,left,6,guess_choice,1150,j,0,0,415,136319,616223
17,18,male,Irish,1,32,guess,loss,10,left,6,guess_outcome,0,undefined,0,0,400,134766,617776
17,18,male,Irish,1,32,ITC,loss,10,left,6,ITC_start,558,space,0,0,400,134207,618335
17,18,male,Irish,1,32,ITC,loss,10,left,6,ITC_choice,1444,j,0,0,400,132763,619779
17,18,male,Irish,1,32,ITC,loss,10,left,6,ITC_wait,0,undefined,0,0,400,132761,619781
17,18,male,Irish,1,32,ITC,loss,10,left,6,ITC_collect,382,k,0,0,400,132378,620164
17,18,male,Irish,1,32,ITC,loss,10,left,6,ITC_outcome,0,undefined,0,0,406,131375,621167
17,18,male,Irish,1,33,guess,win,5,right,14,guess_start,551,space,0,0,406,130823,621719
17,18,male,Irish,1,33,guess,win,5,right,14,guess_choice,711,f,0,0,406,130111,622431
17,18,male,Irish,1,33,guess,win,5,right,14,guess_outcome,0,undefined,0,0,426,128558,623984
17,18,male,Irish,1,33,ITC,win,5,right,14,ITC_start,508,space,0,0,426,128049,624493
17,18,male,Irish,1,33,ITC,win,5,right,14,ITC_choice,1159,f,0,0,426,126889,625653
17,18,male,Irish,1,33,ITC,win,5,right,14,ITC_wait,0,undefined,0,0,426,126885,625657
17,18,male,Irish,1,33,ITC,win,5,right,14,ITC_collect,332,k,0,0,426,126553,625989
17,18,male,Irish,1,33,ITC,win,5,right,14,ITC_outcome,0,undefined,0,0,440,125551,626991
17,18,male,Irish,1,34,guess,win,5,right,7,guess_start,603,space,0,0,440,124948,627594
17,18,male,Irish,1,34,guess,win,5,right,7,guess_choice,837,f,0,0,440,124109,628433
17,18,male,Irish,1,34,guess,win,5,right,7,guess_outcome,0,undefined,0,0,460,122557,629985
17,18,male,Irish,1,34,ITC,win,5,right,7,ITC_start,774,space,0,0,460,121782,630760
17,18,male,Irish,1,34,ITC,win,5,right,7,ITC_choice,1978,j,0,0,460,119802,632740
17,18,male,Irish,1,34,ITC,win,5,right,7,ITC_wait,0,undefined,0,0,460,114800,637742
17,18,male,Irish,1,34,ITC,win,5,right,7,ITC_collect,389,k,0,0,460,114410,638132
17,18,male,Irish,1,34,ITC,win,5,right,7,ITC_outcome,0,undefined,0,0,480,113407,639135
17,18,male,Irish,1,35,guess,win,10,right,3,guess_start,462,space,0,0,480,112943,639599
17,18,male,Irish,1,35,guess,win,10,right,3,guess_choice,993,j,0,0,480,111949,640593
17,18,male,Irish,1,35,guess,win,10,right,3,guess_outcome,0,undefined,0,0,500,110397,642145
17,18,male,Irish,1,35,ITC,win,10,right,3,ITC_start,849,space,0,0,500,109547,642995
17,18,male,Irish,1,35,ITC,win,10,right,3,ITC_choice,1979,f,0,0,500,107567,644975
17,18,male,Irish,1,35,ITC,win,10,right,3,ITC_wait,0,undefined,0,0,500,107565,644977
17,18,male,Irish,1,35,ITC,win,10,right,3,ITC_collect,552,k,0,0,500,107012,645530
17,18,male,Irish,1,35,ITC,win,10,right,3,ITC_outcome,0,undefined,0,0,503,106010,646532
17,18,male,Irish,1,36,guess,neutral,5,left,11,guess_start,768,space,0,0,503,105240,647302
17,18,male,Irish,1,36,guess,neutral,5,left,11,guess_choice,628,f,0,0,503,104610,647932
17,18,male,Irish,1,36,guess,neutral,5,left,11,guess_outcome,0,undefined,0,0,503,103058,649484
17,18,male,Irish,1,36,ITC,neutral,5,left,11,ITC_start,637,space,0,0,503,102420,650122
17,18,male,Irish,1,36,ITC,neutral,5,left,11,ITC_choice,1042,j,0,0,503,101377,651165
17,18,male,Irish,1,36,ITC,neutral,5,left,11,ITC_wait,0,undefined,0,0,503,101375,651167
17,18,male,Irish,1,36,ITC,neutral,5,left,11,ITC_collect,313,k,0,0,503,101061,651481
17,18,male,Irish,1,36,ITC,neutral,5,left,11,ITC_outcome,0,undefined,0,0,514,100059,652483
17,18,male,Irish,1,37,guess,loss,5,left,12,guess_start,547,space,0,0,514,99511,653031
17,18,male,Irish,1,37,guess,loss,5,left,12,guess_choice,817,j,0,0,514,98692,653850
17,18,male,Irish,1,37,guess,loss,5,left,12,guess_outcome,0,undefined,0,0,499,97139,655403
17,18,male,Irish,1,37,ITC,loss,5,left,12,ITC_start,470,space,0,0,499,96668,655874
17,18,male,Irish,1,37,ITC,loss,5,left,12,ITC_choice,1086,j,0,0,499,95581,656961
17,18,male,Irish,1,37,ITC,loss,5,left,12,ITC_wait,0,undefined,0,0,499,95579,656963
17,18,male,Irish,1,37,ITC,loss,5,left,12,ITC_collect,218,k,0,0,499,95360,657182
17,18,male,Irish,1,37,ITC,loss,5,left,12,ITC_outcome,0,undefined,0,0,511,94358,658184
17,18,male,Irish,1,38,guess,win,5,right,12,guess_start,539,space,0,0,511,93817,658725
17,18,male,Irish,1,38,guess,win,5,right,12,guess_choice,960,f,0,0,511,92856,659686
17,18,male,Irish,1,38,guess,win,5,right,12,guess_outcome,0,undefined,0,0,531,91303,661239
17,18,male,Irish,1,38,ITC,win,5,right,12,ITC_start,522,space,0,0,531,90780,661762
17,18,male,Irish,1,38,ITC,win,5,right,12,ITC_choice,952,f,0,0,531,89827,662715
17,18,male,Irish,1,38,ITC,win,5,right,12,ITC_wait,0,undefined,0,0,531,89824,662718
17,18,male,Irish,1,38,ITC,win,5,right,12,ITC_collect,344,k,0,0,531,89480,663062
17,18,male,Irish,1,38,ITC,win,5,right,12,ITC_outcome,0,undefined,0,0,543,88477,664065
17,18,male,Irish,1,39,guess,neutral,5,left,2,guess_start,515,space,0,0,543,87961,664581
17,18,male,Irish,1,39,guess,neutral,5,left,2,guess_choice,669,f,0,0,543,87291,665251
17,18,male,Irish,1,39,guess,neutral,5,left,2,guess_outcome,0,undefined,0,0,543,85738,666804
17,18,male,Irish,1,39,ITC,neutral,5,left,2,ITC_start,658,space,0,0,543,85079,667463
17,18,male,Irish,1,39,ITC,neutral,5,left,2,ITC_choice,1908,f,0,0,543,83170,669372
17,18,male,Irish,1,39,ITC,neutral,5,left,2,ITC_wait,0,undefined,0,0,543,78168,674374
17,18,male,Irish,1,39,ITC,neutral,5,left,2,ITC_collect,510,k,0,0,543,77657,674885
17,18,male,Irish,1,39,ITC,neutral,5,left,2,ITC_outcome,0,undefined,0,0,563,76655,675887
17,18,male,Irish,1,40,guess,win,5,left,5,guess_start,637,space,0,0,563,76017,676525
17,18,male,Irish,1,40,guess,win,5,left,5,guess_choice,700,j,0,0,563,75315,677227
17,18,male,Irish,1,40,guess,win,5,left,5,guess_outcome,0,undefined,0,0,583,73762,678780
17,18,male,Irish,1,40,ITC,win,5,left,5,ITC_start,826,space,0,0,583,72935,679607
17,18,male,Irish,1,40,ITC,win,5,left,5,ITC_choice,1056,j,0,0,583,71878,680664
17,18,male,Irish,1,40,ITC,win,5,left,5,ITC_wait,0,undefined,0,0,583,71875,680667
17,18,male,Irish,1,40,ITC,win,5,left,5,ITC_collect,403,k,0,0,583,71471,681071
17,18,male,Irish,1,40,ITC,win,5,left,5,ITC_outcome,0,undefined,0,0,588,70468,682074
17,18,male,Irish,1,41,guess,loss,10,left,3,guess_start,630,space,0,0,588,69837,682705
17,18,male,Irish,1,41,guess,loss,10,left,3,guess_choice,948,j,0,0,588,68887,683655
17,18,male,Irish,1,41,guess,loss,10,left,3,guess_outcome,0,undefined,0,0,573,67335,685207
17,18,male,Irish,1,41,ITC,loss,10,left,3,ITC_start,1306,space,0,0,573,66029,686513
17,18,male,Irish,1,41,ITC,loss,10,left,3,ITC_wait,0,undefined,0,0,573,64449,688093
17,18,male,Irish,1,41,ITC,loss,10,left,3,ITC_choice,1576,j,0,0,573,64451,688091
17,18,male,Irish,1,41,ITC,loss,10,left,3,ITC_collect,248,k,0,0,573,64200,688342
17,18,male,Irish,1,41,ITC,loss,10,left,3,ITC_outcome,0,undefined,0,0,576,63198,689344
17,18,male,Irish,1,42,guess,neutral,10,right,3,guess_start,621,space,0,0,576,62576,689966
17,18,male,Irish,1,42,guess,neutral,10,right,3,guess_choice,955,j,0,0,576,61619,690923
17,18,male,Irish,1,42,guess,neutral,10,right,3,guess_outcome,0,undefined,0,0,576,60067,692475
17,18,male,Irish,1,42,ITC,neutral,10,right,3,ITC_start,939,space,0,0,576,59128,693414
17,18,male,Irish,1,42,ITC,neutral,10,right,3,ITC_choice,1985,j,0,0,576,57142,695400
17,18,male,Irish,1,42,ITC,neutral,10,right,3,ITC_wait,0,undefined,0,0,576,47140,705402
17,18,male,Irish,1,42,ITC,neutral,10,right,3,ITC_collect,1778,k,0,0,576,45360,707182
17,18,male,Irish,1,42,ITC,neutral,10,right,3,ITC_outcome,0,undefined,0,0,596,44359,708183
17,18,male,Irish,1,43,guess,win,5,left,10,guess_start,568,space,0,0,596,43789,708753
17,18,male,Irish,1,43,guess,win,5,left,10,guess_choice,1203,f,0,0,596,42585,709957
17,18,male,Irish,1,43,guess,win,5,left,10,guess_outcome,0,undefined,0,0,616,41033,711509
17,18,male,Irish,1,43,ITC,win,5,left,10,ITC_start,604,space,0,0,616,40427,712115
17,18,male,Irish,1,43,ITC,win,5,left,10,ITC_choice,1029,j,0,0,616,39397,713145
17,18,male,Irish,1,43,ITC,win,5,left,10,ITC_wait,0,undefined,0,0,616,39394,713148
17,18,male,Irish,1,43,ITC,win,5,left,10,ITC_collect,328,k,0,0,616,39065,713477
17,18,male,Irish,1,43,ITC,win,5,left,10,ITC_outcome,0,undefined,0,0,626,38063,714479
17,18,male,Irish,1,44,guess,win,5,left,11,guess_start,710,space,0,0,626,37352,715190
17,18,male,Irish,1,44,guess,win,5,left,11,guess_choice,593,j,0,0,626,36757,715785
17,18,male,Irish,1,44,guess,win,5,left,11,guess_outcome,0,undefined,0,0,646,35205,717337
17,18,male,Irish,1,44,ITC,win,5,left,11,ITC_start,1137,space,0,0,646,34068,718474
17,18,male,Irish,1,44,ITC,win,5,left,11,ITC_wait,0,undefined,0,0,646,33174,719368
17,18,male,Irish,1,44,ITC,win,5,left,11,ITC_choice,890,j,0,0,646,33176,719366
17,18,male,Irish,1,44,ITC,win,5,left,11,ITC_collect,277,k,0,0,646,32896,719646
17,18,male,Irish,1,44,ITC,win,5,left,11,ITC_outcome,0,undefined,0,0,657,31893,720649
17,18,male,Irish,1,45,guess,win,10,right,5,guess_start,592,space,0,0,657,31300,721242
17,18,male,Irish,1,45,guess,win,10,right,5,guess_choice,929,f,0,0,657,30369,722173
17,18,male,Irish,1,45,guess,win,10,right,5,guess_outcome,0,undefined,0,0,677,28816,723726
17,18,male,Irish,1,45,ITC,win,10,right,5,ITC_start,795,space,0,0,677,28020,724522
17,18,male,Irish,1,45,ITC,win,10,right,5,ITC_choice,1472,f,0,0,677,26547,725995
17,18,male,Irish,1,45,ITC,win,10,right,5,ITC_wait,0,undefined,0,0,677,26544,725998
17,18,male,Irish,1,45,ITC,win,10,right,5,ITC_collect,435,k,0,0,677,26108,726434
17,18,male,Irish,1,45,ITC,win,10,right,5,ITC_outcome,0,undefined,0,0,682,25106,727436
17,18,male,Irish,1,46,guess,neutral,10,right,2,guess_start,779,space,0,0,682,24326,728216
17,18,male,Irish,1,46,guess,neutral,10,right,2,guess_choice,847,j,0,0,682,23477,729065
17,18,male,Irish,1,46,guess,neutral,10,right,2,guess_outcome,0,undefined,0,0,682,21925,730617
17,18,male,Irish,1,46,ITC,neutral,10,right,2,ITC_start,795,space,0,0,682,21130,731412
17,18,male,Irish,1,46,ITC,neutral,10,right,2,ITC_choice,1470,j,0,0,682,19658,732884
17,18,male,Irish,1,46,ITC,neutral,10,right,2,ITC_wait,0,undefined,0,0,682,9657,742885
17,18,male,Irish,1,46,ITC,neutral,10,right,2,ITC_collect,960,k,0,0,682,8696,743846
17,18,male,Irish,1,46,ITC,neutral,10,right,2,ITC_outcome,0,undefined,0,0,702,7693,744849
17,18,male,Irish,1,47,guess,loss,10,right,8,guess_start,817,space,0,0,702,6876,745666
17,18,male,Irish,1,47,guess,loss,10,right,8,guess_choice,1106,j,0,0,702,5768,746774
17,18,male,Irish,1,47,guess,loss,10,right,8,guess_outcome,0,undefined,0,0,687,4214,748328
17,18,male,Irish,1,47,ITC,loss,10,right,8,ITC_start,856,space,0,0,687,3358,749184
17,18,male,Irish,1,47,ITC,loss,10,right,8,ITC_choice,1271,j,0,0,687,2086,750456
17,18,male,Irish,1,47,ITC,loss,10,right,8,ITC_wait,0,undefined,0,0,687,-2,752544
17,18,male,Irish,2,48,guess,win,10,right,7,guess_start,1158,space,0,0,0,478842,846368
17,18,male,Irish,2,48,guess,win,10,right,7,guess_choice,1481,j,0,0,0,477360,847850
17,18,male,Irish,2,48,guess,win,10,right,7,guess_outcome,0,undefined,0,0,20,475806,849404
17,18,male,Irish,2,48,ITC,win,10,right,7,ITC_start,1111,space,0,0,20,474694,850516
17,18,male,Irish,2,48,ITC,win,10,right,7,ITC_choice,1853,f,0,0,20,472840,852370
17,18,male,Irish,2,48,ITC,win,10,right,7,ITC_wait,0,undefined,0,0,20,472836,852374
17,18,male,Irish,2,48,ITC,win,10,right,7,ITC_collect,426,k,0,0,20,472410,852800
17,18,male,Irish,2,48,ITC,win,10,right,7,ITC_outcome,0,undefined,0,0,27,471407,853803
17,18,male,Irish,2,49,guess,loss,5,right,3,guess_start,706,space,0,0,27,470700,854510
17,18,male,Irish,2,49,guess,loss,5,right,3,guess_choice,1258,f,0,0,27,469440,855770
17,18,male,Irish,2,49,guess,loss,5,right,3,guess_outcome,0,undefined,0,0,12,467887,857323
17,18,male,Irish,2,49,ITC,loss,5,right,3,ITC_start,828,space,0,0,12,467058,858152
17,18,male,Irish,2,49,ITC,loss,5,right,3,ITC_choice,1067,j,0,0,12,465989,859221
17,18,male,Irish,2,49,ITC,loss,5,right,3,ITC_wait,0,undefined,0,0,12,460987,864223
17,18,male,Irish,2,49,ITC,loss,5,right,3,ITC_collect,404,k,0,0,12,460582,864628
17,18,male,Irish,2,49,ITC,loss,5,right,3,ITC_outcome,0,undefined,0,0,32,459579,865631
17,18,male,Irish,2,50,guess,loss,5,right,6,guess_start,408,space,0,0,32,459170,866040
17,18,male,Irish,2,50,guess,loss,5,right,6,guess_choice,726,j,0,0,32,458442,866768
17,18,male,Irish,2,50,guess,loss,5,right,6,guess_outcome,0,undefined,0,0,17,456888,868322
17,18,male,Irish,2,50,ITC,loss,5,right,6,ITC_start,739,space,0,0,17,456148,869062
17,18,male,Irish,2,50,ITC,loss,5,right,6,ITC_choice,2307,j,0,0,17,453840,871370
17,18,male,Irish,2,50,ITC,loss,5,right,6,ITC_wait,0,undefined,0,0,17,448838,876372
17,18,male,Irish,2,50,ITC,loss,5,right,6,ITC_collect,467,k,0,0,17,448370,876840
17,18,male,Irish,2,50,ITC,loss,5,right,6,ITC_outcome,0,undefined,0,0,37,447367,877843
17,18,male,Irish,2,51,guess,win,5,left,1,guess_start,787,space,0,0,37,446579,878631
17,18,male,Irish,2,51,guess,win,5,left,1,guess_choice,947,f,0,0,37,445630,879580
17,18,male,Irish,2,51,guess,win,5,left,1,guess_outcome,0,undefined,0,0,57,444078,881132
17,18,male,Irish,2,51,ITC,win,5,left,1,ITC_start,515,space,0,0,57,443562,881648
17,18,male,Irish,2,51,ITC,win,5,left,1,ITC_choice,1160,j,0,0,57,442401,882809
17,18,male,Irish,2,51,ITC,win,5,left,1,ITC_wait,0,undefined,0,0,57,442398,882812
17,18,male,Irish,2,51,ITC,win,5,left,1,ITC_collect,299,k,0,0,57,442098,883112
17,18,male,Irish,2,51,ITC,win,5,left,1,ITC_outcome,0,undefined,0,0,58,441096,884114
17,18,male,Irish,2,52,guess,neutral,5,right,10,guess_start,624,space,0,0,58,440470,884740
17,18,male,Irish,2,52,guess,neutral,5,right,10,guess_choice,800,j,0,0,58,439668,885542
17,18,male,Irish,2,52,guess,neutral,5,right,10,guess_outcome,0,undefined,0,0,58,438116,887094
17,18,male,Irish,2,52,ITC,neutral,5,right,10,ITC_start,795,space,0,0,58,437319,887891
17,18,male,Irish,2,52,ITC,neutral,5,right,10,ITC_wait,0,undefined,0,0,58,436267,888943
17,18,male,Irish,2,52,ITC,neutral,5,right,10,ITC_choice,1048,f,0,0,58,436271,888939
17,18,male,Irish,2,52,ITC,neutral,5,right,10,ITC_collect,275,k,0,0,58,435991,889219
17,18,male,Irish,2,52,ITC,neutral,5,right,10,ITC_outcome,0,undefined,0,0,68,434987,890223
17,18,male,Irish,2,53,guess,neutral,5,right,16,guess_start,596,space,0,0,68,434390,890820
17,18,male,Irish,2,53,guess,neutral,5,right,16,guess_choice,778,j,0,0,68,433611,891599
17,18,male,Irish,2,53,guess,neutral,5,right,16,guess_outcome,0,undefined,0,0,68,432058,893152
17,18,male,Irish,2,53,ITC,neutral,5,right,16,ITC_start,649,space,0,0,68,431409,893801
17,18,male,Irish,2,53,ITC,neutral,5,right,16,ITC_choice,841,j,0,0,68,430566,894644
17,18,male,Irish,2,53,ITC,neutral,5,right,16,ITC_wait,0,undefined,0,0,68,425564,899646
17,18,male,Irish,2,53,ITC,neutral,5,right,16,ITC_collect,791,k,0,0,68,424772,900438
17,18,male,Irish,2,53,ITC,neutral,5,right,16,ITC_outcome,0,undefined,0,0,88,423769,901441
17,18,male,Irish,2,54,guess,loss,5,left,14,guess_start,440,space,0,0,88,423327,901883
17,18,male,Irish,2,54,guess,loss,5,left,14,guess_choice,715,f,0,0,88,422610,902600
17,18,male,Irish,2,54,guess,loss,5,left,14,guess_outcome,0,undefined,0,0,73,421058,904152
17,18,male,Irish,2,54,ITC,loss,5,left,14,ITC_start,997,space,0,0,73,420060,905150
17,18,male,Irish,2,54,ITC,loss,5,left,14,ITC_choice,810,j,0,0,73,419249,905961
17,18,male,Irish,2,54,ITC,loss,5,left,14,ITC_wait,0,undefined,0,0,73,419245,905965
17,18,male,Irish,2,54,ITC,loss,5,left,14,ITC_collect,206,k,0,0,73,419038,906172
17,18,male,Irish,2,54,ITC,loss,5,left,14,ITC_outcome,0,undefined,0,0,87,418036,907174
17,18,male,Irish,2,55,guess,loss,5,right,10,guess_start,474,space,0,0,87,417560,907650
17,18,male,Irish,2,55,guess,loss,5,right,10,guess_choice,1299,j,0,0,87,416260,908950
17,18,male,Irish,2,55,guess,loss,5,right,10,guess_outcome,0,undefined,0,0,72,414708,910502
17,18,male,Irish,2,55,ITC,loss,5,right,10,ITC_start,565,space,0,0,72,414141,911069
17,18,male,Irish,2,55,ITC,loss,5,right,10,ITC_choice,1310,j,0,0,72,412830,912380
17,18,male,Irish,2,55,ITC,loss,5,right,10,ITC_wait,0,undefined,0,0,72,407829,917381
17,18,male,Irish,2,55,ITC,loss,5,right,10,ITC_collect,560,k,0,0,72,407268,917942
17,18,male,Irish,2,55,ITC,loss,5,right,10,ITC_outcome,0,undefined,0,0,92,406265,918945
17,18,male,Irish,2,56,guess,win,5,left,15,guess_start,434,space,0,0,92,405829,919381
17,18,male,Irish,2,56,guess,win,5,left,15,guess_choice,711,f,0,0,92,405116,920094
17,18,male,Irish,2,56,guess,win,5,left,15,guess_outcome,0,undefined,0,0,112,403564,921646
17,18,male,Irish,2,56,ITC,win,5,left,15,ITC_start,482,space,0,0,112,403080,922130
17,18,male,Irish,2,56,ITC,win,5,left,15,ITC_choice,835,j,0,0,112,402244,922966
17,18,male,Irish,2,56,ITC,win,5,left,15,ITC_wait,0,undefined,0,0,112,402241,922969
17,18,male,Irish,2,56,ITC,win,5,left,15,ITC_collect,312,k,0,0,112,401928,923282
17,18,male,Irish,2,56,ITC,win,5,left,15,ITC_outcome,0,undefined,0,0,127,400926,924284
17,18,male,Irish,2,57,guess,neutral,5,left,1,guess_start,456,space,0,0,127,400468,924742
17,18,male,Irish,2,57,guess,neutral,5,left,1,guess_choice,1230,f,0,0,127,399236,925974
17,18,male,Irish,2,57,guess,neutral,5,left,1,guess_outcome,0,undefined,0,0,127,397684,927526
17,18,male,Irish,2,57,ITC,neutral,5,left,1,ITC_start,625,space,0,0,127,397058,928152
17,18,male,Irish,2,57,ITC,neutral,5,left,1,ITC_choice,1570,f,0,0,127,395486,929724
17,18,male,Irish,2,57,ITC,neutral,5,left,1,ITC_wait,0,undefined,0,0,127,390485,934725
17,18,male,Irish,2,57,ITC,neutral,5,left,1,ITC_collect,807,k,0,0,127,389677,935533
17,18,male,Irish,2,57,ITC,neutral,5,left,1,ITC_outcome,0,undefined,0,0,147,388675,936535
17,18,male,Irish,2,58,guess,loss,10,left,5,guess_start,357,space,0,0,147,388317,936893
17,18,male,Irish,2,58,guess,loss,10,left,5,guess_choice,637,j,0,0,147,387678,937532
17,18,male,Irish,2,58,guess,loss,10,left,5,guess_outcome,0,undefined,0,0,132,386125,939085
17,18,male,Irish,2,58,ITC,loss,10,left,5,ITC_start,546,space,0,0,132,385577,939633
17,18,male,Irish,2,58,ITC,loss,10,left,5,ITC_choice,1860,f,0,0,132,383717,941493
17,18,male,Irish,2,58,ITC,loss,10,left,5,ITC_wait,0,undefined,0,0,132,373714,951496
17,18,male,Irish,2,58,ITC,loss,10,left,5,ITC_collect,424,k,0,0,132,373289,951921
17,18,male,Irish,2,58,ITC,loss,10,left,5,ITC_outcome,0,undefined,0,0,152,372287,952923
17,18,male,Irish,2,59,guess,neutral,5,right,9,guess_start,497,space,0,0,152,371788,953422
17,18,male,Irish,2,59,guess,neutral,5,right,9,guess_choice,628,j,0,0,152,371159,954051
17,18,male,Irish,2,59,guess,neutral,5,right,9,guess_outcome,0,undefined,0,0,152,369606,955604
17,18,male,Irish,2,59,ITC,neutral,5,right,9,ITC_start,468,space,0,0,152,369137,956073
17,18,male,Irish,2,59,ITC,neutral,5,right,9,ITC_choice,1178,f,0,0,152,367958,957252
17,18,male,Irish,2,59,ITC,neutral,5,right,9,ITC_wait,0,undefined,0,0,152,367955,957255
17,18,male,Irish,2,59,ITC,neutral,5,right,9,ITC_collect,395,k,0,0,152,367559,957651
17,18,male,Irish,2,59,ITC,neutral,5,right,9,ITC_outcome,0,undefined,0,0,161,366556,958654
17,18,male,Irish,2,60,guess,loss,10,left,4,guess_start,445,space,0,0,161,366109,959101
17,18,male,Irish,2,60,guess,loss,10,left,4,guess_choice,903,j,0,0,161,365204,960006
17,18,male,Irish,2,60,guess,loss,10,left,4,guess_outcome,0,undefined,0,0,146,363652,961558
17,18,male,Irish,2,60,ITC,loss,10,left,4,ITC_start,506,space,0,0,146,363146,962064
17,18,male,Irish,2,60,ITC,loss,10,left,4,ITC_choice,1376,j,0,0,146,361769,963441
17,18,male,Irish,2,60,ITC,loss,10,left,4,ITC_wait,0,undefined,0,0,146,361766,963444
17,18,male,Irish,2,60,ITC,loss,10,left,4,ITC_collect,339,k,0,0,146,361426,963784
17,18,male,Irish,2,60,ITC,loss,10,left,4,ITC_outcome,0,undefined,0,0,150,360424,964786
17,18,male,Irish,2,61,guess,win,10,left,8,guess_start,675,space,0,0,150,359747,965463
17,18,male,Irish,2,61,guess,win,10,left,8,guess_choice,789,f,0,0,150,358957,966253
17,18,male,Irish,2,61,guess,win,10,left,8,guess_outcome,0,undefined,0,0,170,357404,967806
17,18,male,Irish,2,61,ITC,win,10,left,8,ITC_start,778,space,0,0,170,356626,968584
17,18,male,Irish,2,61,ITC,win,10,left,8,ITC_choice,868,j,0,0,170,355757,969453
17,18,male,Irish,2,61,ITC,win,10,left,8,ITC_wait,0,undefined,0,0,170,355755,969455
17,18,male,Irish,2,61,ITC,win,10,left,8,ITC_collect,317,k,0,0,170,355436,969774
17,18,male,Irish,2,61,ITC,win,10,left,8,ITC_outcome,0,undefined,0,0,178,354433,970777
17,18,male,Irish,2,62,guess,win,5,right,4,guess_start,654,space,0,0,178,353778,971432
17,18,male,Irish,2,62,guess,win,5,right,4,guess_choice,690,j,0,0,178,353086,972124
17,18,male,Irish,2,62,guess,win,5,right,4,guess_outcome,0,undefined,0,0,198,351532,973678
17,18,male,Irish,2,62,ITC,win,5,right,4,ITC_start,458,space,0,0,198,351073,974137
17,18,male,Irish,2,62,ITC,win,5,right,4,ITC_choice,842,f,0,0,198,350230,974980
17,18,male,Irish,2,62,ITC,win,5,right,4,ITC_wait,0,undefined,0,0,198,350226,974984
17,18,male,Irish,2,62,ITC,win,5,right,4,ITC_collect,518,k,0,0,198,349707,975503
17,18,male,Irish,2,62,ITC,win,5,right,4,ITC_outcome,0,undefined,0,0,202,348704,976506
17,18,male,Irish,2,63,guess,neutral,10,right,7,guess_start,548,space,0,0,202,348155,977055
17,18,male,Irish,2,63,guess,neutral,10,right,7,guess_choice,671,j,0,0,202,347482,977728
17,18,male,Irish,2,63,guess,neutral,10,right,7,guess_outcome,0,undefined,0,0,202,345930,979280
17,18,male,Irish,2,63,ITC,neutral,10,right,7,ITC_start,764,space,0,0,202,345166,980044
17,18,male,Irish,2,63,ITC,neutral,10,right,7,ITC_choice,946,j,0,0,202,344219,980991
17,18,male,Irish,2,63,ITC,neutral,10,right,7,ITC_wait,0,undefined,0,0,202,334216,990994
17,18,male,Irish,2,63,ITC,neutral,10,right,7,ITC_collect,559,k,0,0,202,333656,991554
17,18,male,Irish,2,63,ITC,neutral,10,right,7,ITC_outcome,0,undefined,0,0,222,332653,992557
17,18,male,Irish,2,64,guess,win,5,left,9,guess_start,828,space,0,0,222,331825,993385
17,18,male,Irish,2,64,guess,win,5,left,9,guess_choice,778,f,0,0,222,331045,994165
17,18,male,Irish,2,64,guess,win,5,left,9,guess_outcome,0,undefined,0,0,242,329492,995718
17,18,male,Irish,2,64,ITC,win,5,left,9,ITC_start,572,space,0,0,242,328920,996290
17,18,male,Irish,2,64,ITC,win,5,left,9,ITC_choice,935,j,0,0,242,327984,997226
17,18,male,Irish,2,64,ITC,win,5,left,9,ITC_wait,0,undefined,0,0,242,327980,997230
17,18,male,Irish,2,64,ITC,win,5,left,9,ITC_collect,284,k,0,0,242,327695,997515
17,18,male,Irish,2,64,ITC,win,5,left,9,ITC_outcome,0,undefined,0,0,251,326692,998518
17,18,male,Irish,2,65,guess,neutral,10,left,1,guess_start,628,space,0,0,251,326063,999147
17,18,male,Irish,2,65,guess,neutral,10,left,1,guess_choice,586,j,0,0,251,325476,999734
17,18,male,Irish,2,65,guess,neutral,10,left,1,guess_outcome,0,undefined,0,0,251,323922,1001288
17,18,male,Irish,2,65,ITC,neutral,10,left,1,ITC_start,657,space,0,0,251,323265,1001945
17,18,male,Irish,2,65,ITC,neutral,10,left,1,ITC_choice,1135,f,0,0,251,322128,1003082
17,18,male,Irish,2,65,ITC,neutral,10,left,1,ITC_wait,0,undefined,0,0,251,312125,1013085
17,18,male,Irish,2,65,ITC,neutral,10,left,1,ITC_collect,600,k,0,0,251,311524,1013686
17,18,male,Irish,2,65,ITC,neutral,10,left,1,ITC_outcome,0,undefined,0,0,271,310521,1014689
17,18,male,Irish,2,66,guess,neutral,5,right,14,guess_start,1135,space,0,0,271,309385,1015825
17,18,male,Irish,2,66,guess,neutral,5,right,14,guess_choice,635,j,0,0,271,308748,1016462
17,18,male,Irish,2,66,guess,neutral,5,right,14,guess_outcome,0,undefined,0,0,271,307195,1018015
17,18,male,Irish,2,66,ITC,neutral,5,right,14,ITC_start,691,space,0,0,271,306503,1018707
17,18,male,Irish,2,66,ITC,neutral,5,right,14,ITC_choice,1037,f,0,0,271,305465,1019745
17,18,male,Irish,2,66,ITC,neutral,5,right,14,ITC_wait,0,undefined,0,0,271,305461,1019749
17,18,male,Irish,2,66,ITC,neutral,5,right,14,ITC_collect,257,k,0,0,271,305204,1020006
17,18,male,Irish,2,66,ITC,neutral,5,right,14,ITC_outcome,0,undefined,0,0,285,304202,1021008
17,18,male,Irish,2,67,guess,win,5,right,3,guess_start,617,space,0,0,285,303584,1021626
17,18,male,Irish,2,67,guess,win,5,right,3,guess_choice,675,j,0,0,285,302907,1022303
17,18,male,Irish,2,67,guess,win,5,right,3,guess_outcome,0,undefined,0,0,305,301354,1023856
17,18,male,Irish,2,67,ITC,win,5,right,3,ITC_start,857,space,0,0,305,300496,1024714
17,18,male,Irish,2,67,ITC,win,5,right,3,ITC_choice,1143,j,0,0,305,299353,1025857
17,18,male,Irish,2,67,ITC,win,5,right,3,ITC_wait,0,undefined,0,0,305,294351,1030859
17,18,male,Irish,2,67,ITC,win,5,right,3,ITC_collect,659,k,0,0,305,293691,1031519
17,18,male,Irish,2,67,ITC,win,5,right,3,ITC_outcome,0,undefined,0,0,325,292688,1032522
17,18,male,Irish,2,68,guess,loss,5,left,13,guess_start,632,space,0,0,325,292055,1033155
17,18,male,Irish,2,68,guess,loss,5,left,13,guess_choice,1327,f,0,0,325,290726,1034484
17,18,male,Irish,2,68,guess,loss,5,left,13,guess_outcome,0,undefined,0,0,310,289173,1036037
17,18,male,Irish,2,68,ITC,loss,5,left,13,ITC_start,1588,space,0,0,310,287585,1037625
17,18,male,Irish,2,68,ITC,loss,5,left,13,ITC_choice,869,j,0,0,310,286715,1038495
17,18,male,Irish,2,68,ITC,loss,5,left,13,ITC_wait,0,undefined,0,0,310,286711,1038499
17,18,male,Irish,2,68,ITC,loss,5,left,13,ITC_collect,295,k,0,0,310,286416,1038794
17,18,male,Irish,2,68,ITC,loss,5,left,13,ITC_outcome,0,undefined,0,0,323,285411,1039799
17,18,male,Irish,2,69,guess,loss,10,right,1,guess_start,463,space,0,0,323,284947,1040263
17,18,male,Irish,2,69,guess,loss,10,right,1,guess_choice,722,j,0,0,323,284223,1040987
17,18,male,Irish,2,69,guess,loss,10,right,1,guess_outcome,0,undefined,0,0,308,282670,1042540
17,18,male,Irish,2,69,ITC,loss,10,right,1,ITC_start,575,space,0,0,308,282094,1043116
17,18,male,Irish,2,69,ITC,loss,10,right,1,ITC_choice,1088,j,0,0,308,281005,1044205
17,18,male,Irish,2,69,ITC,loss,10,right,1,ITC_wait,0,undefined,0,0,308,271003,1054207
17,18,male,Irish,2,69,ITC,loss,10,right,1,ITC_collect,899,k,0,0,308,270103,1055107
17,18,male,Irish,2,69,ITC,loss,10,right,1,ITC_outcome,0,undefined,0,0,328,269100,1056110
17,18,male,Irish,2,70,guess,neutral,5,right,13,guess_start,974,space,0,0,328,268125,1057085
17,18,male,Irish,2,70,guess,neutral,5,right,13,guess_choice,636,f,0,0,328,267487,1057723
17,18,male,Irish,2,70,guess,neutral,5,right,13,guess_outcome,0,undefined,0,0,328,265933,1059277
17,18,male,Irish,2,70,ITC,neutral,5,right,13,ITC_start,539,space,0,0,328,265394,1059816
17,18,male,Irish,2,70,ITC,neutral,5,right,13,ITC_choice,827,f,0,0,328,264565,1060645
17,18,male,Irish,2,70,ITC,neutral,5,right,13,ITC_wait,0,undefined,0,0,328,264562,1060648
17,18,male,Irish,2,70,ITC,neutral,5,right,13,ITC_collect,276,k,0,0,328,264285,1060925
17,18,male,Irish,2,70,ITC,neutral,5,right,13,ITC_outcome,0,undefined,0,0,341,263282,1061928
17,18,male,Irish,2,71,guess,neutral,5,left,5,guess_start,558,space,0,0,341,262723,1062487
17,18,male,Irish,2,71,guess,neutral,5,left,5,guess_choice,667,f,0,0,341,262054,1063156
17,18,male,Irish,2,71,guess,neutral,5,left,5,guess_outcome,0,undefined,0,0,341,260500,1064710
17,18,male,Irish,2,71,ITC,neutral,5,left,5,ITC_start,684,space,0,0,341,259815,1065395
17,18,male,Irish,2,71,ITC,neutral,5,left,5,ITC_choice,800,j,0,0,341,259013,1066197
17,18,male,Irish,2,71,ITC,neutral,5,left,5,ITC_wait,0,undefined,0,0,341,259011,1066199
17,18,male,Irish,2,71,ITC,neutral,5,left,5,ITC_collect,767,k,0,0,341,258243,1066967
17,18,male,Irish,2,71,ITC,neutral,5,left,5,ITC_outcome,0,undefined,0,0,346,257241,1067969
17,18,male,Irish,2,72,guess,win,10,left,4,guess_start,494,space,0,0,346,256746,1068464
17,18,male,Irish,2,72,guess,win,10,left,4,guess_choice,703,j,0,0,346,256041,1069169
17,18,male,Irish,2,72,guess,win,10,left,4,guess_outcome,0,undefined,0,0,366,254487,1070723
17,18,male,Irish,2,72,ITC,win,10,left,4,ITC_start,165,space,0,0,366,254321,1070889
17,18,male,Irish,2,72,ITC,win,10,left,4,ITC_choice,1186,f,0,0,366,253134,1072076
17,18,male,Irish,2,72,ITC,win,10,left,4,ITC_wait,0,undefined,0,0,366,243131,1082079
17,18,male,Irish,2,72,ITC,win,10,left,4,ITC_collect,979,k,0,0,366,242151,1083059
17,18,male,Irish,2,72,ITC,win,10,left,4,ITC_outcome,0,undefined,0,0,386,241149,1084061
17,18,male,Irish,2,73,guess,neutral,5,right,8,guess_start,675,space,0,0,386,240473,1084737
17,18,male,Irish,2,73,guess,neutral,5,right,8,guess_choice,658,j,0,0,386,239813,1085397
17,18,male,Irish,2,73,guess,neutral,5,right,8,guess_outcome,0,undefined,0,0,386,238258,1086952
17,18,male,Irish,2,73,ITC,neutral,5,right,8,ITC_start,655,space,0,0,386,237602,1087608
17,18,male,Irish,2,73,ITC,neutral,5,right,8,ITC_choice,1137,j,0,0,386,236464,1088746
17,18,male,Irish,2,73,ITC,neutral,5,right,8,ITC_wait,0,undefined,0,0,386,231462,1093748
17,18,male,Irish,2,73,ITC,neutral,5,right,8,ITC_collect,1137,k,0,0,386,230324,1094886
17,18,male,Irish,2,73,ITC,neutral,5,right,8,ITC_outcome,0,undefined,0,0,406,229321,1095889
17,18,male,Irish,2,74,guess,loss,5,right,1,guess_start,518,space,0,0,406,228802,1096408
17,18,male,Irish,2,74,guess,loss,5,right,1,guess_choice,678,j,0,0,406,228122,1097088
17,18,male,Irish,2,74,guess,loss,5,right,1,guess_outcome,0,undefined,0,0,391,226569,1098641
17,18,male,Irish,2,74,ITC,loss,5,right,1,ITC_start,546,space,0,0,391,226022,1099188
17,18,male,Irish,2,74,ITC,loss,5,right,1,ITC_choice,1149,j,0,0,391,224872,1100338
17,18,male,Irish,2,74,ITC,loss,5,right,1,ITC_wait,0,undefined,0,0,391,219869,1105341
17,18,male,Irish,2,74,ITC,loss,5,right,1,ITC_collect,850,k,0,0,391,219018,1106192
17,18,male,Irish,2,74,ITC,loss,5,right,1,ITC_outcome,0,undefined,0,0,411,218015,1107195
17,18,male,Irish,2,75,guess,neutral,5,left,13,guess_start,521,space,0,0,411,217493,1107717
17,18,male,Irish,2,75,guess,neutral,5,left,13,guess_choice,652,j,0,0,411,216840,1108370
17,18,male,Irish,2,75,guess,neutral,5,left,13,guess_outcome,0,undefined,0,0,411,215286,1109924
17,18,male,Irish,2,75,ITC,neutral,5,left,13,ITC_start,1215,space,0,0,411,214071,1111139
17,18,male,Irish,2,75,ITC,neutral,5,left,13,ITC_choice,1097,j,0,0,411,212973,1112237
17,18,male,Irish,2,75,ITC,neutral,5,left,13,ITC_wait,0,undefined,0,0,411,212969,1112241
17,18,male,Irish,2,75,ITC,neutral,5,left,13,ITC_collect,215,k,0,0,411,212753,1112457
17,18,male,Irish,2,75,ITC,neutral,5,left,13,ITC_outcome,0,undefined,0,0,424,211751,1113459
17,18,male,Irish,2,76,guess,loss,5,left,4,guess_start,617,space,0,0,424,211133,1114077
17,18,male,Irish,2,76,guess,loss,5,left,4,guess_choice,771,f,0,0,424,210360,1114850
17,18,male,Irish,2,76,guess,loss,5,left,4,guess_outcome,0,undefined,0,0,409,208807,1116403
17,18,male,Irish,2,76,ITC,loss,5,left,4,ITC_start,535,space,0,0,409,208271,1116939
17,18,male,Irish,2,76,ITC,loss,5,left,4,ITC_choice,789,j,0,0,409,207481,1117729
17,18,male,Irish,2,76,ITC,loss,5,left,4,ITC_wait,0,undefined,0,0,409,207477,1117733
17,18,male,Irish,2,76,ITC,loss,5,left,4,ITC_collect,345,k,0,0,409,207132,1118078
17,18,male,Irish,2,76,ITC,loss,5,left,4,ITC_outcome,0,undefined,0,0,413,206129,1119081
17,18,male,Irish,2,77,guess,win,10,left,8,guess_start,555,space,0,0,413,205573,1119637
17,18,male,Irish,2,77,guess,win,10,left,8,guess_choice,790,j,0,0,413,204782,1120428
17,18,male,Irish,2,77,guess,win,10,left,8,guess_outcome,0,undefined,0,0,433,203228,1121982
17,18,male,Irish,2,77,ITC,win,10,left,8,ITC_start,551,space,0,0,433,202676,1122534
17,18,male,Irish,2,77,ITC,win,10,left,8,ITC_wait,0,undefined,0,0,433,201799,1123411
17,18,male,Irish,2,77,ITC,win,10,left,8,ITC_choice,872,j,0,0,433,201803,1123407
17,18,male,Irish,2,77,ITC,win,10,left,8,ITC_collect,327,k,0,0,433,201472,1123738
17,18,male,Irish,2,77,ITC,win,10,left,8,ITC_outcome,0,undefined,0,0,441,200470,1124740
17,18,male,Irish,2,78,guess,neutral,10,left,3,guess_start,667,space,0,0,441,199802,1125408
17,18,male,Irish,2,78,guess,neutral,10,left,3,guess_choice,652,j,0,0,441,199147,1126063
17,18,male,Irish,2,78,guess,neutral,10,left,3,guess_outcome,0,undefined,0,0,441,197594,1127616
17,18,male,Irish,2,78,ITC,neutral,10,left,3,ITC_start,792,space,0,0,441,196801,1128409
17,18,male,Irish,2,78,ITC,neutral,10,left,3,ITC_choice,1119,f,0,0,441,195681,1129529
17,18,male,Irish,2,78,ITC,neutral,10,left,3,ITC_wait,0,undefined,0,0,441,185679,1139531
17,18,male,Irish,2,78,ITC,neutral,10,left,3,ITC_collect,435,k,0,0,441,185244,1139966
17,18,male,Irish,2,78,ITC,neutral,10,left,3,ITC_outcome,0,undefined,0,0,461,184240,1140970
17,18,male,Irish,2,79,guess,win,5,left,2,guess_start,580,space,0,0,461,183659,1141551
17,18,male,Irish,2,79,guess,win,5,left,2,guess_choice,726,j,0,0,461,182931,1142279
17,18,male,Irish,2,79,guess,win,5,left,2,guess_outcome,0,undefined,0,0,481,181378,1143832
17,18,male,Irish,2,79,ITC,win,5,left,2,ITC_start,738,space,0,0,481,180639,1144571
17,18,male,Irish,2,79,ITC,win,5,left,2,ITC_choice,1290,f,0,0,481,179348,1145862
17,18,male,Irish,2,79,ITC,win,5,left,2,ITC_wait,0,undefined,0,0,481,174346,1150864
17,18,male,Irish,2,79,ITC,win,5,left,2,ITC_collect,953,k,0,0,481,173391,1151819
17,18,male,Irish,2,79,ITC,win,5,left,2,ITC_outcome,0,undefined,0,0,501,172389,1152821
17,18,male,Irish,2,80,guess,neutral,10,left,4,guess_start,618,space,0,0,501,171770,1153440
17,18,male,Irish,2,80,guess,neutral,10,left,4,guess_choice,767,f,0,0,501,171001,1154209
17,18,male,Irish,2,80,guess,neutral,10,left,4,guess_outcome,0,undefined,0,0,501,169448,1155762
17,18,male,Irish,2,80,ITC,neutral,10,left,4,ITC_start,622,space,0,0,501,168825,1156385
17,18,male,Irish,2,80,ITC,neutral,10,left,4,ITC_choice,2207,j,0,0,501,166617,1158593
17,18,male,Irish,2,80,ITC,neutral,10,left,4,ITC_wait,0,undefined,0,0,501,166614,1158596
17,18,male,Irish,2,80,ITC,neutral,10,left,4,ITC_collect,391,k,0,0,501,166222,1158988
17,18,male,Irish,2,80,ITC,neutral,10,left,4,ITC_outcome,0,undefined,0,0,505,165219,1159991
17,18,male,Irish,2,81,guess,neutral,5,right,7,guess_start,468,space,0,0,505,164750,1160460
17,18,male,Irish,2,81,guess,neutral,5,right,7,guess_choice,528,j,0,0,505,164220,1160990
17,18,male,Irish,2,81,guess,neutral,5,right,7,guess_outcome,0,undefined,0,0,505,162667,1162543
17,18,male,Irish,2,81,ITC,neutral,5,right,7,ITC_start,474,space,0,0,505,162192,1163018
17,18,male,Irish,2,81,ITC,neutral,5,right,7,ITC_choice,1362,j,0,0,505,160829,1164381
17,18,male,Irish,2,81,ITC,neutral,5,right,7,ITC_wait,0,undefined,0,0,505,155828,1169382
17,18,male,Irish,2,81,ITC,neutral,5,right,7,ITC_collect,599,k,0,0,505,155228,1169982
17,18,male,Irish,2,81,ITC,neutral,5,right,7,ITC_outcome,0,undefined,0,0,525,154226,1170984
17,18,male,Irish,2,82,guess,win,5,right,16,guess_start,545,space,0,0,525,153680,1171530
17,18,male,Irish,2,82,guess,win,5,right,16,guess_choice,671,j,0,0,525,153007,1172203
17,18,male,Irish,2,82,guess,win,5,right,16,guess_outcome,0,undefined,0,0,545,151455,1173755
17,18,male,Irish,2,82,ITC,win,5,right,16,ITC_start,693,space,0,0,545,150761,1174449
17,18,male,Irish,2,82,ITC,win,5,right,16,ITC_choice,1298,f,0,0,545,149462,1175748
17,18,male,Irish,2,82,ITC,win,5,right,16,ITC_wait,0,undefined,0,0,545,149458,1175752
17,18,male,Irish,2,82,ITC,win,5,right,16,ITC_collect,157,k,0,0,545,149300,1175910
17,18,male,Irish,2,82,ITC,win,5,right,16,ITC_outcome,0,undefined,0,0,561,148298,1176912
17,18,male,Irish,2,83,guess,neutral,10,left,8,guess_start,1138,space,0,0,561,147159,1178051
17,18,male,Irish,2,83,guess,neutral,10,left,8,guess_choice,637,j,0,0,561,146520,1178690
17,18,male,Irish,2,83,guess,neutral,10,left,8,guess_outcome,0,undefined,0,0,561,144968,1180242
17,18,male,Irish,2,83,ITC,neutral,10,left,8,ITC_start,390,space,0,0,561,144577,1180633
17,18,male,Irish,2,83,ITC,neutral,10,left,8,ITC_choice,749,j,0,0,561,143827,1181383
17,18,male,Irish,2,83,ITC,neutral,10,left,8,ITC_wait,0,undefined,0,0,561,143824,1181386
17,18,male,Irish,2,83,ITC,neutral,10,left,8,ITC_collect,256,k,0,0,561,143567,1181643
17,18,male,Irish,2,83,ITC,neutral,10,left,8,ITC_outcome,0,undefined,0,0,569,142565,1182645
17,18,male,Irish,2,84,guess,neutral,5,left,4,guess_start,624,space,0,0,569,141940,1183270
17,18,male,Irish,2,84,guess,neutral,5,left,4,guess_choice,619,f,0,0,569,141319,1183891
17,18,male,Irish,2,84,guess,neutral,5,left,4,guess_outcome,0,undefined,0,0,569,139767,1185443
17,18,male,Irish,2,84,ITC,neutral,5,left,4,ITC_start,670,space,0,0,569,139096,1186114
17,18,male,Irish,2,84,ITC,neutral,5,left,4,ITC_choice,1144,f,0,0,569,137951,1187259
17,18,male,Irish,2,84,ITC,neutral,5,left,4,ITC_wait,0,undefined,0,0,569,132948,1192262
17,18,male,Irish,2,84,ITC,neutral,5,left,4,ITC_collect,441,k,0,0,569,132505,1192705
17,18,male,Irish,2,84,ITC,neutral,5,left,4,ITC_outcome,0,undefined,0,0,589,131502,1193708
17,18,male,Irish,2,85,guess,win,5,right,11,guess_start,462,space,0,0,589,131039,1194171
17,18,male,Irish,2,85,guess,win,5,right,11,guess_choice,669,j,0,0,589,130369,1194841
17,18,male,Irish,2,85,guess,win,5,right,11,guess_outcome,0,undefined,0,0,609,128815,1196395
17,18,male,Irish,2,85,ITC,win,5,right,11,ITC_start,1278,space,0,0,609,127536,1197674
17,18,male,Irish,2,85,ITC,win,5,right,11,ITC_choice,1165,j,0,0,609,126370,1198840
17,18,male,Irish,2,85,ITC,win,5,right,11,ITC_wait,0,undefined,0,0,609,121369,1203841
17,18,male,Irish,2,85,ITC,win,5,right,11,ITC_collect,470,k,0,0,609,120898,1204312
17,18,male,Irish,2,85,ITC,win,5,right,11,ITC_outcome,0,undefined,0,0,629,119896,1205314
17,18,male,Irish,2,86,guess,neutral,10,right,5,guess_start,364,space,0,0,629,119530,1205680
17,18,male,Irish,2,86,guess,neutral,10,right,5,guess_choice,672,j,0,0,629,118856,1206354
17,18,male,Irish,2,86,guess,neutral,10,right,5,guess_outcome,0,undefined,0,0,629,117303,1207907
17,18,male,Irish,2,86,ITC,neutral,10,right,5,ITC_start,744,space,0,0,629,116558,1208652
17,18,male,Irish,2,86,ITC,neutral,10,right,5,ITC_choice,1511,f,0,0,629,115046,1210164
17,18,male,Irish,2,86,ITC,neutral,10,right,5,ITC_wait,0,undefined,0,0,629,115043,1210167
17,18,male,Irish,2,86,ITC,neutral,10,right,5,ITC_collect,324,k,0,0,629,114718,1210492
17,18,male,Irish,2,86,ITC,neutral,10,right,5,ITC_outcome,0,undefined,0,0,634,113714,1211496
17,18,male,Irish,2,87,guess,loss,5,right,11,guess_start,426,space,0,0,634,113287,1211923
17,18,male,Irish,2,87,guess,loss,5,right,11,guess_choice,548,j,0,0,634,112737,1212473
17,18,male,Irish,2,87,guess,loss,5,right,11,guess_outcome,0,undefined,0,0,619,111185,1214025
17,18,male,Irish,2,87,ITC,loss,5,right,11,ITC_start,427,space,0,0,619,110756,1214454
17,18,male,Irish,2,87,ITC,loss,5,right,11,ITC_choice,881,f,0,0,619,109874,1215336
17,18,male,Irish,2,87,ITC,loss,5,right,11,ITC_wait,0,undefined,0,0,619,109872,1215338
17,18,male,Irish,2,87,ITC,loss,5,right,11,ITC_collect,262,k,0,0,619,109609,1215601
17,18,male,Irish,2,87,ITC,loss,5,right,11,ITC_outcome,0,undefined,0,0,630,108607,1216603
17,18,male,Irish,2,88,guess,loss,5,right,15,guess_start,439,space,0,0,630,108166,1217044
17,18,male,Irish,2,88,guess,loss,5,right,15,guess_choice,761,f,0,0,630,107404,1217806
17,18,male,Irish,2,88,guess,loss,5,right,15,guess_outcome,0,undefined,0,0,615,105852,1219358
17,18,male,Irish,2,88,ITC,loss,5,right,15,ITC_start,375,space,0,0,615,105475,1219735
17,18,male,Irish,2,88,ITC,loss,5,right,15,ITC_choice,1161,f,0,0,615,104313,1220897
17,18,male,Irish,2,88,ITC,loss,5,right,15,ITC_wait,0,undefined,0,0,615,104310,1220900
17,18,male,Irish,2,88,ITC,loss,5,right,15,ITC_collect,231,k,0,0,615,104078,1221132
17,18,male,Irish,2,88,ITC,loss,5,right,15,ITC_outcome,0,undefined,0,0,630,103075,1222135
17,18,male,Irish,2,89,guess,loss,5,left,3,guess_start,431,space,0,0,630,102643,1222567
17,18,male,Irish,2,89,guess,loss,5,left,3,guess_choice,524,j,0,0,630,102117,1223093
17,18,male,Irish,2,89,guess,loss,5,left,3,guess_outcome,0,undefined,0,0,615,100564,1224646
17,18,male,Irish,2,89,ITC,loss,5,left,3,ITC_start,448,space,0,0,615,100115,1225095
17,18,male,Irish,2,89,ITC,loss,5,left,3,ITC_choice,1420,f,0,0,615,98693,1226517
17,18,male,Irish,2,89,ITC,loss,5,left,3,ITC_wait,0,undefined,0,0,615,93692,1231518
17,18,male,Irish,2,89,ITC,loss,5,left,3,ITC_collect,458,k,0,0,615,93233,1231977
17,18,male,Irish,2,89,ITC,loss,5,left,3,ITC_outcome,0,undefined,0,0,635,92231,1232979
17,18,male,Irish,2,90,guess,neutral,5,right,5,guess_start,392,space,0,0,635,91838,1233372
17,18,male,Irish,2,90,guess,neutral,5,right,5,guess_choice,660,j,0,0,635,91176,1234034
17,18,male,Irish,2,90,guess,neutral,5,right,5,guess_outcome,0,undefined,0,0,635,89623,1235587
17,18,male,Irish,2,90,ITC,neutral,5,right,5,ITC_start,994,space,0,0,635,88627,1236583
17,18,male,Irish,2,90,ITC,neutral,5,right,5,ITC_choice,1221,j,0,0,635,87405,1237805
17,18,male,Irish,2,90,ITC,neutral,5,right,5,ITC_wait,0,undefined,0,0,635,82403,1242807
17,18,male,Irish,2,90,ITC,neutral,5,right,5,ITC_collect,439,k,0,0,635,81963,1243247
17,18,male,Irish,2,90,ITC,neutral,5,right,5,ITC_outcome,0,undefined,0,0,655,80960,1244250
17,18,male,Irish,2,91,guess,win,10,right,7,guess_start,482,space,0,0,655,80476,1244734
17,18,male,Irish,2,91,guess,win,10,right,7,guess_choice,986,f,0,0,655,79488,1245722
17,18,male,Irish,2,91,guess,win,10,right,7,guess_outcome,0,undefined,0,0,675,77935,1247275
17,18,male,Irish,2,91,ITC,win,10,right,7,ITC_start,668,space,0,0,675,77266,1247944
17,18,male,Irish,2,91,ITC,win,10,right,7,ITC_choice,1361,f,0,0,675,75904,1249306
17,18,male,Irish,2,91,ITC,win,10,right,7,ITC_wait,0,undefined,0,0,675,75901,1249309
17,18,male,Irish,2,91,ITC,win,10,right,7,ITC_collect,265,k,0,0,675,75635,1249575
17,18,male,Irish,2,91,ITC,win,10,right,7,ITC_outcome,0,undefined,0,0,682,74633,1250577
17,18,male,Irish,2,92,guess,win,10,left,6,guess_start,521,space,0,0,682,74111,1251099
17,18,male,Irish,2,92,guess,win,10,left,6,guess_choice,744,j,0,0,682,73365,1251845
17,18,male,Irish,2,92,guess,win,10,left,6,guess_outcome,0,undefined,0,0,702,71813,1253397
17,18,male,Irish,2,92,ITC,win,10,left,6,ITC_start,418,space,0,0,702,71394,1253816
17,18,male,Irish,2,92,ITC,win,10,left,6,ITC_choice,1138,j,0,0,702,70255,1254955
17,18,male,Irish,2,92,ITC,win,10,left,6,ITC_wait,0,undefined,0,0,702,70253,1254957
17,18,male,Irish,2,92,ITC,win,10,left,6,ITC_collect,247,k,0,0,702,70005,1255205
17,18,male,Irish,2,92,ITC,win,10,left,6,ITC_outcome,0,undefined,0,0,708,69003,1256207
17,18,male,Irish,2,93,guess,neutral,5,right,9,guess_start,523,space,0,0,708,68478,1256732
17,18,male,Irish,2,93,guess,neutral,5,right,9,guess_choice,921,j,0,0,708,67555,1257655
17,18,male,Irish,2,93,guess,neutral,5,right,9,guess_outcome,0,undefined,0,0,708,66003,1259207
17,18,male,Irish,2,93,ITC,neutral,5,right,9,ITC_start,627,space,0,0,708,65375,1259835
17,18,male,Irish,2,93,ITC,neutral,5,right,9,ITC_choice,858,j,0,0,708,64516,1260694
17,18,male,Irish,2,93,ITC,neutral,5,right,9,ITC_wait,0,undefined,0,0,708,59513,1265697
17,18,male,Irish,2,93,ITC,neutral,5,right,9,ITC_collect,506,k,0,0,708,59006,1266204
17,18,male,Irish,2,93,ITC,neutral,5,right,9,ITC_outcome,0,undefined,0,0,728,58003,1267207
17,18,male,Irish,2,94,guess,neutral,10,right,1,guess_start,889,space,0,0,728,57112,1268098
17,18,male,Irish,2,94,guess,neutral,10,right,1,guess_choice,1247,f,0,0,728,55863,1269347
17,18,male,Irish,2,94,guess,neutral,10,right,1,guess_outcome,0,undefined,0,0,728,54311,1270899
17,18,male,Irish,2,94,ITC,neutral,10,right,1,ITC_start,556,space,0,0,728,53754,1271456
17,18,male,Irish,2,94,ITC,neutral,10,right,1,ITC_choice,1226,f,0,0,728,52526,1272684
17,18,male,Irish,2,94,ITC,neutral,10,right,1,ITC_wait,0,undefined,0,0,728,52522,1272688
17,18,male,Irish,2,94,ITC,neutral,10,right,1,ITC_collect,436,k,0,0,728,52086,1273124
17,18,male,Irish,2,94,ITC,neutral,10,right,1,ITC_outcome,0,undefined,0,0,729,51084,1274126
17,18,male,Irish,2,95,guess,loss,5,left,13,guess_start,472,space,0,0,729,50610,1274600
17,18,male,Irish,2,95,guess,loss,5,left,13,guess_choice,621,j,0,0,729,49988,1275222
17,18,male,Irish,2,95,guess,loss,5,left,13,guess_outcome,0,undefined,0,0,714,48434,1276776
17,18,male,Irish,2,95,ITC,loss,5,left,13,ITC_start,572,space,0,0,714,47861,1277349
17,18,male,Irish,2,95,ITC,loss,5,left,13,ITC_choice,1006,j,0,0,714,46854,1278356
17,18,male,Irish,2,95,ITC,loss,5,left,13,ITC_wait,0,undefined,0,0,714,46852,1278358
17,18,male,Irish,2,95,ITC,loss,5,left,13,ITC_collect,253,k,0,0,714,46598,1278612
17,18,male,Irish,2,95,ITC,loss,5,left,13,ITC_outcome,0,undefined,0,0,727,45595,1279615
17,18,male,Irish,2,96,guess,win,5,right,12,guess_start,492,space,0,0,727,45102,1280108
17,18,male,Irish,2,96,guess,win,5,right,12,guess_choice,708,f,0,0,727,44392,1280818
17,18,male,Irish,2,96,guess,win,5,right,12,guess_outcome,0,undefined,0,0,747,42840,1282370
17,18,male,Irish,2,96,ITC,win,5,right,12,ITC_start,705,space,0,0,747,42134,1283076
17,18,male,Irish,2,96,ITC,win,5,right,12,ITC_choice,960,f,0,0,747,41172,1284038
17,18,male,Irish,2,96,ITC,win,5,right,12,ITC_wait,0,undefined,0,0,747,41169,1284041
17,18,male,Irish,2,96,ITC,win,5,right,12,ITC_collect,242,k,0,0,747,40927,1284283
17,18,male,Irish,2,96,ITC,win,5,right,12,ITC_outcome,0,undefined,0,0,759,39925,1285285
17,18,male,Irish,2,97,guess,loss,5,left,12,guess_start,560,space,0,0,759,39363,1285847
17,18,male,Irish,2,97,guess,loss,5,left,12,guess_choice,788,j,0,0,759,38574,1286636
17,18,male,Irish,2,97,guess,loss,5,left,12,guess_outcome,0,undefined,0,0,744,37022,1288188
17,18,male,Irish,2,97,ITC,loss,5,left,12,ITC_start,460,space,0,0,744,36561,1288649
17,18,male,Irish,2,97,ITC,loss,5,left,12,ITC_choice,1068,f,0,0,744,35492,1289718
17,18,male,Irish,2,97,ITC,loss,5,left,12,ITC_wait,0,undefined,0,0,744,30491,1294719
17,18,male,Irish,2,97,ITC,loss,5,left,12,ITC_collect,587,k,0,0,744,29903,1295307
17,18,male,Irish,2,97,ITC,loss,5,left,12,ITC_outcome,0,undefined,0,0,764,28900,1296310
17,18,male,Irish,2,98,guess,win,10,right,3,guess_start,413,space,0,0,764,28486,1296724
17,18,male,Irish,2,98,guess,win,10,right,3,guess_choice,641,j,0,0,764,27843,1297367
17,18,male,Irish,2,98,guess,win,10,right,3,guess_outcome,0,undefined,0,0,784,26291,1298919
17,18,male,Irish,2,98,ITC,win,10,right,3,ITC_start,687,space,0,0,784,25602,1299608
17,18,male,Irish,2,98,ITC,win,10,right,3,ITC_choice,1386,f,0,0,784,24215,1300995
17,18,male,Irish,2,98,ITC,win,10,right,3,ITC_wait,0,undefined,0,0,784,24213,1300997
17,18,male,Irish,2,98,ITC,win,10,right,3,ITC_collect,259,k,0,0,784,23952,1301258
17,18,male,Irish,2,98,ITC,win,10,right,3,ITC_outcome,0,undefined,0,0,787,22950,1302260
17,18,male,Irish,2,99,guess,win,5,left,6,guess_start,776,space,0,0,787,22173,1303037
17,18,male,Irish,2,99,guess,win,5,left,6,guess_choice,659,j,0,0,787,21511,1303699
17,18,male,Irish,2,99,guess,win,5,left,6,guess_outcome,0,undefined,0,0,807,19959,1305251
17,18,male,Irish,2,99,ITC,win,5,left,6,ITC_start,557,space,0,0,807,19401,1305809
17,18,male,Irish,2,99,ITC,win,5,left,6,ITC_wait,0,undefined,0,0,807,18071,1307139
17,18,male,Irish,2,99,ITC,win,5,left,6,ITC_choice,1326,j,0,0,807,18073,1307137
17,18,male,Irish,2,99,ITC,win,5,left,6,ITC_collect,210,k,0,0,807,17860,1307350
17,18,male,Irish,2,99,ITC,win,5,left,6,ITC_outcome,0,undefined,0,0,813,16858,1308352
17,18,male,Irish,2,100,guess,loss,5,right,14,guess_start,393,space,0,0,813,16463,1308747
17,18,male,Irish,2,100,guess,loss,5,right,14,guess_choice,651,f,0,0,813,15810,1309400
17,18,male,Irish,2,100,guess,loss,5,right,14,guess_outcome,0,undefined,0,0,798,14256,1310954
17,18,male,Irish,2,100,ITC,loss,5,right,14,ITC_start,497,space,0,0,798,13758,1311452
17,18,male,Irish,2,100,ITC,loss,5,right,14,ITC_choice,735,f,0,0,798,13023,1312187
17,18,male,Irish,2,100,ITC,loss,5,right,14,ITC_wait,0,undefined,0,0,798,13021,1312189
17,18,male,Irish,2,100,ITC,loss,5,right,14,ITC_collect,238,k,0,0,798,12782,1312428
17,18,male,Irish,2,100,ITC,loss,5,right,14,ITC_outcome,0,undefined,0,0,812,11780,1313430
17,18,male,Irish,2,101,guess,neutral,5,right,2,guess_start,456,space,0,0,812,11323,1313887
17,18,male,Irish,2,101,guess,neutral,5,right,2,guess_choice,809,f,0,0,812,10512,1314698
17,18,male,Irish,2,101,guess,neutral,5,right,2,guess_outcome,0,undefined,0,0,812,8958,1316252
17,18,male,Irish,2,101,ITC,neutral,5,right,2,ITC_start,965,space,0,0,812,7993,1317217
17,18,male,Irish,2,101,ITC,neutral,5,right,2,ITC_choice,2332,j,0,0,812,5659,1319551
17,18,male,Irish,2,101,ITC,neutral,5,right,2,ITC_wait,0,undefined,0,0,812,658,1324552
17,18,male,Irish,2,101,ITC,neutral,5,right,2,ITC_collect,505,k,0,0,812,151,1325059
17,18,male,Irish,2,101,ITC,neutral,5,right,2,ITC_outcome,0,undefined,0,0,832,-2,1325212
17,18,male,Irish,3,102,guess,loss,5,left,10,guess_start,825,space,0,0,0,479174,1335101
17,18,male,Irish,3,102,guess,loss,5,left,10,guess_choice,715,f,0,0,0,478457,1335818
17,18,male,Irish,3,102,guess,loss,5,left,10,guess_outcome,0,undefined,0,0,-15,476904,1337371
17,18,male,Irish,3,102,ITC,loss,5,left,10,ITC_start,0,space,0,0,-15,476903,1337372
17,18,male,Irish,3,102,ITC,loss,5,left,10,ITC_choice,1499,f,0,0,-15,475403,1338872
17,18,male,Irish,3,102,ITC,loss,5,left,10,ITC_wait,0,undefined,0,0,-15,470401,1343874
17,18,male,Irish,3,102,ITC,loss,5,left,10,ITC_collect,1000,k,0,0,-15,469399,1344876
17,18,male,Irish,3,102,ITC,loss,5,left,10,ITC_outcome,0,undefined,0,0,5,468397,1345878
17,18,male,Irish,3,103,guess,win,10,right,4,guess_start,782,space,0,0,5,467614,1346661
17,18,male,Irish,3,103,guess,win,10,right,4,guess_choice,576,j,0,0,5,467036,1347239
17,18,male,Irish,3,103,guess,win,10,right,4,guess_outcome,0,undefined,0,0,25,465483,1348792
17,18,male,Irish,3,103,ITC,win,10,right,4,ITC_start,587,space,0,0,25,464895,1349380
17,18,male,Irish,3,103,ITC,win,10,right,4,ITC_choice,1162,f,0,0,25,463732,1350543
17,18,male,Irish,3,103,ITC,win,10,right,4,ITC_wait,0,undefined,0,0,25,463729,1350546
17,18,male,Irish,3,103,ITC,win,10,right,4,ITC_collect,478,k,0,0,25,463250,1351025
17,18,male,Irish,3,103,ITC,win,10,right,4,ITC_outcome,0,undefined,0,0,29,462248,1352027
17,18,male,Irish,3,104,guess,loss,10,left,6,guess_start,640,space,0,0,29,461606,1352669
17,18,male,Irish,3,104,guess,loss,10,left,6,guess_choice,521,j,0,0,29,461083,1353192
17,18,male,Irish,3,104,guess,loss,10,left,6,guess_outcome,0,undefined,0,0,14,459530,1354745
17,18,male,Irish,3,104,ITC,loss,10,left,6,ITC_start,685,space,0,0,14,458844,1355431
17,18,male,Irish,3,104,ITC,loss,10,left,6,ITC_choice,1186,j,0,0,14,457656,1356619
17,18,male,Irish,3,104,ITC,loss,10,left,6,ITC_wait,0,undefined,0,0,14,457653,1356622
17,18,male,Irish,3,104,ITC,loss,10,left,6,ITC_collect,211,k,0,0,14,457442,1356833
17,18,male,Irish,3,104,ITC,loss,10,left,6,ITC_outcome,0,undefined,0,0,20,456439,1357836
17,18,male,Irish,3,105,guess,win,10,right,1,guess_start,523,space,0,0,20,455914,1358361
17,18,male,Irish,3,105,guess,win,10,right,1,guess_choice,579,f,0,0,20,455334,1358941
17,18,male,Irish,3,105,guess,win,10,right,1,guess_outcome,0,undefined,0,0,40,453780,1360495
17,18,male,Irish,3,105,ITC,win,10,right,1,ITC_start,439,space,0,0,40,453340,1360935
17,18,male,Irish,3,105,ITC,win,10,right,1,ITC_choice,1233,f,0,0,40,452106,1362169
17,18,male,Irish,3,105,ITC,win,10,right,1,ITC_wait,0,undefined,0,0,40,452104,1362171
17,18,male,Irish,3,105,ITC,win,10,right,1,ITC_collect,458,k,0,0,40,451645,1362630
17,18,male,Irish,3,105,ITC,win,10,right,1,ITC_outcome,0,undefined,0,0,41,450642,1363633
17,18,male,Irish,3,106,guess,neutral,5,right,15,guess_start,373,space,0,0,41,450267,1364008
17,18,male,Irish,3,106,guess,neutral,5,right,15,guess_choice,892,f,0,0,41,449373,1364902
17,18,male,Irish,3,106,guess,neutral,5,right,15,guess_outcome,0,undefined,0,0,41,447821,1366454
17,18,male,Irish,3,106,ITC,neutral,5,right,15,ITC_start,476,space,0,0,41,447344,1366931
17,18,male,Irish,3,106,ITC,neutral,5,right,15,ITC_choice,1479,j,0,0,41,445864,1368411
17,18,male,Irish,3,106,ITC,neutral,5,right,15,ITC_wait,0,undefined,0,0,41,440862,1373413
17,18,male,Irish,3,106,ITC,neutral,5,right,15,ITC_collect,1081,k,0,0,41,439780,1374495
17,18,male,Irish,3,106,ITC,neutral,5,right,15,ITC_outcome,0,undefined,0,0,61,438777,1375498
17,18,male,Irish,3,107,guess,loss,10,right,3,guess_start,631,space,0,0,61,438145,1376130
17,18,male,Irish,3,107,guess,loss,10,right,3,guess_choice,620,f,0,0,61,437523,1376752
17,18,male,Irish,3,107,guess,loss,10,right,3,guess_outcome,0,undefined,0,0,46,435970,1378305
17,18,male,Irish,3,107,ITC,loss,10,right,3,ITC_start,616,space,0,0,46,435353,1378922
17,18,male,Irish,3,107,ITC,loss,10,right,3,ITC_choice,1297,f,0,0,46,434055,1380220
17,18,male,Irish,3,107,ITC,loss,10,right,3,ITC_wait,0,undefined,0,0,46,434052,1380223
17,18,male,Irish,3,107,ITC,loss,10,right,3,ITC_collect,317,k,0,0,46,433734,1380541
17,18,male,Irish,3,107,ITC,loss,10,right,3,ITC_outcome,0,undefined,0,0,49,432732,1381543
17,18,male,Irish,3,108,guess,win,5,right,8,guess_start,657,space,0,0,49,432073,1382202
17,18,male,Irish,3,108,guess,win,5,right,8,guess_choice,653,j,0,0,49,431418,1382857
17,18,male,Irish,3,108,guess,win,5,right,8,guess_outcome,0,undefined,0,0,69,429866,1384409
17,18,male,Irish,3,108,ITC,win,5,right,8,ITC_start,2073,space,0,0,69,427792,1386483
17,18,male,Irish,3,108,ITC,win,5,right,8,ITC_choice,1424,j,0,0,69,426367,1387908
17,18,male,Irish,3,108,ITC,win,5,right,8,ITC_wait,0,undefined,0,0,69,421364,1392911
17,18,male,Irish,3,108,ITC,win,5,right,8,ITC_collect,568,k,0,0,69,420795,1393480
17,18,male,Irish,3,108,ITC,win,5,right,8,ITC_outcome,0,undefined,0,0,89,419791,1394484
17,18,male,Irish,3,109,guess,loss,5,right,6,guess_start,717,space,0,0,89,419073,1395202
17,18,male,Irish,3,109,guess,loss,5,right,6,guess_choice,898,f,0,0,89,418173,1396102
17,18,male,Irish,3,109,guess,loss,5,right,6,guess_outcome,0,undefined,0,0,74,416620,1397655
17,18,male,Irish,3,109,ITC,loss,5,right,6,ITC_start,69,space,0,0,74,416550,1397725
17,18,male,Irish,3,109,ITC,loss,5,right,6,ITC_choice,958,f,0,0,74,415591,1398684
17,18,male,Irish,3,109,ITC,loss,5,right,6,ITC_wait,0,undefined,0,0,74,415587,1398688
17,18,male,Irish,3,109,ITC,loss,5,right,6,ITC_collect,257,k,0,0,74,415329,1398946
17,18,male,Irish,3,109,ITC,loss,5,right,6,ITC_outcome,0,undefined,0,0,80,414326,1399949
17,18,male,Irish,3,110,guess,loss,5,left,7,guess_start,714,space,0,0,80,413611,1400664
17,18,male,Irish,3,110,guess,loss,5,left,7,guess_choice,636,j,0,0,80,412973,1401302
17,18,male,Irish,3,110,guess,loss,5,left,7,guess_outcome,0,undefined,0,0,65,411420,1402855
17,18,male,Irish,3,110,ITC,loss,5,left,7,ITC_start,505,space,0,0,65,410914,1403361
17,18,male,Irish,3,110,ITC,loss,5,left,7,ITC_choice,949,f,0,0,65,409963,1404312
17,18,male,Irish,3,110,ITC,loss,5,left,7,ITC_wait,0,undefined,0,0,65,404962,1409313
17,18,male,Irish,3,110,ITC,loss,5,left,7,ITC_collect,566,k,0,0,65,404395,1409880
17,18,male,Irish,3,110,ITC,loss,5,left,7,ITC_outcome,0,undefined,0,0,85,403392,1410883
17,18,male,Irish,3,111,guess,neutral,5,left,16,guess_start,799,space,0,0,85,402591,1411684
17,18,male,Irish,3,111,guess,neutral,5,left,16,guess_choice,941,f,0,0,85,401648,1412627
17,18,male,Irish,3,111,guess,neutral,5,left,16,guess_outcome,0,undefined,0,0,85,400096,1414179
17,18,male,Irish,3,111,ITC,neutral,5,left,16,ITC_start,1944,space,0,0,85,398151,1416124
17,18,male,Irish,3,111,ITC,neutral,5,left,16,ITC_choice,917,j,0,0,85,397233,1417042
17,18,male,Irish,3,111,ITC,neutral,5,left,16,ITC_wait,0,undefined,0,0,85,397230,1417045
17,18,male,Irish,3,111,ITC,neutral,5,left,16,ITC_collect,428,k,0,0,85,396802,1417473
17,18,male,Irish,3,111,ITC,neutral,5,left,16,ITC_outcome,0,undefined,0,0,101,395800,1418475
17,18,male,Irish,3,112,guess,win,10,right,5,guess_start,1377,space,0,0,101,394421,1419854
17,18,male,Irish,3,112,guess,win,10,right,5,guess_choice,789,j,0,0,101,393631,1420644
17,18,male,Irish,3,112,guess,win,10,right,5,guess_outcome,0,undefined,0,0,121,392078,1422197
17,18,male,Irish,3,112,ITC,win,10,right,5,ITC_start,1148,space,0,0,121,390928,1423347
17,18,male,Irish,3,112,ITC,win,10,right,5,ITC_choice,949,f,0,0,121,389979,1424296
17,18,male,Irish,3,112,ITC,win,10,right,5,ITC_wait,0,undefined,0,0,121,389977,1424298
17,18,male,Irish,3,112,ITC,win,10,right,5,ITC_collect,235,k,0,0,121,389740,1424535
17,18,male,Irish,3,112,ITC,win,10,right,5,ITC_outcome,0,undefined,0,0,126,388738,1425537
17,18,male,Irish,3,113,guess,neutral,5,left,3,guess_start,712,space,0,0,126,388025,1426250
17,18,male,Irish,3,113,guess,neutral,5,left,3,guess_choice,1171,f,0,0,126,386852,1427423
17,18,male,Irish,3,113,guess,neutral,5,left,3,guess_outcome,0,undefined,0,0,126,385299,1428976
17,18,male,Irish,3,113,ITC,neutral,5,left,3,ITC_start,618,space,0,0,126,384680,1429595
17,18,male,Irish,3,113,ITC,neutral,5,left,3,ITC_choice,1230,f,0,0,126,383449,1430826
17,18,male,Irish,3,113,ITC,neutral,5,left,3,ITC_wait,0,undefined,0,0,126,378447,1435828
17,18,male,Irish,3,113,ITC,neutral,5,left,3,ITC_collect,914,k,0,0,126,377532,1436743
17,18,male,Irish,3,113,ITC,neutral,5,left,3,ITC_outcome,0,undefined,0,0,146,376529,1437746
17,18,male,Irish,3,114,guess,loss,10,left,2,guess_start,609,space,0,0,146,375919,1438356
17,18,male,Irish,3,114,guess,loss,10,left,2,guess_choice,605,j,0,0,146,375312,1438963
17,18,male,Irish,3,114,guess,loss,10,left,2,guess_outcome,0,undefined,0,0,131,373760,1440515
17,18,male,Irish,3,114,ITC,loss,10,left,2,ITC_start,837,space,0,0,131,372921,1441354
17,18,male,Irish,3,114,ITC,loss,10,left,2,ITC_choice,1240,f,0,0,131,371680,1442595
17,18,male,Irish,3,114,ITC,loss,10,left,2,ITC_wait,0,undefined,0,0,131,361678,1452597
17,18,male,Irish,3,114,ITC,loss,10,left,2,ITC_collect,716,k,0,0,131,360961,1453314
17,18,male,Irish,3,114,ITC,loss,10,left,2,ITC_outcome,0,undefined,0,0,151,359959,1454316
17,18,male,Irish,3,115,guess,win,5,left,1,guess_start,639,space,0,0,151,359317,1454958
17,18,male,Irish,3,115,guess,win,5,left,1,guess_choice,617,j,0,0,151,358699,1455576
17,18,male,Irish,3,115,guess,win,5,left,1,guess_outcome,0,undefined,0,0,171,357145,1457130
17,18,male,Irish,3,115,ITC,win,5,left,1,ITC_start,521,space,0,0,171,356623,1457652
17,18,male,Irish,3,115,ITC,win,5,left,1,ITC_choice,1014,f,0,0,171,355608,1458667
17,18,male,Irish,3,115,ITC,win,5,left,1,ITC_wait,0,undefined,0,0,171,350606,1463669
17,18,male,Irish,3,115,ITC,win,5,left,1,ITC_collect,815,k,0,0,171,349790,1464485
17,18,male,Irish,3,115,ITC,win,5,left,1,ITC_outcome,0,undefined,0,0,191,348787,1465488
17,18,male,Irish,3,116,guess,loss,5,right,2,guess_start,507,space,0,0,191,348279,1465996
17,18,male,Irish,3,116,guess,loss,5,right,2,guess_choice,757,j,0,0,191,347520,1466755
17,18,male,Irish,3,116,guess,loss,5,right,2,guess_outcome,0,undefined,0,0,176,345968,1468307
17,18,male,Irish,3,116,ITC,loss,5,right,2,ITC_start,1365,space,0,0,176,344602,1469673
17,18,male,Irish,3,116,ITC,loss,5,right,2,ITC_choice,820,f,0,0,176,343781,1470494
17,18,male,Irish,3,116,ITC,loss,5,right,2,ITC_wait,0,undefined,0,0,176,343777,1470498
17,18,male,Irish,3,116,ITC,loss,5,right,2,ITC_collect,270,k,0,0,176,343506,1470769
17,18,male,Irish,3,116,ITC,loss,5,right,2,ITC_outcome,0,undefined,0,0,178,342504,1471771
17,18,male,Irish,3,117,guess,neutral,5,right,14,guess_start,535,space,0,0,178,341967,1472308
17,18,male,Irish,3,117,guess,neutral,5,right,14,guess_choice,1831,f,0,0,178,340134,1474141
17,18,male,Irish,3,117,guess,neutral,5,right,14,guess_outcome,0,undefined,0,0,178,338582,1475693
17,18,male,Irish,3,117,ITC,neutral,5,right,14,ITC_start,1236,space,0,0,178,337345,1476930
17,18,male,Irish,3,117,ITC,neutral,5,right,14,ITC_choice,806,f,0,0,178,336538,1477737
17,18,male,Irish,3,117,ITC,neutral,5,right,14,ITC_wait,0,undefined,0,0,178,336534,1477741
17,18,male,Irish,3,117,ITC,neutral,5,right,14,ITC_collect,713,k,0,0,178,335820,1478455
17,18,male,Irish,3,117,ITC,neutral,5,right,14,ITC_outcome,0,undefined,0,0,192,334818,1479457
17,18,male,Irish,3,118,guess,neutral,5,right,11,guess_start,650,space,0,0,192,334167,1480108
17,18,male,Irish,3,118,guess,neutral,5,right,11,guess_choice,556,j,0,0,192,333609,1480666
17,18,male,Irish,3,118,guess,neutral,5,right,11,guess_outcome,0,undefined,0,0,192,332056,1482219
17,18,male,Irish,3,118,ITC,neutral,5,right,11,ITC_start,687,space,0,0,192,331368,1482907
17,18,male,Irish,3,118,ITC,neutral,5,right,11,ITC_choice,769,f,0,0,192,330598,1483677
17,18,male,Irish,3,118,ITC,neutral,5,right,11,ITC_wait,0,undefined,0,0,192,330594,1483681
17,18,male,Irish,3,118,ITC,neutral,5,right,11,ITC_collect,265,k,0,0,192,330328,1483947
17,18,male,Irish,3,118,ITC,neutral,5,right,11,ITC_outcome,0,undefined,0,0,203,329325,1484950
17,18,male,Irish,3,119,guess,win,5,left,7,guess_start,586,space,0,0,203,328737,1485538
17,18,male,Irish,3,119,guess,win,5,left,7,guess_choice,815,j,0,0,203,327920,1486355
17,18,male,Irish,3,119,guess,win,5,left,7,guess_outcome,0,undefined,0,0,223,326368,1487907
17,18,male,Irish,3,119,ITC,win,5,left,7,ITC_start,688,space,0,0,223,325678,1488597
17,18,male,Irish,3,119,ITC,win,5,left,7,ITC_choice,1650,j,0,0,223,324027,1490248
17,18,male,Irish,3,119,ITC,win,5,left,7,ITC_wait,0,undefined,0,0,223,324023,1490252
17,18,male,Irish,3,119,ITC,win,5,left,7,ITC_collect,212,k,0,0,223,323810,1490465
17,18,male,Irish,3,119,ITC,win,5,left,7,ITC_outcome,0,undefined,0,0,230,322808,1491467
17,18,male,Irish,3,120,guess,neutral,5,left,6,guess_start,678,space,0,0,230,322129,1492146
17,18,male,Irish,3,120,guess,neutral,5,left,6,guess_choice,549,j,0,0,230,321578,1492697
17,18,male,Irish,3,120,guess,neutral,5,left,6,guess_outcome,0,undefined,0,0,230,320025,1494250
17,18,male,Irish,3,120,ITC,neutral,5,left,6,ITC_start,375,space,0,0,230,319649,1494626
17,18,male,Irish,3,120,ITC,neutral,5,left,6,ITC_choice,911,f,0,0,230,318737,1495538
17,18,male,Irish,3,120,ITC,neutral,5,left,6,ITC_wait,0,undefined,0,0,230,313734,1500541
17,18,male,Irish,3,120,ITC,neutral,5,left,6,ITC_collect,85,k,0,0,230,313648,1500627
17,18,male,Irish,3,120,ITC,neutral,5,left,6,ITC_outcome,0,undefined,0,0,250,312646,1501629
17,18,male,Irish,3,121,guess,win,5,right,13,guess_start,496,space,0,0,250,312149,1502126
17,18,male,Irish,3,121,guess,win,5,right,13,guess_choice,557,j,0,0,250,311590,1502685
17,18,male,Irish,3,121,guess,win,5,right,13,guess_outcome,0,undefined,0,0,270,310036,1504239
17,18,male,Irish,3,121,ITC,win,5,right,13,ITC_start,787,space,0,0,270,309248,1505027
17,18,male,Irish,3,121,ITC,win,5,right,13,ITC_choice,803,f,0,0,270,308444,1505831
17,18,male,Irish,3,121,ITC,win,5,right,13,ITC_wait,0,undefined,0,0,270,308440,1505835
17,18,male,Irish,3,121,ITC,win,5,right,13,ITC_collect,223,k,0,0,270,308216,1506059
17,18,male,Irish,3,121,ITC,win,5,right,13,ITC_outcome,0,undefined,0,0,283,307214,1507061
17,18,male,Irish,3,122,guess,neutral,10,left,2,guess_start,475,space,0,0,283,306738,1507537
17,18,male,Irish,3,122,guess,neutral,10,left,2,guess_choice,877,j,0,0,283,305859,1508416
17,18,male,Irish,3,122,guess,neutral,10,left,2,guess_outcome,0,undefined,0,0,283,304306,1509969
17,18,male,Irish,3,122,ITC,neutral,10,left,2,ITC_start,887,space,0,0,283,303418,1510857
17,18,male,Irish,3,122,ITC,neutral,10,left,2,ITC_choice,2110,j,0,0,283,301307,1512968
17,18,male,Irish,3,122,ITC,neutral,10,left,2,ITC_wait,0,undefined,0,0,283,301303,1512972
17,18,male,Irish,3,122,ITC,neutral,10,left,2,ITC_collect,205,k,0,0,283,301097,1513178
17,18,male,Irish,3,122,ITC,neutral,10,left,2,ITC_outcome,0,undefined,0,0,285,300094,1514181
17,18,male,Irish,3,123,guess,loss,10,right,7,guess_start,665,space,0,0,285,299428,1514847
17,18,male,Irish,3,123,guess,loss,10,right,7,guess_choice,591,j,0,0,285,298834,1515441
17,18,male,Irish,3,123,guess,loss,10,right,7,guess_outcome,0,undefined,0,0,270,297280,1516995
17,18,male,Irish,3,123,ITC,loss,10,right,7,ITC_start,457,space,0,0,270,296822,1517453
17,18,male,Irish,3,123,ITC,loss,10,right,7,ITC_choice,1625,f,0,0,270,295196,1519079
17,18,male,Irish,3,123,ITC,loss,10,right,7,ITC_wait,0,undefined,0,0,270,295191,1519084
17,18,male,Irish,3,123,ITC,loss,10,right,7,ITC_collect,328,k,0,0,270,294863,1519412
17,18,male,Irish,3,123,ITC,loss,10,right,7,ITC_outcome,0,undefined,0,0,277,293861,1520414
17,18,male,Irish,3,124,guess,loss,5,right,5,guess_start,595,space,0,0,277,293265,1521010
17,18,male,Irish,3,124,guess,loss,5,right,5,guess_choice,817,f,0,0,277,292446,1521829
17,18,male,Irish,3,124,guess,loss,5,right,5,guess_outcome,0,undefined,0,0,262,290894,1523381
17,18,male,Irish,3,124,ITC,loss,5,right,5,ITC_start,376,space,0,0,262,290517,1523758
17,18,male,Irish,3,124,ITC,loss,5,right,5,ITC_choice,860,f,0,0,262,289656,1524619
17,18,male,Irish,3,124,ITC,loss,5,right,5,ITC_wait,0,undefined,0,0,262,289654,1524621
17,18,male,Irish,3,124,ITC,loss,5,right,5,ITC_collect,197,k,0,0,262,289456,1524819
17,18,male,Irish,3,124,ITC,loss,5,right,5,ITC_outcome,0,undefined,0,0,267,288454,1525821
17,18,male,Irish,3,125,guess,win,5,left,10,guess_start,459,space,0,0,267,287994,1526281
17,18,male,Irish,3,125,guess,win,5,left,10,guess_choice,544,j,0,0,267,287448,1526827
17,18,male,Irish,3,125,guess,win,5,left,10,guess_outcome,0,undefined,0,0,287,285896,1528379
17,18,male,Irish,3,125,ITC,win,5,left,10,ITC_start,743,space,0,0,287,285152,1529123
17,18,male,Irish,3,125,ITC,win,5,left,10,ITC_choice,724,j,0,0,287,284427,1529848
17,18,male,Irish,3,125,ITC,win,5,left,10,ITC_wait,0,undefined,0,0,287,284425,1529850
17,18,male,Irish,3,125,ITC,win,5,left,10,ITC_collect,931,k,0,0,287,283494,1530781
17,18,male,Irish,3,125,ITC,win,5,left,10,ITC_outcome,0,undefined,0,0,297,282491,1531784
17,18,male,Irish,3,126,guess,loss,5,right,9,guess_start,585,space,0,0,297,281905,1532370
17,18,male,Irish,3,126,guess,loss,5,right,9,guess_choice,557,j,0,0,297,281346,1532929
17,18,male,Irish,3,126,guess,loss,5,right,9,guess_outcome,0,undefined,0,0,282,279793,1534482
17,18,male,Irish,3,126,ITC,loss,5,right,9,ITC_start,587,space,0,0,282,279205,1535070
17,18,male,Irish,3,126,ITC,loss,5,right,9,ITC_choice,887,f,0,0,282,278317,1535958
17,18,male,Irish,3,126,ITC,loss,5,right,9,ITC_wait,0,undefined,0,0,282,278314,1535961
17,18,male,Irish,3,126,ITC,loss,5,right,9,ITC_collect,1899,k,0,0,282,276414,1537861
17,18,male,Irish,3,126,ITC,loss,5,right,9,ITC_outcome,0,undefined,0,0,291,275412,1538863
17,18,male,Irish,3,127,guess,loss,10,right,4,guess_start,484,space,0,0,291,274927,1539348
17,18,male,Irish,3,127,guess,loss,10,right,4,guess_choice,939,f,0,0,291,273986,1540289
17,18,male,Irish,3,127,guess,loss,10,right,4,guess_outcome,0,undefined,0,0,276,272433,1541842
17,18,male,Irish,3,127,ITC,loss,10,right,4,ITC_start,668,space,0,0,276,271764,1542511
17,18,male,Irish,3,127,ITC,loss,10,right,4,ITC_choice,1849,f,0,0,276,269914,1544361
17,18,male,Irish,3,127,ITC,loss,10,right,4,ITC_wait,0,undefined,0,0,276,269910,1544365
17,18,male,Irish,3,127,ITC,loss,10,right,4,ITC_collect,214,k,0,0,276,269695,1544580
17,18,male,Irish,3,127,ITC,loss,10,right,4,ITC_outcome,0,undefined,0,0,280,268692,1545583
17,18,male,Irish,3,128,guess,win,5,right,5,guess_start,414,space,0,0,280,268277,1545998
17,18,male,Irish,3,128,guess,win,5,right,5,guess_choice,578,j,0,0,280,267697,1546578
17,18,male,Irish,3,128,guess,win,5,right,5,guess_outcome,0,undefined,0,0,300,266144,1548131
17,18,male,Irish,3,128,ITC,win,5,right,5,ITC_start,896,space,0,0,300,265247,1549028
17,18,male,Irish,3,128,ITC,win,5,right,5,ITC_choice,1057,f,0,0,300,264189,1550086
17,18,male,Irish,3,128,ITC,win,5,right,5,ITC_wait,0,undefined,0,0,300,264186,1550089
17,18,male,Irish,3,128,ITC,win,5,right,5,ITC_collect,272,k,0,0,300,263913,1550362
17,18,male,Irish,3,128,ITC,win,5,right,5,ITC_outcome,0,undefined,0,0,305,262912,1551363
17,18,male,Irish,3,129,guess,loss,5,left,16,guess_start,496,space,0,0,305,262414,1551861
17,18,male,Irish,3,129,guess,loss,5,left,16,guess_choice,656,j,0,0,305,261756,1552519
17,18,male,Irish,3,129,guess,loss,5,left,16,guess_outcome,0,undefined,0,0,290,260203,1554072
17,18,male,Irish,3,129,ITC,loss,5,left,16,ITC_start,495,space,0,0,290,259708,1554567
17,18,male,Irish,3,129,ITC,loss,5,left,16,ITC_choice,823,j,0,0,290,258884,1555391
17,18,male,Irish,3,129,ITC,loss,5,left,16,ITC_wait,0,undefined,0,0,290,258881,1555394
17,18,male,Irish,3,129,ITC,loss,5,left,16,ITC_collect,223,k,0,0,290,258658,1555617
17,18,male,Irish,3,129,ITC,loss,5,left,16,ITC_outcome,0,undefined,0,0,306,257656,1556619
17,18,male,Irish,3,130,guess,loss,10,left,1,guess_start,487,space,0,0,306,257167,1557108
17,18,male,Irish,3,130,guess,loss,10,left,1,guess_choice,1349,j,0,0,306,255816,1558459
17,18,male,Irish,3,130,guess,loss,10,left,1,guess_outcome,0,undefined,0,0,291,254264,1560011
17,18,male,Irish,3,130,ITC,loss,10,left,1,ITC_start,147,space,0,0,291,254116,1560159
17,18,male,Irish,3,130,ITC,loss,10,left,1,ITC_wait,0,undefined,0,0,291,252463,1561812
17,18,male,Irish,3,130,ITC,loss,10,left,1,ITC_choice,1650,j,0,0,291,252465,1561810
17,18,male,Irish,3,130,ITC,loss,10,left,1,ITC_collect,229,k,0,0,291,252233,1562042
17,18,male,Irish,3,130,ITC,loss,10,left,1,ITC_outcome,0,undefined,0,0,292,251231,1563044
17,18,male,Irish,3,131,guess,neutral,10,right,6,guess_start,443,space,0,0,292,250787,1563488
17,18,male,Irish,3,131,guess,neutral,10,right,6,guess_choice,521,f,0,0,292,250264,1564011
17,18,male,Irish,3,131,guess,neutral,10,right,6,guess_outcome,0,undefined,0,0,292,248711,1565564
17,18,male,Irish,3,131,ITC,neutral,10,right,6,ITC_start,335,space,0,0,292,248375,1565900
17,18,male,Irish,3,131,ITC,neutral,10,right,6,ITC_choice,743,f,0,0,292,247631,1566644
17,18,male,Irish,3,131,ITC,neutral,10,right,6,ITC_wait,0,undefined,0,0,292,247627,1566648
17,18,male,Irish,3,131,ITC,neutral,10,right,6,ITC_collect,231,k,0,0,292,247395,1566880
17,18,male,Irish,3,131,ITC,neutral,10,right,6,ITC_outcome,0,undefined,0,0,298,246393,1567882
17,18,male,Irish,3,132,guess,neutral,5,right,12,guess_start,517,space,0,0,298,245875,1568400
17,18,male,Irish,3,132,guess,neutral,5,right,12,guess_choice,738,f,0,0,298,245134,1569141
17,18,male,Irish,3,132,guess,neutral,5,right,12,guess_outcome,0,undefined,0,0,298,243582,1570693
17,18,male,Irish,3,132,ITC,neutral,5,right,12,ITC_start,1041,space,0,0,298,242540,1571735
17,18,male,Irish,3,132,ITC,neutral,5,right,12,ITC_choice,774,f,0,0,298,241765,1572510
17,18,male,Irish,3,132,ITC,neutral,5,right,12,ITC_wait,0,undefined,0,0,298,241763,1572512
17,18,male,Irish,3,132,ITC,neutral,5,right,12,ITC_collect,215,k,0,0,298,241547,1572728
17,18,male,Irish,3,132,ITC,neutral,5,right,12,ITC_outcome,0,undefined,0,0,310,240544,1573731
17,18,male,Irish,3,133,guess,neutral,5,left,1,guess_start,406,space,0,0,310,240136,1574139
17,18,male,Irish,3,133,guess,neutral,5,left,1,guess_choice,651,f,0,0,310,239483,1574792
17,18,male,Irish,3,133,guess,neutral,5,left,1,guess_outcome,0,undefined,0,0,310,237929,1576346
17,18,male,Irish,3,133,ITC,neutral,5,left,1,ITC_start,875,space,0,0,310,237054,1577221
17,18,male,Irish,3,133,ITC,neutral,5,left,1,ITC_choice,1099,j,0,0,310,235954,1578321
17,18,male,Irish,3,133,ITC,neutral,5,left,1,ITC_wait,0,undefined,0,0,310,235951,1578324
17,18,male,Irish,3,133,ITC,neutral,5,left,1,ITC_collect,2275,k,0,0,310,233674,1580601
17,18,male,Irish,3,133,ITC,neutral,5,left,1,ITC_outcome,0,undefined,0,0,311,232672,1581603
17,18,male,Irish,3,134,guess,neutral,5,left,10,guess_start,867,space,0,0,311,231804,1582471
17,18,male,Irish,3,134,guess,neutral,5,left,10,guess_choice,711,f,0,0,311,231091,1583184
17,18,male,Irish,3,134,guess,neutral,5,left,10,guess_outcome,0,undefined,0,0,311,229538,1584737
17,18,male,Irish,3,134,ITC,neutral,5,left,10,ITC_start,575,space,0,0,311,228962,1585313
17,18,male,Irish,3,134,ITC,neutral,5,left,10,ITC_choice,822,f,0,0,311,228139,1586136
17,18,male,Irish,3,134,ITC,neutral,5,left,10,ITC_wait,0,undefined,0,0,311,223137,1591138
17,18,male,Irish,3,134,ITC,neutral,5,left,10,ITC_collect,904,k,0,0,311,222231,1592044
17,18,male,Irish,3,134,ITC,neutral,5,left,10,ITC_outcome,0,undefined,0,0,331,221228,1593047
17,18,male,Irish,3,135,guess,loss,10,left,5,guess_start,588,space,0,0,331,220638,1593637
17,18,male,Irish,3,135,guess,loss,10,left,5,guess_choice,593,j,0,0,331,220043,1594232
17,18,male,Irish,3,135,guess,loss,10,left,5,guess_outcome,0,undefined,0,0,316,218489,1595786
17,18,male,Irish,3,135,ITC,loss,10,left,5,ITC_start,596,space,0,0,316,217892,1596383
17,18,male,Irish,3,135,ITC,loss,10,left,5,ITC_choice,1018,j,0,0,316,216872,1597403
17,18,male,Irish,3,135,ITC,loss,10,left,5,ITC_wait,0,undefined,0,0,316,216870,1597405
17,18,male,Irish,3,135,ITC,loss,10,left,5,ITC_collect,227,k,0,0,316,216642,1597633
17,18,male,Irish,3,135,ITC,loss,10,left,5,ITC_outcome,0,undefined,0,0,321,215639,1598636
17,18,male,Irish,3,136,guess,loss,10,left,8,guess_start,424,space,0,0,321,215214,1599061
17,18,male,Irish,3,136,guess,loss,10,left,8,guess_choice,663,f,0,0,321,214549,1599726
17,18,male,Irish,3,136,guess,loss,10,left,8,guess_outcome,0,undefined,0,0,306,212997,1601278
17,18,male,Irish,3,136,ITC,loss,10,left,8,ITC_start,492,space,0,0,306,212504,1601771
17,18,male,Irish,3,136,ITC,loss,10,left,8,ITC_wait,0,undefined,0,0,306,211669,1602606
17,18,male,Irish,3,136,ITC,loss,10,left,8,ITC_choice,831,j,0,0,306,211671,1602604
17,18,male,Irish,3,136,ITC,loss,10,left,8,ITC_collect,221,k,0,0,306,211447,1602828
17,18,male,Irish,3,136,ITC,loss,10,left,8,ITC_outcome,0,undefined,0,0,314,210444,1603831
17,18,male,Irish,3,137,guess,win,5,left,15,guess_start,570,space,0,0,314,209872,1604403
17,18,male,Irish,3,137,guess,win,5,left,15,guess_choice,557,j,0,0,314,209314,1604961
17,18,male,Irish,3,137,guess,win,5,left,15,guess_outcome,0,undefined,0,0,334,207760,1606515
17,18,male,Irish,3,137,ITC,win,5,left,15,ITC_start,596,space,0,0,334,207163,1607112
17,18,male,Irish,3,137,ITC,win,5,left,15,ITC_choice,652,j,0,0,334,206510,1607765
17,18,male,Irish,3,137,ITC,win,5,left,15,ITC_wait,0,undefined,0,0,334,206505,1607770
17,18,male,Irish,3,137,ITC,win,5,left,15,ITC_collect,250,k,0,0,334,206254,1608021
17,18,male,Irish,3,137,ITC,win,5,left,15,ITC_outcome,0,undefined,0,0,349,205252,1609023
17,18,male,Irish,3,138,guess,win,5,left,4,guess_start,407,space,0,0,349,204844,1609431
17,18,male,Irish,3,138,guess,win,5,left,4,guess_choice,1111,f,0,0,349,203732,1610543
17,18,male,Irish,3,138,guess,win,5,left,4,guess_outcome,0,undefined,0,0,369,202178,1612097
17,18,male,Irish,3,138,ITC,win,5,left,4,ITC_start,677,space,0,0,369,201501,1612774
17,18,male,Irish,3,138,ITC,win,5,left,4,ITC_choice,1665,f,0,0,369,199834,1614441
17,18,male,Irish,3,138,ITC,win,5,left,4,ITC_wait,0,undefined,0,0,369,194832,1619443
17,18,male,Irish,3,138,ITC,win,5,left,4,ITC_collect,851,k,0,0,369,193981,1620294
17,18,male,Irish,3,138,ITC,win,5,left,4,ITC_outcome,0,undefined,0,0,389,192978,1621297
17,18,male,Irish,3,139,guess,win,10,right,2,guess_start,544,space,0,0,389,192432,1621843
17,18,male,Irish,3,139,guess,win,10,right,2,guess_choice,476,j,0,0,389,191954,1622321
17,18,male,Irish,3,139,guess,win,10,right,2,guess_outcome,0,undefined,0,0,409,190402,1623873
17,18,male,Irish,3,139,ITC,win,10,right,2,ITC_start,600,space,0,0,409,189801,1624474
17,18,male,Irish,3,139,ITC,win,10,right,2,ITC_choice,1790,j,0,0,409,188009,1626266
17,18,male,Irish,3,139,ITC,win,10,right,2,ITC_wait,0,undefined,0,0,409,178008,1636267
17,18,male,Irish,3,139,ITC,win,10,right,2,ITC_collect,686,k,0,0,409,177320,1636955
17,18,male,Irish,3,139,ITC,win,10,right,2,ITC_outcome,0,undefined,0,0,429,176317,1637958
17,18,male,Irish,3,140,guess,loss,5,left,8,guess_start,804,space,0,0,429,175512,1638763
17,18,male,Irish,3,140,guess,loss,5,left,8,guess_choice,531,f,0,0,429,174979,1639296
17,18,male,Irish,3,140,guess,loss,5,left,8,guess_outcome,0,undefined,0,0,414,173426,1640849
17,18,male,Irish,3,140,ITC,loss,5,left,8,ITC_start,3373,space,0,0,414,170052,1644223
17,18,male,Irish,3,140,ITC,loss,5,left,8,ITC_choice,901,f,0,0,414,169150,1645125
17,18,male,Irish,3,140,ITC,loss,5,left,8,ITC_wait,0,undefined,0,0,414,164147,1650128
17,18,male,Irish,3,140,ITC,loss,5,left,8,ITC_collect,1162,k,0,0,414,162984,1651291
17,18,male,Irish,3,140,ITC,loss,5,left,8,ITC_outcome,0,undefined,0,0,434,161981,1652294
17,18,male,Irish,3,141,guess,win,5,right,14,guess_start,520,space,0,0,434,161460,1652815
17,18,male,Irish,3,141,guess,win,5,right,14,guess_choice,536,j,0,0,434,160922,1653353
17,18,male,Irish,3,141,guess,win,5,right,14,guess_outcome,0,undefined,0,0,454,159369,1654906
17,18,male,Irish,3,141,ITC,win,5,right,14,ITC_start,797,space,0,0,454,158572,1655703
17,18,male,Irish,3,141,ITC,win,5,right,14,ITC_choice,1371,j,0,0,454,157200,1657075
17,18,male,Irish,3,141,ITC,win,5,right,14,ITC_wait,0,undefined,0,0,454,152198,1662077
17,18,male,Irish,3,141,ITC,win,5,right,14,ITC_collect,777,k,0,0,454,151420,1662855
17,18,male,Irish,3,141,ITC,win,5,right,14,ITC_outcome,0,undefined,0,0,474,150417,1663858
17,18,male,Irish,3,142,guess,neutral,10,right,7,guess_start,778,space,0,0,474,149638,1664637
17,18,male,Irish,3,142,guess,neutral,10,right,7,guess_choice,815,f,0,0,474,148821,1665454
17,18,male,Irish,3,142,guess,neutral,10,right,7,guess_outcome,0,undefined,0,0,474,147268,1667007
17,18,male,Irish,3,142,ITC,neutral,10,right,7,ITC_start,626,space,0,0,474,146641,1667634
17,18,male,Irish,3,142,ITC,neutral,10,right,7,ITC_choice,820,f,0,0,474,145820,1668455
17,18,male,Irish,3,142,ITC,neutral,10,right,7,ITC_wait,0,undefined,0,0,474,145815,1668460
17,18,male,Irish,3,142,ITC,neutral,10,right,7,ITC_collect,217,k,0,0,474,145598,1668677
17,18,male,Irish,3,142,ITC,neutral,10,right,7,ITC_outcome,0,undefined,0,0,481,144595,1669680
17,18,male,Irish,3,143,guess,win,5,left,9,guess_start,611,space,0,0,481,143983,1670292
17,18,male,Irish,3,143,guess,win,5,left,9,guess_choice,541,j,0,0,481,143440,1670835
17,18,male,Irish,3,143,guess,win,5,left,9,guess_outcome,0,undefined,0,0,501,141886,1672389
17,18,male,Irish,3,143,ITC,win,5,left,9,ITC_start,506,space,0,0,501,141379,1672896
17,18,male,Irish,3,143,ITC,win,5,left,9,ITC_choice,831,j,0,0,501,140547,1673728
17,18,male,Irish,3,143,ITC,win,5,left,9,ITC_wait,0,undefined,0,0,501,140544,1673731
17,18,male,Irish,3,143,ITC,win,5,left,9,ITC_collect,184,k,0,0,501,140360,1673915
17,18,male,Irish,3,143,ITC,win,5,left,9,ITC_outcome,0,undefined,0,0,510,139357,1674918
17,18,male,Irish,3,144,guess,win,5,right,3,guess_start,517,space,0,0,510,138839,1675436
17,18,male,Irish,3,144,guess,win,5,right,3,guess_choice,1047,f,0,0,510,137790,1676485
17,18,male,Irish,3,144,guess,win,5,right,3,guess_outcome,0,undefined,0,0,530,136238,1678037
17,18,male,Irish,3,144,ITC,win,5,right,3,ITC_start,447,space,0,0,530,135790,1678485
17,18,male,Irish,3,144,ITC,win,5,right,3,ITC_choice,938,f,0,0,530,134850,1679425
17,18,male,Irish,3,144,ITC,win,5,right,3,ITC_wait,0,undefined,0,0,530,134847,1679428
17,18,male,Irish,3,144,ITC,win,5,right,3,ITC_collect,209,k,0,0,530,134638,1679637
17,18,male,Irish,3,144,ITC,win,5,right,3,ITC_outcome,0,undefined,0,0,533,133635,1680640
17,18,male,Irish,3,145,guess,win,10,left,4,guess_start,664,space,0,0,533,132970,1681305
17,18,male,Irish,3,145,guess,win,10,left,4,guess_choice,504,j,0,0,533,132464,1681811
17,18,male,Irish,3,145,guess,win,10,left,4,guess_outcome,0,undefined,0,0,553,130912,1683363
17,18,male,Irish,3,145,ITC,win,10,left,4,ITC_start,652,space,0,0,553,130259,1684016
17,18,male,Irish,3,145,ITC,win,10,left,4,ITC_choice,724,j,0,0,553,129534,1684741
17,18,male,Irish,3,145,ITC,win,10,left,4,ITC_wait,0,undefined,0,0,553,129530,1684745
17,18,male,Irish,3,145,ITC,win,10,left,4,ITC_collect,199,k,0,0,553,129330,1684945
17,18,male,Irish,3,145,ITC,win,10,left,4,ITC_outcome,0,undefined,0,0,557,128327,1685948
17,18,male,Irish,3,146,guess,win,10,left,2,guess_start,645,space,0,0,557,127680,1686595
17,18,male,Irish,3,146,guess,win,10,left,2,guess_choice,501,f,0,0,557,127178,1687097
