subjectID,age,gender,nationality,block_number,trial_number,trial_type,guess_outcome,delay_time,delay_pos,immediate_amount,stage,respRT,respKey,blur_count,focus_count,total_points,remaining_duration,time_elapsed
33,19,female,Belg,1,1,guess,loss,10,left,5,guess_start,19725,space,0,0,0,460275,291342
33,19,female,Belg,1,1,guess,loss,10,left,5,guess_choice,4159,f,0,0,0,456108,295509
33,19,female,Belg,1,1,guess,loss,10,left,5,guess_outcome,0,undefined,0,0,-15,454547,297070
33,19,female,Belg,1,1,ITC,loss,10,left,5,ITC_start,7942,space,0,0,-15,446601,305016
33,19,female,Belg,1,1,ITC,loss,10,left,5,ITC_choice,2866,f,0,0,-15,443731,307886
33,19,female,Belg,1,1,ITC,loss,10,left,5,ITC_wait,0,undefined,0,0,-15,433721,317896
33,19,female,Belg,1,1,ITC,loss,10,left,5,ITC_collect,6226,k,0,0,-15,427491,324126
33,19,female,Belg,1,1,ITC,loss,10,left,5,ITC_outcome,0,undefined,0,0,5,426482,325135
33,19,female,Belg,1,2,guess,loss,5,right,9,guess_start,3470,space,0,0,5,423007,328610
33,19,female,Belg,1,2,guess,loss,5,right,9,guess_choice,6346,f,0,0,5,416655,334962
33,19,female,Belg,1,2,guess,loss,5,right,9,guess_outcome,0,undefined,0,0,-10,415095,336522
33,19,female,Belg,1,2,ITC,loss,5,right,9,ITC_start,1786,space,0,0,-10,413305,338312
33,19,female,Belg,1,2,ITC,loss,5,right,9,ITC_choice,2830,j,0,0,-10,410472,341145
33,19,female,Belg,1,2,ITC,loss,5,right,9,ITC_wait,0,undefined,0,0,-10,405468,346149
33,19,female,Belg,1,2,ITC,loss,5,right,9,ITC_collect,10559,k,0,0,-10,394906,356711
33,19,female,Belg,1,2,ITC,loss,5,right,9,ITC_outcome,0,undefined,0,0,10,393897,357720
33,19,female,Belg,1,3,guess,loss,5,right,5,guess_start,966,space,0,0,10,392927,358690
33,19,female,Belg,1,3,guess,loss,5,right,5,guess_choice,1606,f,0,0,10,391315,360302
33,19,female,Belg,1,3,guess,loss,5,right,5,guess_outcome,0,undefined,0,0,-5,389754,361863
33,19,female,Belg,1,3,ITC,loss,5,right,5,ITC_start,1986,space,0,0,-5,387765,363852
33,19,female,Belg,1,3,ITC,loss,5,right,5,ITC_choice,2910,j,0,0,-5,384852,366765
33,19,female,Belg,1,3,ITC,loss,5,right,5,ITC_wait,0,undefined,0,0,-5,379849,371768
33,19,female,Belg,1,3,ITC,loss,5,right,5,ITC_collect,1230,k,0,0,-5,378615,373002
33,19,female,Belg,1,3,ITC,loss,5,right,5,ITC_outcome,0,undefined,0,0,15,377608,374009
33,19,female,Belg,1,4,guess,loss,10,left,7,guess_start,3400,space,0,0,15,374205,377412
33,19,female,Belg,1,4,guess,loss,10,left,7,guess_choice,3169,f,0,0,15,371029,380588
33,19,female,Belg,1,4,guess,loss,10,left,7,guess_outcome,0,undefined,0,0,0,369473,382144
33,19,female,Belg,1,4,ITC,loss,10,left,7,ITC_start,1752,space,0,0,0,367718,383899
33,19,female,Belg,1,4,ITC,loss,10,left,7,ITC_choice,1485,f,0,0,0,366230,385387
33,19,female,Belg,1,4,ITC,loss,10,left,7,ITC_wait,0,undefined,0,0,0,356226,395391
33,19,female,Belg,1,4,ITC,loss,10,left,7,ITC_collect,2571,k,0,0,0,353651,397966
33,19,female,Belg,1,4,ITC,loss,10,left,7,ITC_outcome,0,undefined,0,0,20,352642,398975
33,19,female,Belg,1,5,guess,win,10,left,8,guess_start,981,space,0,0,20,351658,399959
33,19,female,Belg,1,5,guess,win,10,left,8,guess_choice,1918,j,0,0,20,349734,401883
33,19,female,Belg,1,5,guess,win,10,left,8,guess_outcome,0,undefined,0,0,40,348174,403443
33,19,female,Belg,1,5,ITC,win,10,left,8,ITC_start,687,space,0,0,40,347484,404133
33,19,female,Belg,1,5,ITC,win,10,left,8,ITC_choice,2391,f,0,0,40,345089,406528
33,19,female,Belg,1,5,ITC,win,10,left,8,ITC_wait,0,undefined,0,0,40,335081,416536
33,19,female,Belg,1,5,ITC,win,10,left,8,ITC_collect,1542,k,0,0,40,333536,418081
33,19,female,Belg,1,5,ITC,win,10,left,8,ITC_outcome,0,undefined,0,0,60,332529,419088
33,19,female,Belg,1,6,guess,loss,5,left,8,guess_start,818,space,0,0,60,331708,419909
33,19,female,Belg,1,6,guess,loss,5,left,8,guess_choice,1676,j,0,0,60,330026,421591
33,19,female,Belg,1,6,guess,loss,5,left,8,guess_outcome,0,undefined,0,0,45,328469,423148
33,19,female,Belg,1,6,ITC,loss,5,left,8,ITC_start,2351,space,0,0,45,326115,425502
33,19,female,Belg,1,6,ITC,loss,5,left,8,ITC_choice,1680,j,0,0,45,324432,427185
33,19,female,Belg,1,6,ITC,loss,5,left,8,ITC_wait,0,undefined,0,0,45,324427,427190
33,19,female,Belg,1,6,ITC,loss,5,left,8,ITC_collect,1911,k,0,0,45,322516,429101
33,19,female,Belg,1,6,ITC,loss,5,left,8,ITC_outcome,0,undefined,0,0,53,321507,430110
33,19,female,Belg,1,7,guess,win,5,left,13,guess_start,1031,space,0,0,53,320473,431144
33,19,female,Belg,1,7,guess,win,5,left,13,guess_choice,2017,f,0,0,53,318452,433165
33,19,female,Belg,1,7,guess,win,5,left,13,guess_outcome,0,undefined,0,0,73,316892,434725
33,19,female,Belg,1,7,ITC,win,5,left,13,ITC_start,897,space,0,0,73,315993,435624
33,19,female,Belg,1,7,ITC,win,5,left,13,ITC_choice,2781,f,0,0,73,313209,438408
33,19,female,Belg,1,7,ITC,win,5,left,13,ITC_wait,0,undefined,0,0,73,308206,443411
33,19,female,Belg,1,7,ITC,win,5,left,13,ITC_collect,475,k,0,0,73,307728,443889
33,19,female,Belg,1,7,ITC,win,5,left,13,ITC_outcome,0,undefined,0,0,93,306724,444893
33,19,female,Belg,1,8,guess,win,5,left,6,guess_start,2883,space,0,0,93,303837,447780
33,19,female,Belg,1,8,guess,win,5,left,6,guess_choice,3388,j,0,0,93,300444,451173
33,19,female,Belg,1,8,guess,win,5,left,6,guess_outcome,0,undefined,0,0,113,298885,452732
33,19,female,Belg,1,8,ITC,win,5,left,6,ITC_start,1398,space,0,0,113,297484,454133
33,19,female,Belg,1,8,ITC,win,5,left,6,ITC_choice,1520,f,0,0,113,295961,455656
33,19,female,Belg,1,8,ITC,win,5,left,6,ITC_wait,0,undefined,0,0,113,290958,460659
33,19,female,Belg,1,8,ITC,win,5,left,6,ITC_collect,1129,k,0,0,113,289826,461791
33,19,female,Belg,1,8,ITC,win,5,left,6,ITC_outcome,0,undefined,0,0,133,288821,462796
33,19,female,Belg,1,9,guess,win,5,left,8,guess_start,2174,space,0,0,133,286644,464973
33,19,female,Belg,1,9,guess,win,5,left,8,guess_choice,3212,j,0,0,133,283427,468190
33,19,female,Belg,1,9,guess,win,5,left,8,guess_outcome,0,undefined,0,0,153,281868,469749
33,19,female,Belg,1,9,ITC,win,5,left,8,ITC_start,677,space,0,0,153,281188,470429
33,19,female,Belg,1,9,ITC,win,5,left,8,ITC_choice,3998,f,0,0,153,277187,474430
33,19,female,Belg,1,9,ITC,win,5,left,8,ITC_wait,0,undefined,0,0,153,272184,479433
33,19,female,Belg,1,9,ITC,win,5,left,8,ITC_collect,3009,k,0,0,153,269172,482445
33,19,female,Belg,1,9,ITC,win,5,left,8,ITC_outcome,0,undefined,0,0,173,268163,483454
33,19,female,Belg,1,10,guess,loss,5,left,7,guess_start,969,space,0,0,173,267191,484426
33,19,female,Belg,1,10,guess,loss,5,left,7,guess_choice,2608,j,0,0,173,264578,487039
33,19,female,Belg,1,10,guess,loss,5,left,7,guess_outcome,0,undefined,0,0,158,263022,488595
33,19,female,Belg,1,10,ITC,loss,5,left,7,ITC_start,1207,space,0,0,158,261812,489805
33,19,female,Belg,1,10,ITC,loss,5,left,7,ITC_choice,966,f,0,0,158,260841,490776
33,19,female,Belg,1,10,ITC,loss,5,left,7,ITC_wait,0,undefined,0,0,158,255833,495784
33,19,female,Belg,1,10,ITC,loss,5,left,7,ITC_collect,2593,k,0,0,158,253238,498379
33,19,female,Belg,1,10,ITC,loss,5,left,7,ITC_outcome,0,undefined,0,0,178,252229,499388
33,19,female,Belg,1,11,guess,win,5,left,7,guess_start,1003,space,0,0,178,251223,500394
33,19,female,Belg,1,11,guess,win,5,left,7,guess_choice,1776,j,0,0,178,249443,502174
33,19,female,Belg,1,11,guess,win,5,left,7,guess_outcome,0,undefined,0,0,198,247884,503733
33,19,female,Belg,1,11,ITC,win,5,left,7,ITC_start,1077,space,0,0,198,246804,504813
33,19,female,Belg,1,11,ITC,win,5,left,7,ITC_choice,1545,f,0,0,198,245256,506361
33,19,female,Belg,1,11,ITC,win,5,left,7,ITC_wait,0,undefined,0,0,198,240248,511369
33,19,female,Belg,1,11,ITC,win,5,left,7,ITC_collect,1398,k,0,0,198,238847,512770
33,19,female,Belg,1,11,ITC,win,5,left,7,ITC_outcome,0,undefined,0,0,218,237838,513779
33,19,female,Belg,1,12,guess,win,5,left,16,guess_start,785,space,0,0,218,237050,514567
33,19,female,Belg,1,12,guess,win,5,left,16,guess_choice,1920,f,0,0,218,235125,516492
33,19,female,Belg,1,12,guess,win,5,left,16,guess_outcome,0,undefined,0,0,238,233568,518049
33,19,female,Belg,1,12,ITC,win,5,left,16,ITC_start,2542,space,0,0,238,231023,520594
33,19,female,Belg,1,12,ITC,win,5,left,16,ITC_choice,2996,j,0,0,238,228024,523593
33,19,female,Belg,1,12,ITC,win,5,left,16,ITC_wait,0,undefined,0,0,238,228021,523596
33,19,female,Belg,1,12,ITC,win,5,left,16,ITC_collect,1374,k,0,0,238,226645,524972
33,19,female,Belg,1,12,ITC,win,5,left,16,ITC_outcome,0,undefined,0,0,254,225640,525977
33,19,female,Belg,1,13,guess,loss,5,right,15,guess_start,1550,space,0,0,254,224086,527531
33,19,female,Belg,1,13,guess,loss,5,right,15,guess_choice,4075,f,0,0,254,220006,531611
33,19,female,Belg,1,13,guess,loss,5,right,15,guess_outcome,0,undefined,0,0,239,218446,533171
33,19,female,Belg,1,13,ITC,loss,5,right,15,ITC_start,732,space,0,0,239,217711,533906
33,19,female,Belg,1,13,ITC,loss,5,right,15,ITC_choice,1886,f,0,0,239,215822,535795
33,19,female,Belg,1,13,ITC,loss,5,right,15,ITC_wait,0,undefined,0,0,239,215816,535801
33,19,female,Belg,1,13,ITC,loss,5,right,15,ITC_collect,1135,k,0,0,239,214680,536937
33,19,female,Belg,1,13,ITC,loss,5,right,15,ITC_outcome,0,undefined,0,0,254,213673,537944
33,19,female,Belg,1,14,guess,loss,10,left,3,guess_start,1164,space,0,0,254,212505,539112
33,19,female,Belg,1,14,guess,loss,10,left,3,guess_choice,1138,f,0,0,254,211363,540254
33,19,female,Belg,1,14,guess,loss,10,left,3,guess_outcome,0,undefined,0,0,239,209808,541809
33,19,female,Belg,1,14,ITC,loss,10,left,3,ITC_start,792,space,0,0,239,209013,542604
33,19,female,Belg,1,14,ITC,loss,10,left,3,ITC_choice,2678,f,0,0,239,206333,545284
33,19,female,Belg,1,14,ITC,loss,10,left,3,ITC_wait,0,undefined,0,0,239,196325,555292
33,19,female,Belg,1,14,ITC,loss,10,left,3,ITC_collect,4922,k,0,0,239,191399,560218
33,19,female,Belg,1,14,ITC,loss,10,left,3,ITC_outcome,0,undefined,0,0,259,190393,561224
33,19,female,Belg,1,15,guess,loss,5,left,1,guess_start,1528,space,0,0,259,188862,562755
33,19,female,Belg,1,15,guess,loss,5,left,1,guess_choice,2949,j,0,0,259,185909,565708
33,19,female,Belg,1,15,guess,loss,5,left,1,guess_outcome,0,undefined,0,0,244,184351,567266
33,19,female,Belg,1,15,ITC,loss,5,left,1,ITC_start,890,space,0,0,244,183458,568159
33,19,female,Belg,1,15,ITC,loss,5,left,1,ITC_choice,2513,f,0,0,244,180943,570674
33,19,female,Belg,1,15,ITC,loss,5,left,1,ITC_wait,0,undefined,0,0,244,175935,575682
33,19,female,Belg,1,15,ITC,loss,5,left,1,ITC_collect,1343,k,0,0,244,174589,577028
33,19,female,Belg,1,15,ITC,loss,5,left,1,ITC_outcome,0,undefined,0,0,264,173581,578036
33,19,female,Belg,1,16,guess,neutral,10,left,5,guess_start,977,space,0,0,264,172601,579016
33,19,female,Belg,1,16,guess,neutral,10,left,5,guess_choice,1768,f,0,0,264,170828,580789
33,19,female,Belg,1,16,guess,neutral,10,left,5,guess_outcome,0,undefined,0,0,264,169268,582349
33,19,female,Belg,1,16,ITC,neutral,10,left,5,ITC_start,1996,space,0,0,264,167268,584349
33,19,female,Belg,1,16,ITC,neutral,10,left,5,ITC_choice,2227,j,0,0,264,165038,586579
33,19,female,Belg,1,16,ITC,neutral,10,left,5,ITC_wait,0,undefined,0,0,264,165034,586583
33,19,female,Belg,1,16,ITC,neutral,10,left,5,ITC_collect,1357,k,0,0,264,163675,587942
33,19,female,Belg,1,16,ITC,neutral,10,left,5,ITC_outcome,0,undefined,0,0,269,162668,588949
33,19,female,Belg,1,17,guess,win,5,left,11,guess_start,2756,space,0,0,269,159906,591711
33,19,female,Belg,1,17,guess,win,5,left,11,guess_choice,2455,j,0,0,269,157446,594171
33,19,female,Belg,1,17,guess,win,5,left,11,guess_outcome,0,undefined,0,0,289,155890,595727
33,19,female,Belg,1,17,ITC,win,5,left,11,ITC_start,557,space,0,0,289,155331,596286
33,19,female,Belg,1,17,ITC,win,5,left,11,ITC_choice,2206,j,0,0,289,153122,598495
33,19,female,Belg,1,17,ITC,win,5,left,11,ITC_wait,0,undefined,0,0,289,153118,598499
33,19,female,Belg,1,17,ITC,win,5,left,11,ITC_collect,954,k,0,0,289,152163,599454
33,19,female,Belg,1,17,ITC,win,5,left,11,ITC_outcome,0,undefined,0,0,300,151155,600462
33,19,female,Belg,1,18,guess,neutral,5,left,13,guess_start,1011,space,0,0,300,150141,601476
33,19,female,Belg,1,18,guess,neutral,5,left,13,guess_choice,2014,j,0,0,300,148121,603496
33,19,female,Belg,1,18,guess,neutral,5,left,13,guess_outcome,0,undefined,0,0,300,146562,605055
33,19,female,Belg,1,18,ITC,neutral,5,left,13,ITC_start,1342,space,0,0,300,145217,606400
33,19,female,Belg,1,18,ITC,neutral,5,left,13,ITC_choice,1960,j,0,0,300,143254,608363
33,19,female,Belg,1,18,ITC,neutral,5,left,13,ITC_wait,0,undefined,0,0,300,143251,608366
33,19,female,Belg,1,18,ITC,neutral,5,left,13,ITC_collect,1047,k,0,0,300,142203,609414
33,19,female,Belg,1,18,ITC,neutral,5,left,13,ITC_outcome,0,undefined,0,0,313,141196,610421
33,19,female,Belg,1,19,guess,loss,5,left,4,guess_start,1485,space,0,0,313,139708,611909
33,19,female,Belg,1,19,guess,loss,5,left,4,guess_choice,1907,j,0,0,313,137796,613821
33,19,female,Belg,1,19,guess,loss,5,left,4,guess_outcome,0,undefined,0,0,298,136236,615381
33,19,female,Belg,1,19,ITC,loss,5,left,4,ITC_start,654,space,0,0,298,135579,616038
33,19,female,Belg,1,19,ITC,loss,5,left,4,ITC_choice,2488,f,0,0,298,133088,618529
33,19,female,Belg,1,19,ITC,loss,5,left,4,ITC_wait,0,undefined,0,0,298,128085,623532
33,19,female,Belg,1,19,ITC,loss,5,left,4,ITC_collect,696,k,0,0,298,127385,624232
33,19,female,Belg,1,19,ITC,loss,5,left,4,ITC_outcome,0,undefined,0,0,318,126377,625240
33,19,female,Belg,1,20,guess,win,10,right,6,guess_start,365,space,0,0,318,126008,625609
33,19,female,Belg,1,20,guess,win,10,right,6,guess_choice,1660,j,0,0,318,124344,627273
33,19,female,Belg,1,20,guess,win,10,right,6,guess_outcome,0,undefined,0,0,338,122787,628830
33,19,female,Belg,1,20,ITC,win,10,right,6,ITC_start,891,space,0,0,338,121893,629724
33,19,female,Belg,1,20,ITC,win,10,right,6,ITC_choice,3159,f,0,0,338,118731,632886
33,19,female,Belg,1,20,ITC,win,10,right,6,ITC_wait,0,undefined,0,0,338,118727,632890
33,19,female,Belg,1,20,ITC,win,10,right,6,ITC_collect,1229,k,0,0,338,117496,634121
33,19,female,Belg,1,20,ITC,win,10,right,6,ITC_outcome,0,undefined,0,0,344,116492,635125
33,19,female,Belg,1,21,guess,win,10,right,5,guess_start,681,space,0,0,344,115808,635809
33,19,female,Belg,1,21,guess,win,10,right,5,guess_choice,1664,f,0,0,344,114140,637477
33,19,female,Belg,1,21,guess,win,10,right,5,guess_outcome,0,undefined,0,0,364,112583,639034
33,19,female,Belg,1,21,ITC,win,10,right,5,ITC_start,687,space,0,0,364,111893,639724
33,19,female,Belg,1,21,ITC,win,10,right,5,ITC_choice,2692,f,0,0,364,109198,642419
33,19,female,Belg,1,21,ITC,win,10,right,5,ITC_wait,0,undefined,0,0,364,109193,642424
33,19,female,Belg,1,21,ITC,win,10,right,5,ITC_collect,1106,k,0,0,364,108086,643531
33,19,female,Belg,1,21,ITC,win,10,right,5,ITC_outcome,0,undefined,0,0,369,107077,644540
33,19,female,Belg,1,22,guess,win,5,left,9,guess_start,838,space,0,0,369,106235,645382
33,19,female,Belg,1,22,guess,win,5,left,9,guess_choice,1769,f,0,0,369,104461,647156
33,19,female,Belg,1,22,guess,win,5,left,9,guess_outcome,0,undefined,0,0,389,102902,648715
33,19,female,Belg,1,22,ITC,win,5,left,9,ITC_start,693,space,0,0,389,102206,649411
33,19,female,Belg,1,22,ITC,win,5,left,9,ITC_choice,2165,j,0,0,389,100039,651578
33,19,female,Belg,1,22,ITC,win,5,left,9,ITC_wait,0,undefined,0,0,389,100034,651583
33,19,female,Belg,1,22,ITC,win,5,left,9,ITC_collect,1939,k,0,0,389,98094,653523
33,19,female,Belg,1,22,ITC,win,5,left,9,ITC_outcome,0,undefined,0,0,398,97085,654532
33,19,female,Belg,1,23,guess,neutral,5,right,3,guess_start,650,space,0,0,398,96432,655185
33,19,female,Belg,1,23,guess,neutral,5,right,3,guess_choice,1778,j,0,0,398,94650,656967
33,19,female,Belg,1,23,guess,neutral,5,right,3,guess_outcome,0,undefined,0,0,398,93090,658527
33,19,female,Belg,1,23,ITC,neutral,5,right,3,ITC_start,1931,space,0,0,398,91157,660460
33,19,female,Belg,1,23,ITC,neutral,5,right,3,ITC_choice,2004,j,0,0,398,89151,662466
33,19,female,Belg,1,23,ITC,neutral,5,right,3,ITC_wait,0,undefined,0,0,398,84143,667474
33,19,female,Belg,1,23,ITC,neutral,5,right,3,ITC_collect,1183,k,0,0,398,82958,668659
33,19,female,Belg,1,23,ITC,neutral,5,right,3,ITC_outcome,0,undefined,0,0,418,81950,669667
33,19,female,Belg,1,24,guess,neutral,5,left,6,guess_start,1079,space,0,0,418,80868,670749
33,19,female,Belg,1,24,guess,neutral,5,left,6,guess_choice,1228,f,0,0,418,79635,671982
33,19,female,Belg,1,24,guess,neutral,5,left,6,guess_outcome,0,undefined,0,0,418,78079,673538
33,19,female,Belg,1,24,ITC,neutral,5,left,6,ITC_start,702,space,0,0,418,77374,674243
33,19,female,Belg,1,24,ITC,neutral,5,left,6,ITC_choice,1557,j,0,0,418,75814,675803
33,19,female,Belg,1,24,ITC,neutral,5,left,6,ITC_wait,0,undefined,0,0,418,75810,675807
33,19,female,Belg,1,24,ITC,neutral,5,left,6,ITC_collect,1084,k,0,0,418,74724,676893
33,19,female,Belg,1,24,ITC,neutral,5,left,6,ITC_outcome,0,undefined,0,0,424,73716,677901
33,19,female,Belg,1,25,guess,win,10,left,2,guess_start,2107,space,0,0,424,71606,680011
33,19,female,Belg,1,25,guess,win,10,left,2,guess_choice,9401,j,0,0,424,62200,689417
33,19,female,Belg,1,25,guess,win,10,left,2,guess_outcome,0,undefined,0,0,444,60641,690976
33,19,female,Belg,1,25,ITC,win,10,left,2,ITC_start,864,space,0,0,444,59775,691842
33,19,female,Belg,1,25,ITC,win,10,left,2,ITC_choice,2809,j,0,0,444,56963,694654
33,19,female,Belg,1,25,ITC,win,10,left,2,ITC_wait,0,undefined,0,0,444,56959,694658
33,19,female,Belg,1,25,ITC,win,10,left,2,ITC_collect,947,k,0,0,444,56011,695606
33,19,female,Belg,1,25,ITC,win,10,left,2,ITC_outcome,0,undefined,0,0,446,55003,696614
33,19,female,Belg,1,26,guess,neutral,10,left,8,guess_start,702,space,0,0,446,54297,697320
33,19,female,Belg,1,26,guess,neutral,10,left,8,guess_choice,1531,j,0,0,446,52762,698855
33,19,female,Belg,1,26,guess,neutral,10,left,8,guess_outcome,0,undefined,0,0,446,51202,700415
33,19,female,Belg,1,26,ITC,neutral,10,left,8,ITC_start,934,space,0,0,446,50265,701352
33,19,female,Belg,1,26,ITC,neutral,10,left,8,ITC_choice,1678,j,0,0,446,48584,703033
33,19,female,Belg,1,26,ITC,neutral,10,left,8,ITC_wait,0,undefined,0,0,446,48580,703037
33,19,female,Belg,1,26,ITC,neutral,10,left,8,ITC_collect,1043,k,0,0,446,47536,704081
33,19,female,Belg,1,26,ITC,neutral,10,left,8,ITC_outcome,0,undefined,0,0,454,46532,705085
33,19,female,Belg,1,27,guess,loss,5,right,3,guess_start,726,space,0,0,454,45802,705815
33,19,female,Belg,1,27,guess,loss,5,right,3,guess_choice,1543,f,0,0,454,44254,707363
33,19,female,Belg,1,27,guess,loss,5,right,3,guess_outcome,0,undefined,0,0,439,42694,708923
33,19,female,Belg,1,27,ITC,loss,5,right,3,ITC_start,960,space,0,0,439,41731,709886
33,19,female,Belg,1,27,ITC,loss,5,right,3,ITC_choice,1889,j,0,0,439,39838,711779
33,19,female,Belg,1,27,ITC,loss,5,right,3,ITC_wait,0,undefined,0,0,439,34834,716783
33,19,female,Belg,1,27,ITC,loss,5,right,3,ITC_collect,923,k,0,0,439,33908,717709
33,19,female,Belg,1,27,ITC,loss,5,right,3,ITC_outcome,0,undefined,0,0,459,32901,718716
33,19,female,Belg,1,28,guess,neutral,5,left,16,guess_start,840,space,0,0,459,32058,719559
33,19,female,Belg,1,28,guess,neutral,5,left,16,guess_choice,1061,f,0,0,459,30992,720625
33,19,female,Belg,1,28,guess,neutral,5,left,16,guess_outcome,0,undefined,0,0,459,29432,722185
33,19,female,Belg,1,28,ITC,neutral,5,left,16,ITC_start,3629,space,0,0,459,25800,725817
33,19,female,Belg,1,28,ITC,neutral,5,left,16,ITC_choice,1761,j,0,0,459,24036,727581
33,19,female,Belg,1,28,ITC,neutral,5,left,16,ITC_wait,0,undefined,0,0,459,24032,727585
33,19,female,Belg,1,28,ITC,neutral,5,left,16,ITC_collect,992,k,0,0,459,23038,728579
33,19,female,Belg,1,28,ITC,neutral,5,left,16,ITC_outcome,0,undefined,0,0,475,22034,729583
33,19,female,Belg,1,29,guess,neutral,5,left,4,guess_start,687,space,0,0,475,21344,730273
33,19,female,Belg,1,29,guess,neutral,5,left,4,guess_choice,1010,f,0,0,475,20328,731289
33,19,female,Belg,1,29,guess,neutral,5,left,4,guess_outcome,0,undefined,0,0,475,18769,732848
33,19,female,Belg,1,29,ITC,neutral,5,left,4,ITC_start,2434,space,0,0,475,16332,735285
33,19,female,Belg,1,29,ITC,neutral,5,left,4,ITC_choice,1440,j,0,0,475,14890,736727
33,19,female,Belg,1,29,ITC,neutral,5,left,4,ITC_wait,0,undefined,0,0,475,14885,736732
33,19,female,Belg,1,29,ITC,neutral,5,left,4,ITC_collect,719,k,0,0,475,14165,737452
33,19,female,Belg,1,29,ITC,neutral,5,left,4,ITC_outcome,0,undefined,0,0,479,13157,738460
33,19,female,Belg,1,30,guess,neutral,5,right,9,guess_start,502,space,0,0,479,12652,738965
33,19,female,Belg,1,30,guess,neutral,5,right,9,guess_choice,991,f,0,0,479,11655,739962
33,19,female,Belg,1,30,guess,neutral,5,right,9,guess_outcome,0,undefined,0,0,479,10100,741517
33,19,female,Belg,1,30,ITC,neutral,5,right,9,ITC_start,2625,space,0,0,479,7471,744146
33,19,female,Belg,1,30,ITC,neutral,5,right,9,ITC_choice,3137,f,0,0,479,4331,747286
33,19,female,Belg,1,30,ITC,neutral,5,right,9,ITC_wait,0,undefined,0,0,479,4328,747289
33,19,female,Belg,1,30,ITC,neutral,5,right,9,ITC_collect,1029,k,0,0,479,3297,748320
33,19,female,Belg,1,30,ITC,neutral,5,right,9,ITC_outcome,0,undefined,0,0,488,2289,749328
33,19,female,Belg,1,31,guess,neutral,5,left,5,guess_start,966,space,0,0,488,1320,750297
33,19,female,Belg,1,31,guess,neutral,5,left,5,guess_choice,916,f,0,0,488,399,751218
33,19,female,Belg,1,31,guess,neutral,5,left,5,guess_outcome,0,undefined,0,0,488,-6,751623
33,19,female,Belg,2,32,guess,neutral,5,left,15,guess_start,1237,space,0,0,0,478762,852825
33,19,female,Belg,2,32,guess,neutral,5,left,15,guess_choice,1376,j,0,0,0,477381,854206
33,19,female,Belg,2,32,guess,neutral,5,left,15,guess_outcome,0,undefined,0,0,0,475824,855763
33,19,female,Belg,2,32,ITC,neutral,5,left,15,ITC_start,1296,space,0,0,0,474525,857062
33,19,female,Belg,2,32,ITC,neutral,5,left,15,ITC_choice,1330,j,0,0,0,473193,858394
33,19,female,Belg,2,32,ITC,neutral,5,left,15,ITC_wait,0,undefined,0,0,0,473189,858398
33,19,female,Belg,2,32,ITC,neutral,5,left,15,ITC_collect,1110,k,0,0,0,472077,859510
33,19,female,Belg,2,32,ITC,neutral,5,left,15,ITC_outcome,0,undefined,0,0,15,471069,860518
33,19,female,Belg,2,33,guess,win,10,right,1,guess_start,716,space,0,0,15,470350,861237
33,19,female,Belg,2,33,guess,win,10,right,1,guess_choice,1178,j,0,0,15,469168,862419
33,19,female,Belg,2,33,guess,win,10,right,1,guess_outcome,0,undefined,0,0,35,467612,863975
33,19,female,Belg,2,33,ITC,win,10,right,1,ITC_start,1020,space,0,0,35,466589,864998
33,19,female,Belg,2,33,ITC,win,10,right,1,ITC_choice,2582,j,0,0,35,464004,867583
33,19,female,Belg,2,33,ITC,win,10,right,1,ITC_wait,0,undefined,0,0,35,454001,877586
33,19,female,Belg,2,33,ITC,win,10,right,1,ITC_collect,1605,k,0,0,35,452393,879194
33,19,female,Belg,2,33,ITC,win,10,right,1,ITC_outcome,0,undefined,0,0,55,451386,880201
33,19,female,Belg,2,34,guess,win,5,right,3,guess_start,1961,space,0,0,55,449422,882165
33,19,female,Belg,2,34,guess,win,5,right,3,guess_choice,1658,f,0,0,55,447760,883827
33,19,female,Belg,2,34,guess,win,5,right,3,guess_outcome,0,undefined,0,0,75,446201,885386
33,19,female,Belg,2,34,ITC,win,5,right,3,ITC_start,892,space,0,0,75,445307,886280
33,19,female,Belg,2,34,ITC,win,5,right,3,ITC_choice,1862,j,0,0,75,443442,888145
33,19,female,Belg,2,34,ITC,win,5,right,3,ITC_wait,0,undefined,0,0,75,438438,893149
33,19,female,Belg,2,34,ITC,win,5,right,3,ITC_collect,1017,k,0,0,75,437418,894169
33,19,female,Belg,2,34,ITC,win,5,right,3,ITC_outcome,0,undefined,0,0,95,436412,895175
33,19,female,Belg,2,35,guess,loss,5,left,16,guess_start,814,space,0,0,95,435594,895993
33,19,female,Belg,2,35,guess,loss,5,left,16,guess_choice,1586,j,0,0,95,434003,897584
33,19,female,Belg,2,35,guess,loss,5,left,16,guess_outcome,0,undefined,0,0,80,432444,899143
33,19,female,Belg,2,35,ITC,loss,5,left,16,ITC_start,1069,space,0,0,80,431372,900215
33,19,female,Belg,2,35,ITC,loss,5,left,16,ITC_choice,1838,j,0,0,80,429532,902055
33,19,female,Belg,2,35,ITC,loss,5,left,16,ITC_wait,0,undefined,0,0,80,429528,902059
33,19,female,Belg,2,35,ITC,loss,5,left,16,ITC_collect,916,k,0,0,80,428610,902977
33,19,female,Belg,2,35,ITC,loss,5,left,16,ITC_outcome,0,undefined,0,0,96,427602,903985
33,19,female,Belg,2,36,guess,loss,5,left,12,guess_start,669,space,0,0,96,426930,904657
33,19,female,Belg,2,36,guess,loss,5,left,12,guess_choice,1315,f,0,0,96,425611,905976
33,19,female,Belg,2,36,guess,loss,5,left,12,guess_outcome,0,undefined,0,0,81,424055,907532
33,19,female,Belg,2,36,ITC,loss,5,left,12,ITC_start,630,space,0,0,81,423422,908165
33,19,female,Belg,2,36,ITC,loss,5,left,12,ITC_choice,1402,j,0,0,81,422018,909569
33,19,female,Belg,2,36,ITC,loss,5,left,12,ITC_wait,0,undefined,0,0,81,422013,909574
33,19,female,Belg,2,36,ITC,loss,5,left,12,ITC_collect,954,k,0,0,81,421058,910529
33,19,female,Belg,2,36,ITC,loss,5,left,12,ITC_outcome,0,undefined,0,0,93,420049,911538
33,19,female,Belg,2,37,guess,neutral,5,left,2,guess_start,377,space,0,0,93,419669,911918
33,19,female,Belg,2,37,guess,neutral,5,left,2,guess_choice,1067,j,0,0,93,418597,912990
33,19,female,Belg,2,37,guess,neutral,5,left,2,guess_outcome,0,undefined,0,0,93,417038,914549
33,19,female,Belg,2,37,ITC,neutral,5,left,2,ITC_start,595,space,0,0,93,416440,915147
33,19,female,Belg,2,37,ITC,neutral,5,left,2,ITC_choice,2802,f,0,0,93,413635,917952
33,19,female,Belg,2,37,ITC,neutral,5,left,2,ITC_wait,0,undefined,0,0,93,408627,922960
33,19,female,Belg,2,37,ITC,neutral,5,left,2,ITC_collect,566,k,0,0,93,408057,923530
33,19,female,Belg,2,37,ITC,neutral,5,left,2,ITC_outcome,0,undefined,0,0,113,407048,924539
33,19,female,Belg,2,38,guess,loss,5,right,6,guess_start,599,space,0,0,113,406446,925141
33,19,female,Belg,2,38,guess,loss,5,right,6,guess_choice,998,f,0,0,113,405444,926143
33,19,female,Belg,2,38,guess,loss,5,right,6,guess_outcome,0,undefined,0,0,98,403888,927699
33,19,female,Belg,2,38,ITC,loss,5,right,6,ITC_start,456,space,0,0,98,403429,928158
33,19,female,Belg,2,38,ITC,loss,5,right,6,ITC_choice,2361,f,0,0,98,401067,930520
33,19,female,Belg,2,38,ITC,loss,5,right,6,ITC_wait,0,undefined,0,0,98,401063,930524
33,19,female,Belg,2,38,ITC,loss,5,right,6,ITC_collect,780,k,0,0,98,400281,931306
33,19,female,Belg,2,38,ITC,loss,5,right,6,ITC_outcome,0,undefined,0,0,104,399277,932310
33,19,female,Belg,2,39,guess,neutral,10,left,7,guess_start,473,space,0,0,104,398800,932787
33,19,female,Belg,2,39,guess,neutral,10,left,7,guess_choice,1132,f,0,0,104,397663,933924
33,19,female,Belg,2,39,guess,neutral,10,left,7,guess_outcome,0,undefined,0,0,104,396106,935481
33,19,female,Belg,2,39,ITC,neutral,10,left,7,ITC_start,507,space,0,0,104,395596,935991
33,19,female,Belg,2,39,ITC,neutral,10,left,7,ITC_choice,1626,j,0,0,104,393967,937620
33,19,female,Belg,2,39,ITC,neutral,10,left,7,ITC_wait,0,undefined,0,0,104,393964,937623
33,19,female,Belg,2,39,ITC,neutral,10,left,7,ITC_collect,585,k,0,0,104,393377,938210
33,19,female,Belg,2,39,ITC,neutral,10,left,7,ITC_outcome,0,undefined,0,0,111,392369,939218
33,19,female,Belg,2,40,guess,loss,10,right,1,guess_start,425,space,0,0,111,391941,939646
33,19,female,Belg,2,40,guess,loss,10,right,1,guess_choice,2098,j,0,0,111,389839,941748
33,19,female,Belg,2,40,guess,loss,10,right,1,guess_outcome,0,undefined,0,0,96,388279,943308
33,19,female,Belg,2,40,ITC,loss,10,right,1,ITC_start,371,space,0,0,96,387905,943682
33,19,female,Belg,2,40,ITC,loss,10,right,1,ITC_choice,2392,f,0,0,96,385511,946076
33,19,female,Belg,2,40,ITC,loss,10,right,1,ITC_wait,0,undefined,0,0,96,385507,946080
33,19,female,Belg,2,40,ITC,loss,10,right,1,ITC_collect,801,k,0,0,96,384704,946883
33,19,female,Belg,2,40,ITC,loss,10,right,1,ITC_outcome,0,undefined,0,0,97,383696,947891
33,19,female,Belg,2,41,guess,win,5,left,10,guess_start,464,space,0,0,97,383229,948358
33,19,female,Belg,2,41,guess,win,5,left,10,guess_choice,1253,f,0,0,97,381971,949616
33,19,female,Belg,2,41,guess,win,5,left,10,guess_outcome,0,undefined,0,0,117,380412,951175
33,19,female,Belg,2,41,ITC,win,5,left,10,ITC_start,443,space,0,0,117,379965,951622
33,19,female,Belg,2,41,ITC,win,5,left,10,ITC_choice,1355,j,0,0,117,378607,952980
33,19,female,Belg,2,41,ITC,win,5,left,10,ITC_wait,0,undefined,0,0,117,378603,952984
33,19,female,Belg,2,41,ITC,win,5,left,10,ITC_collect,782,k,0,0,117,377820,953767
33,19,female,Belg,2,41,ITC,win,5,left,10,ITC_outcome,0,undefined,0,0,127,376812,954775
33,19,female,Belg,2,42,guess,loss,5,left,10,guess_start,509,space,0,0,127,376300,955287
33,19,female,Belg,2,42,guess,loss,5,left,10,guess_choice,1884,j,0,0,127,374411,957176
33,19,female,Belg,2,42,guess,loss,5,left,10,guess_outcome,0,undefined,0,0,112,372851,958736
33,19,female,Belg,2,42,ITC,loss,5,left,10,ITC_start,638,space,0,0,112,372210,959377
33,19,female,Belg,2,42,ITC,loss,5,left,10,ITC_wait,0,undefined,0,0,112,370945,960642
33,19,female,Belg,2,42,ITC,loss,5,left,10,ITC_choice,1261,j,0,0,112,370947,960640
33,19,female,Belg,2,42,ITC,loss,5,left,10,ITC_collect,516,k,0,0,112,370428,961159
33,19,female,Belg,2,42,ITC,loss,5,left,10,ITC_outcome,0,undefined,0,0,122,369420,962167
33,19,female,Belg,2,43,guess,neutral,5,right,14,guess_start,567,space,0,0,122,368850,962737
33,19,female,Belg,2,43,guess,neutral,5,right,14,guess_choice,862,f,0,0,122,367982,963605
33,19,female,Belg,2,43,guess,neutral,5,right,14,guess_outcome,0,undefined,0,0,122,366422,965165
33,19,female,Belg,2,43,ITC,neutral,5,right,14,ITC_start,563,space,0,0,122,365856,965731
33,19,female,Belg,2,43,ITC,neutral,5,right,14,ITC_choice,1266,f,0,0,122,364587,967000
33,19,female,Belg,2,43,ITC,neutral,5,right,14,ITC_wait,0,undefined,0,0,122,364583,967004
33,19,female,Belg,2,43,ITC,neutral,5,right,14,ITC_collect,984,k,0,0,122,363597,967990
33,19,female,Belg,2,43,ITC,neutral,5,right,14,ITC_outcome,0,undefined,0,0,136,362589,968998
33,19,female,Belg,2,44,guess,loss,10,right,4,guess_start,1688,space,0,0,136,360897,970690
33,19,female,Belg,2,44,guess,loss,10,right,4,guess_choice,1944,j,0,0,136,358949,972638
33,19,female,Belg,2,44,guess,loss,10,right,4,guess_outcome,0,undefined,0,0,121,357389,974198
33,19,female,Belg,2,44,ITC,loss,10,right,4,ITC_start,450,space,0,0,121,356937,974650
33,19,female,Belg,2,44,ITC,loss,10,right,4,ITC_choice,1333,f,0,0,121,355601,975986
33,19,female,Belg,2,44,ITC,loss,10,right,4,ITC_wait,0,undefined,0,0,121,355597,975990
33,19,female,Belg,2,44,ITC,loss,10,right,4,ITC_collect,892,k,0,0,121,354703,976884
33,19,female,Belg,2,44,ITC,loss,10,right,4,ITC_outcome,0,undefined,0,0,125,353695,977892
33,19,female,Belg,2,45,guess,win,10,left,3,guess_start,523,space,0,0,125,353169,978418
33,19,female,Belg,2,45,guess,win,10,left,3,guess_choice,1214,f,0,0,125,351951,979636
33,19,female,Belg,2,45,guess,win,10,left,3,guess_outcome,0,undefined,0,0,145,350392,981195
33,19,female,Belg,2,45,ITC,win,10,left,3,ITC_start,935,space,0,0,145,349455,982132
33,19,female,Belg,2,45,ITC,win,10,left,3,ITC_choice,1285,j,0,0,145,348167,983420
33,19,female,Belg,2,45,ITC,win,10,left,3,ITC_wait,0,undefined,0,0,145,348163,983424
33,19,female,Belg,2,45,ITC,win,10,left,3,ITC_collect,588,k,0,0,145,347573,984014
33,19,female,Belg,2,45,ITC,win,10,left,3,ITC_outcome,0,undefined,0,0,148,346565,985022
33,19,female,Belg,2,46,guess,neutral,10,left,6,guess_start,433,space,0,0,148,346129,985458
33,19,female,Belg,2,46,guess,neutral,10,left,6,guess_choice,981,j,0,0,148,345143,986444
33,19,female,Belg,2,46,guess,neutral,10,left,6,guess_outcome,0,undefined,0,0,148,343584,988003
33,19,female,Belg,2,46,ITC,neutral,10,left,6,ITC_start,571,space,0,0,148,343010,988577
33,19,female,Belg,2,46,ITC,neutral,10,left,6,ITC_choice,1367,j,0,0,148,341640,989947
33,19,female,Belg,2,46,ITC,neutral,10,left,6,ITC_wait,0,undefined,0,0,148,341635,989952
33,19,female,Belg,2,46,ITC,neutral,10,left,6,ITC_collect,512,k,0,0,148,341122,990465
33,19,female,Belg,2,46,ITC,neutral,10,left,6,ITC_outcome,0,undefined,0,0,154,340118,991469
33,19,female,Belg,2,47,guess,loss,5,right,13,guess_start,477,space,0,0,154,339637,991950
33,19,female,Belg,2,47,guess,loss,5,right,13,guess_choice,1301,j,0,0,154,338333,993254
33,19,female,Belg,2,47,guess,loss,5,right,13,guess_outcome,0,undefined,0,0,139,336774,994813
33,19,female,Belg,2,47,ITC,loss,5,right,13,ITC_start,463,space,0,0,139,336307,995280
33,19,female,Belg,2,47,ITC,loss,5,right,13,ITC_choice,1823,f,0,0,139,334482,997105
33,19,female,Belg,2,47,ITC,loss,5,right,13,ITC_wait,0,undefined,0,0,139,334478,997109
33,19,female,Belg,2,47,ITC,loss,5,right,13,ITC_collect,605,k,0,0,139,333871,997716
33,19,female,Belg,2,47,ITC,loss,5,right,13,ITC_outcome,0,undefined,0,0,152,332863,998724
33,19,female,Belg,2,48,guess,win,10,right,7,guess_start,518,space,0,0,152,332342,999245
33,19,female,Belg,2,48,guess,win,10,right,7,guess_choice,1230,j,0,0,152,331107,1000480
33,19,female,Belg,2,48,guess,win,10,right,7,guess_outcome,0,undefined,0,0,172,329552,1002035
33,19,female,Belg,2,48,ITC,win,10,right,7,ITC_start,527,space,0,0,172,329022,1002565
33,19,female,Belg,2,48,ITC,win,10,right,7,ITC_choice,1520,f,0,0,172,327499,1004088
33,19,female,Belg,2,48,ITC,win,10,right,7,ITC_wait,0,undefined,0,0,172,327495,1004092
33,19,female,Belg,2,48,ITC,win,10,right,7,ITC_collect,813,k,0,0,172,326680,1004907
33,19,female,Belg,2,48,ITC,win,10,right,7,ITC_outcome,0,undefined,0,0,179,325674,1005913
33,19,female,Belg,2,49,guess,win,5,right,14,guess_start,552,space,0,0,179,325119,1006468
33,19,female,Belg,2,49,guess,win,5,right,14,guess_choice,2809,j,0,0,179,322305,1009282
33,19,female,Belg,2,49,guess,win,5,right,14,guess_outcome,0,undefined,0,0,199,320744,1010843
33,19,female,Belg,2,49,ITC,win,5,right,14,ITC_start,483,space,0,0,199,320258,1011329
33,19,female,Belg,2,49,ITC,win,5,right,14,ITC_choice,1236,f,0,0,199,319019,1012568
33,19,female,Belg,2,49,ITC,win,5,right,14,ITC_wait,0,undefined,0,0,199,319014,1012573
33,19,female,Belg,2,49,ITC,win,5,right,14,ITC_collect,592,k,0,0,199,318421,1013166
33,19,female,Belg,2,49,ITC,win,5,right,14,ITC_outcome,0,undefined,0,0,213,317412,1014175
33,19,female,Belg,2,50,guess,neutral,5,left,8,guess_start,458,space,0,0,213,316951,1014636
33,19,female,Belg,2,50,guess,neutral,5,left,8,guess_choice,927,f,0,0,213,316019,1015568
33,19,female,Belg,2,50,guess,neutral,5,left,8,guess_outcome,0,undefined,0,0,213,314459,1017128
33,19,female,Belg,2,50,ITC,neutral,5,left,8,ITC_start,662,space,0,0,213,313795,1017792
33,19,female,Belg,2,50,ITC,neutral,5,left,8,ITC_choice,2114,j,0,0,213,311678,1019909
33,19,female,Belg,2,50,ITC,neutral,5,left,8,ITC_wait,0,undefined,0,0,213,311674,1019913
33,19,female,Belg,2,50,ITC,neutral,5,left,8,ITC_collect,510,k,0,0,213,311163,1020424
33,19,female,Belg,2,50,ITC,neutral,5,left,8,ITC_outcome,0,undefined,0,0,221,310155,1021432
33,19,female,Belg,2,51,guess,neutral,10,right,2,guess_start,344,space,0,0,221,309808,1021779
33,19,female,Belg,2,51,guess,neutral,10,right,2,guess_choice,793,f,0,0,221,309010,1022577
33,19,female,Belg,2,51,guess,neutral,10,right,2,guess_outcome,0,undefined,0,0,221,307450,1024137
33,19,female,Belg,2,51,ITC,neutral,10,right,2,ITC_start,430,space,0,0,221,307017,1024570
33,19,female,Belg,2,51,ITC,neutral,10,right,2,ITC_choice,1522,f,0,0,221,305492,1026095
33,19,female,Belg,2,51,ITC,neutral,10,right,2,ITC_wait,0,undefined,0,0,221,305488,1026099
33,19,female,Belg,2,51,ITC,neutral,10,right,2,ITC_collect,650,k,0,0,221,304836,1026751
33,19,female,Belg,2,51,ITC,neutral,10,right,2,ITC_outcome,0,undefined,0,0,223,303828,1027759
33,19,female,Belg,2,52,guess,win,5,right,4,guess_start,448,space,0,0,223,303375,1028212
33,19,female,Belg,2,52,guess,win,5,right,4,guess_choice,1863,f,0,0,223,301507,1030080
33,19,female,Belg,2,52,guess,win,5,right,4,guess_outcome,0,undefined,0,0,243,299947,1031640
33,19,female,Belg,2,52,ITC,win,5,right,4,ITC_start,451,space,0,0,243,299492,1032095
33,19,female,Belg,2,52,ITC,win,5,right,4,ITC_choice,1356,f,0,0,243,298134,1033453
33,19,female,Belg,2,52,ITC,win,5,right,4,ITC_wait,0,undefined,0,0,243,298130,1033457
33,19,female,Belg,2,52,ITC,win,5,right,4,ITC_collect,368,k,0,0,243,297761,1033826
33,19,female,Belg,2,52,ITC,win,5,right,4,ITC_outcome,0,undefined,0,0,247,296752,1034835
33,19,female,Belg,2,53,guess,win,10,left,4,guess_start,437,space,0,0,247,296312,1035275
33,19,female,Belg,2,53,guess,win,10,left,4,guess_choice,1213,j,0,0,247,295095,1036492
33,19,female,Belg,2,53,guess,win,10,left,4,guess_outcome,0,undefined,0,0,267,293535,1038052
33,19,female,Belg,2,53,ITC,win,10,left,4,ITC_start,563,space,0,0,267,292968,1038619
33,19,female,Belg,2,53,ITC,win,10,left,4,ITC_choice,1351,j,0,0,267,291614,1039973
33,19,female,Belg,2,53,ITC,win,10,left,4,ITC_wait,0,undefined,0,0,267,291610,1039977
33,19,female,Belg,2,53,ITC,win,10,left,4,ITC_collect,315,k,0,0,267,291293,1040294
33,19,female,Belg,2,53,ITC,win,10,left,4,ITC_outcome,0,undefined,0,0,271,290285,1041302
33,19,female,Belg,2,54,guess,loss,5,left,11,guess_start,439,space,0,0,271,289842,1041745
33,19,female,Belg,2,54,guess,loss,5,left,11,guess_choice,740,f,0,0,271,289097,1042490
33,19,female,Belg,2,54,guess,loss,5,left,11,guess_outcome,0,undefined,0,0,256,287538,1044049
33,19,female,Belg,2,54,ITC,loss,5,left,11,ITC_start,478,space,0,0,256,287057,1044530
33,19,female,Belg,2,54,ITC,loss,5,left,11,ITC_choice,1228,j,0,0,256,285826,1045761
33,19,female,Belg,2,54,ITC,loss,5,left,11,ITC_wait,0,undefined,0,0,256,285820,1045767
33,19,female,Belg,2,54,ITC,loss,5,left,11,ITC_collect,407,k,0,0,256,285412,1046175
33,19,female,Belg,2,54,ITC,loss,5,left,11,ITC_outcome,0,undefined,0,0,267,284408,1047179
33,19,female,Belg,2,55,guess,win,5,left,5,guess_start,578,space,0,0,267,283826,1047761
33,19,female,Belg,2,55,guess,win,5,left,5,guess_choice,909,j,0,0,267,282913,1048674
33,19,female,Belg,2,55,guess,win,5,left,5,guess_outcome,0,undefined,0,0,287,281353,1050234
33,19,female,Belg,2,55,ITC,win,5,left,5,ITC_start,447,space,0,0,287,280903,1050684
33,19,female,Belg,2,55,ITC,win,5,left,5,ITC_choice,1058,j,0,0,287,279842,1051745
33,19,female,Belg,2,55,ITC,win,5,left,5,ITC_wait,0,undefined,0,0,287,279838,1051749
33,19,female,Belg,2,55,ITC,win,5,left,5,ITC_collect,302,k,0,0,287,279533,1052054
33,19,female,Belg,2,55,ITC,win,5,left,5,ITC_outcome,0,undefined,0,0,292,278525,1053062
33,19,female,Belg,2,56,guess,win,5,right,1,guess_start,469,space,0,0,292,278052,1053535
33,19,female,Belg,2,56,guess,win,5,right,1,guess_choice,709,f,0,0,292,277339,1054248
33,19,female,Belg,2,56,guess,win,5,right,1,guess_outcome,0,undefined,0,0,312,275780,1055807
33,19,female,Belg,2,56,ITC,win,5,right,1,ITC_start,403,space,0,0,312,275374,1056213
33,19,female,Belg,2,56,ITC,win,5,right,1,ITC_choice,2343,j,0,0,312,273029,1058558
33,19,female,Belg,2,56,ITC,win,5,right,1,ITC_wait,0,undefined,0,0,312,268021,1063566
33,19,female,Belg,2,56,ITC,win,5,right,1,ITC_collect,1202,k,0,0,312,266815,1064772
33,19,female,Belg,2,56,ITC,win,5,right,1,ITC_outcome,0,undefined,0,0,332,265808,1065779
33,19,female,Belg,2,57,guess,win,5,left,15,guess_start,405,space,0,0,332,265400,1066187
33,19,female,Belg,2,57,guess,win,5,left,15,guess_choice,1718,f,0,0,332,263676,1067911
33,19,female,Belg,2,57,guess,win,5,left,15,guess_outcome,0,undefined,0,0,352,262116,1069471
33,19,female,Belg,2,57,ITC,win,5,left,15,ITC_start,312,space,0,0,352,261802,1069785
33,19,female,Belg,2,57,ITC,win,5,left,15,ITC_wait,0,undefined,0,0,352,260612,1070975
33,19,female,Belg,2,57,ITC,win,5,left,15,ITC_choice,1182,j,0,0,352,260617,1070970
33,19,female,Belg,2,57,ITC,win,5,left,15,ITC_collect,369,k,0,0,352,260242,1071345
33,19,female,Belg,2,57,ITC,win,5,left,15,ITC_outcome,0,undefined,0,0,367,259234,1072353
33,19,female,Belg,2,58,guess,neutral,5,left,7,guess_start,431,space,0,0,367,258799,1072788
33,19,female,Belg,2,58,guess,neutral,5,left,7,guess_choice,950,f,0,0,367,257845,1073742
33,19,female,Belg,2,58,guess,neutral,5,left,7,guess_outcome,0,undefined,0,0,367,256285,1075302
33,19,female,Belg,2,58,ITC,neutral,5,left,7,ITC_start,428,space,0,0,367,255854,1075733
33,19,female,Belg,2,58,ITC,neutral,5,left,7,ITC_choice,1146,j,0,0,367,254706,1076881
33,19,female,Belg,2,58,ITC,neutral,5,left,7,ITC_wait,0,undefined,0,0,367,254702,1076885
33,19,female,Belg,2,58,ITC,neutral,5,left,7,ITC_collect,349,k,0,0,367,254351,1077236
33,19,female,Belg,2,58,ITC,neutral,5,left,7,ITC_outcome,0,undefined,0,0,374,253343,1078244
33,19,female,Belg,2,59,guess,neutral,5,right,12,guess_start,441,space,0,0,374,252898,1078689
33,19,female,Belg,2,59,guess,neutral,5,right,12,guess_choice,1499,j,0,0,374,251396,1080191
33,19,female,Belg,2,59,guess,neutral,5,right,12,guess_outcome,0,undefined,0,0,374,249841,1081746
33,19,female,Belg,2,59,ITC,neutral,5,right,12,ITC_start,548,space,0,0,374,249290,1082297
33,19,female,Belg,2,59,ITC,neutral,5,right,12,ITC_choice,1872,f,0,0,374,247415,1084172
33,19,female,Belg,2,59,ITC,neutral,5,right,12,ITC_wait,0,undefined,0,0,374,247411,1084176
33,19,female,Belg,2,59,ITC,neutral,5,right,12,ITC_collect,890,k,0,0,374,246520,1085067
33,19,female,Belg,2,59,ITC,neutral,5,right,12,ITC_outcome,0,undefined,0,0,386,245512,1086075
33,19,female,Belg,2,60,guess,neutral,10,right,1,guess_start,3332,space,0,0,386,242176,1089411
33,19,female,Belg,2,60,guess,neutral,10,right,1,guess_choice,1045,j,0,0,386,241126,1090461
33,19,female,Belg,2,60,guess,neutral,10,right,1,guess_outcome,0,undefined,0,0,386,239565,1092022
33,19,female,Belg,2,60,ITC,neutral,10,right,1,ITC_start,3774,space,0,0,386,235789,1095798
33,19,female,Belg,2,60,ITC,neutral,10,right,1,ITC_choice,3084,f,0,0,386,232702,1098885
33,19,female,Belg,2,60,ITC,neutral,10,right,1,ITC_wait,0,undefined,0,0,386,232698,1098889
33,19,female,Belg,2,60,ITC,neutral,10,right,1,ITC_collect,414,k,0,0,386,232282,1099305
33,19,female,Belg,2,60,ITC,neutral,10,right,1,ITC_outcome,0,undefined,0,0,387,231275,1100312
33,19,female,Belg,2,61,guess,neutral,10,left,3,guess_start,623,space,0,0,387,230649,1100938
33,19,female,Belg,2,61,guess,neutral,10,left,3,guess_choice,948,f,0,0,387,229696,1101891
33,19,female,Belg,2,61,guess,neutral,10,left,3,guess_outcome,0,undefined,0,0,387,228139,1103448
33,19,female,Belg,2,61,ITC,neutral,10,left,3,ITC_start,1667,space,0,0,387,226470,1105117
33,19,female,Belg,2,61,ITC,neutral,10,left,3,ITC_choice,2921,j,0,0,387,223546,1108041
33,19,female,Belg,2,61,ITC,neutral,10,left,3,ITC_wait,0,undefined,0,0,387,223542,1108045
33,19,female,Belg,2,61,ITC,neutral,10,left,3,ITC_collect,1191,k,0,0,387,222350,1109237
33,19,female,Belg,2,61,ITC,neutral,10,left,3,ITC_outcome,0,undefined,0,0,390,221341,1110246
33,19,female,Belg,2,62,guess,loss,5,right,2,guess_start,528,space,0,0,390,220811,1110776
33,19,female,Belg,2,62,guess,loss,5,right,2,guess_choice,1231,f,0,0,390,219575,1112012
33,19,female,Belg,2,62,guess,loss,5,right,2,guess_outcome,0,undefined,0,0,375,218017,1113570
33,19,female,Belg,2,62,ITC,loss,5,right,2,ITC_start,548,space,0,0,375,217466,1114121
33,19,female,Belg,2,62,ITC,loss,5,right,2,ITC_choice,7815,f,0,0,375,209648,1121939
33,19,female,Belg,2,62,ITC,loss,5,right,2,ITC_wait,0,undefined,0,0,375,209644,1121943
33,19,female,Belg,2,62,ITC,loss,5,right,2,ITC_collect,823,k,0,0,375,208819,1122768
33,19,female,Belg,2,62,ITC,loss,5,right,2,ITC_outcome,0,undefined,0,0,377,207811,1123776
33,19,female,Belg,2,63,guess,neutral,5,right,10,guess_start,2836,space,0,0,377,204972,1126615
33,19,female,Belg,2,63,guess,neutral,5,right,10,guess_choice,876,f,0,0,377,204091,1127496
33,19,female,Belg,2,63,guess,neutral,5,right,10,guess_outcome,0,undefined,0,0,377,202532,1129055
33,19,female,Belg,2,63,ITC,neutral,5,right,10,ITC_start,511,space,0,0,377,202018,1129569
33,19,female,Belg,2,63,ITC,neutral,5,right,10,ITC_choice,1478,f,0,0,377,200536,1131051
33,19,female,Belg,2,63,ITC,neutral,5,right,10,ITC_wait,0,undefined,0,0,377,200532,1131055
33,19,female,Belg,2,63,ITC,neutral,5,right,10,ITC_collect,779,k,0,0,377,199752,1131835
33,19,female,Belg,2,63,ITC,neutral,5,right,10,ITC_outcome,0,undefined,0,0,387,198743,1132844
33,19,female,Belg,2,64,guess,loss,10,left,6,guess_start,408,space,0,0,387,198332,1133255
33,19,female,Belg,2,64,guess,loss,10,left,6,guess_choice,1640,j,0,0,387,196688,1134899
33,19,female,Belg,2,64,guess,loss,10,left,6,guess_outcome,0,undefined,0,0,372,195128,1136459
33,19,female,Belg,2,64,ITC,loss,10,left,6,ITC_start,452,space,0,0,372,194673,1136914
33,19,female,Belg,2,64,ITC,loss,10,left,6,ITC_choice,1240,j,0,0,372,193430,1138157
33,19,female,Belg,2,64,ITC,loss,10,left,6,ITC_wait,0,undefined,0,0,372,193426,1138161
33,19,female,Belg,2,64,ITC,loss,10,left,6,ITC_collect,581,k,0,0,372,192843,1138744
33,19,female,Belg,2,64,ITC,loss,10,left,6,ITC_outcome,0,undefined,0,0,378,191835,1139752
33,19,female,Belg,2,65,guess,neutral,5,left,1,guess_start,3257,space,0,0,378,188574,1143013
33,19,female,Belg,2,65,guess,neutral,5,left,1,guess_choice,904,f,0,0,378,187665,1143922
33,19,female,Belg,2,65,guess,neutral,5,left,1,guess_outcome,0,undefined,0,0,378,186106,1145481
33,19,female,Belg,2,65,ITC,neutral,5,left,1,ITC_start,1570,space,0,0,378,184532,1147055
33,19,female,Belg,2,65,ITC,neutral,5,left,1,ITC_choice,1524,j,0,0,378,183005,1148582
33,19,female,Belg,2,65,ITC,neutral,5,left,1,ITC_wait,0,undefined,0,0,378,183001,1148586
33,19,female,Belg,2,65,ITC,neutral,5,left,1,ITC_collect,239,k,0,0,378,182761,1148826
33,19,female,Belg,2,65,ITC,neutral,5,left,1,ITC_outcome,0,undefined,0,0,379,181753,1149834
33,19,female,Belg,2,66,guess,loss,10,right,2,guess_start,578,space,0,0,379,181171,1150416
33,19,female,Belg,2,66,guess,loss,10,right,2,guess_choice,999,j,0,0,379,180167,1151420
33,19,female,Belg,2,66,guess,loss,10,right,2,guess_outcome,0,undefined,0,0,364,178607,1152980
33,19,female,Belg,2,66,ITC,loss,10,right,2,ITC_start,495,space,0,0,364,178109,1153478
33,19,female,Belg,2,66,ITC,loss,10,right,2,ITC_choice,1200,f,0,0,364,176906,1154681
33,19,female,Belg,2,66,ITC,loss,10,right,2,ITC_wait,0,undefined,0,0,364,176902,1154685
33,19,female,Belg,2,66,ITC,loss,10,right,2,ITC_collect,583,k,0,0,364,176317,1155270
33,19,female,Belg,2,66,ITC,loss,10,right,2,ITC_outcome,0,undefined,0,0,366,175309,1156278
33,19,female,Belg,2,67,guess,win,5,right,12,guess_start,467,space,0,0,366,174838,1156749
33,19,female,Belg,2,67,guess,win,5,right,12,guess_choice,1016,f,0,0,366,173817,1157770
33,19,female,Belg,2,67,guess,win,5,right,12,guess_outcome,0,undefined,0,0,386,172257,1159330
33,19,female,Belg,2,67,ITC,win,5,right,12,ITC_start,550,space,0,0,386,171704,1159883
33,19,female,Belg,2,67,ITC,win,5,right,12,ITC_choice,1220,f,0,0,386,170481,1161106
33,19,female,Belg,2,67,ITC,win,5,right,12,ITC_wait,0,undefined,0,0,386,170477,1161110
33,19,female,Belg,2,67,ITC,win,5,right,12,ITC_collect,710,k,0,0,386,169766,1161821
33,19,female,Belg,2,67,ITC,win,5,right,12,ITC_outcome,0,undefined,0,0,398,168756,1162831
33,19,female,Belg,2,68,guess,neutral,5,right,11,guess_start,495,space,0,0,398,168257,1163330
33,19,female,Belg,2,68,guess,neutral,5,right,11,guess_choice,928,f,0,0,398,167324,1164263
33,19,female,Belg,2,68,guess,neutral,5,right,11,guess_outcome,0,undefined,0,0,398,165764,1165823
33,19,female,Belg,2,68,ITC,neutral,5,right,11,ITC_start,536,space,0,0,398,165225,1166362
33,19,female,Belg,2,68,ITC,neutral,5,right,11,ITC_choice,1988,f,0,0,398,163234,1168353
33,19,female,Belg,2,68,ITC,neutral,5,right,11,ITC_wait,0,undefined,0,0,398,163230,1168357
33,19,female,Belg,2,68,ITC,neutral,5,right,11,ITC_collect,453,k,0,0,398,162775,1168812
33,19,female,Belg,2,68,ITC,neutral,5,right,11,ITC_outcome,0,undefined,0,0,409,161767,1169820
33,19,female,Belg,2,69,guess,win,5,left,2,guess_start,781,space,0,0,409,160982,1170605
33,19,female,Belg,2,69,guess,win,5,left,2,guess_choice,1033,j,0,0,409,159944,1171643
33,19,female,Belg,2,69,guess,win,5,left,2,guess_outcome,0,undefined,0,0,429,158385,1173202
33,19,female,Belg,2,69,ITC,win,5,left,2,ITC_start,508,space,0,0,429,157874,1173713
33,19,female,Belg,2,69,ITC,win,5,left,2,ITC_choice,1437,j,0,0,429,156435,1175152
33,19,female,Belg,2,69,ITC,win,5,left,2,ITC_wait,0,undefined,0,0,429,156430,1175157
33,19,female,Belg,2,69,ITC,win,5,left,2,ITC_collect,345,k,0,0,429,156084,1175503
33,19,female,Belg,2,69,ITC,win,5,left,2,ITC_outcome,0,undefined,0,0,431,155076,1176511
33,19,female,Belg,2,70,guess,loss,10,right,8,guess_start,454,space,0,0,431,154618,1176969
33,19,female,Belg,2,70,guess,loss,10,right,8,guess_choice,1114,j,0,0,431,153499,1178088
33,19,female,Belg,2,70,guess,loss,10,right,8,guess_outcome,0,undefined,0,0,416,151940,1179647
33,19,female,Belg,2,70,ITC,loss,10,right,8,ITC_start,333,space,0,0,416,151603,1179984
33,19,female,Belg,2,70,ITC,loss,10,right,8,ITC_choice,1439,f,0,0,416,150161,1181426
33,19,female,Belg,2,70,ITC,loss,10,right,8,ITC_wait,0,undefined,0,0,416,150157,1181430
33,19,female,Belg,2,70,ITC,loss,10,right,8,ITC_collect,314,k,0,0,416,149842,1181745
33,19,female,Belg,2,70,ITC,loss,10,right,8,ITC_outcome,0,undefined,0,0,424,148834,1182753
33,19,female,Belg,2,71,guess,neutral,10,right,4,guess_start,380,space,0,0,424,148450,1183137
33,19,female,Belg,2,71,guess,neutral,10,right,4,guess_choice,758,f,0,0,424,147688,1183899
33,19,female,Belg,2,71,guess,neutral,10,right,4,guess_outcome,0,undefined,0,0,424,146130,1185457
33,19,female,Belg,2,71,ITC,neutral,10,right,4,ITC_start,506,space,0,0,424,145621,1185966
33,19,female,Belg,2,71,ITC,neutral,10,right,4,ITC_choice,1261,f,0,0,424,144358,1187229
33,19,female,Belg,2,71,ITC,neutral,10,right,4,ITC_wait,0,undefined,0,0,424,144353,1187234
33,19,female,Belg,2,71,ITC,neutral,10,right,4,ITC_collect,524,k,0,0,424,143827,1187760
33,19,female,Belg,2,71,ITC,neutral,10,right,4,ITC_outcome,0,undefined,0,0,428,142819,1188768
33,19,female,Belg,2,72,guess,loss,5,right,14,guess_start,598,space,0,0,428,142217,1189370
33,19,female,Belg,2,72,guess,loss,5,right,14,guess_choice,1303,j,0,0,428,140910,1190677
33,19,female,Belg,2,72,guess,loss,5,right,14,guess_outcome,0,undefined,0,0,413,139355,1192232
33,19,female,Belg,2,72,ITC,loss,5,right,14,ITC_start,620,space,0,0,413,138732,1192855
33,19,female,Belg,2,72,ITC,loss,5,right,14,ITC_choice,1536,f,0,0,413,137193,1194394
33,19,female,Belg,2,72,ITC,loss,5,right,14,ITC_wait,0,undefined,0,0,413,137187,1194400
33,19,female,Belg,2,72,ITC,loss,5,right,14,ITC_collect,1410,k,0,0,413,135776,1195811
33,19,female,Belg,2,72,ITC,loss,5,right,14,ITC_outcome,0,undefined,0,0,427,134768,1196819
33,19,female,Belg,2,73,guess,neutral,10,left,8,guess_start,468,space,0,0,427,134296,1197291
33,19,female,Belg,2,73,guess,neutral,10,left,8,guess_choice,1087,f,0,0,427,133205,1198382
33,19,female,Belg,2,73,guess,neutral,10,left,8,guess_outcome,0,undefined,0,0,427,131645,1199942
33,19,female,Belg,2,73,ITC,neutral,10,left,8,ITC_start,480,space,0,0,427,131163,1200424
33,19,female,Belg,2,73,ITC,neutral,10,left,8,ITC_choice,1309,j,0,0,427,129851,1201736
33,19,female,Belg,2,73,ITC,neutral,10,left,8,ITC_wait,0,undefined,0,0,427,129847,1201740
33,19,female,Belg,2,73,ITC,neutral,10,left,8,ITC_collect,405,k,0,0,427,129441,1202146
33,19,female,Belg,2,73,ITC,neutral,10,left,8,ITC_outcome,0,undefined,0,0,435,128432,1203155
33,19,female,Belg,2,74,guess,loss,5,right,4,guess_start,474,space,0,0,435,127955,1203632
33,19,female,Belg,2,74,guess,loss,5,right,4,guess_choice,1664,j,0,0,435,126286,1205301
33,19,female,Belg,2,74,guess,loss,5,right,4,guess_outcome,0,undefined,0,0,420,124727,1206860
33,19,female,Belg,2,74,ITC,loss,5,right,4,ITC_start,408,space,0,0,420,124316,1207271
33,19,female,Belg,2,74,ITC,loss,5,right,4,ITC_wait,0,undefined,0,0,420,122981,1208606
33,19,female,Belg,2,74,ITC,loss,5,right,4,ITC_choice,1328,f,0,0,420,122985,1208602
33,19,female,Belg,2,74,ITC,loss,5,right,4,ITC_collect,278,k,0,0,420,122700,1208887
33,19,female,Belg,2,74,ITC,loss,5,right,4,ITC_outcome,0,undefined,0,0,424,121695,1209892
33,19,female,Belg,2,75,guess,win,10,right,6,guess_start,408,space,0,0,424,121282,1210305
33,19,female,Belg,2,75,guess,win,10,right,6,guess_choice,783,f,0,0,424,120494,1211093
33,19,female,Belg,2,75,guess,win,10,right,6,guess_outcome,0,undefined,0,0,444,118935,1212652
33,19,female,Belg,2,75,ITC,win,10,right,6,ITC_start,469,space,0,0,444,118463,1213124
33,19,female,Belg,2,75,ITC,win,10,right,6,ITC_choice,1120,f,0,0,444,117340,1214247
33,19,female,Belg,2,75,ITC,win,10,right,6,ITC_wait,0,undefined,0,0,444,117336,1214251
33,19,female,Belg,2,75,ITC,win,10,right,6,ITC_collect,183,k,0,0,444,117152,1214435
33,19,female,Belg,2,75,ITC,win,10,right,6,ITC_outcome,0,undefined,0,0,450,116147,1215440
33,19,female,Belg,2,76,guess,loss,5,right,1,guess_start,403,space,0,0,450,115741,1215846
33,19,female,Belg,2,76,guess,loss,5,right,1,guess_choice,1344,f,0,0,450,114392,1217195
33,19,female,Belg,2,76,guess,loss,5,right,1,guess_outcome,0,undefined,0,0,435,112837,1218750
33,19,female,Belg,2,76,ITC,loss,5,right,1,ITC_start,315,space,0,0,435,112518,1219069
33,19,female,Belg,2,76,ITC,loss,5,right,1,ITC_choice,1868,f,0,0,435,110648,1220939
33,19,female,Belg,2,76,ITC,loss,5,right,1,ITC_wait,0,undefined,0,0,435,110643,1220944
33,19,female,Belg,2,76,ITC,loss,5,right,1,ITC_collect,147,k,0,0,435,110495,1221092
33,19,female,Belg,2,76,ITC,loss,5,right,1,ITC_outcome,0,undefined,0,0,436,109488,1222099
33,19,female,Belg,2,77,guess,neutral,10,right,6,guess_start,420,space,0,0,436,109065,1222522
33,19,female,Belg,2,77,guess,neutral,10,right,6,guess_choice,2980,f,0,0,436,106080,1225507
33,19,female,Belg,2,77,guess,neutral,10,right,6,guess_outcome,0,undefined,0,0,436,104518,1227069
33,19,female,Belg,2,77,ITC,neutral,10,right,6,ITC_start,605,space,0,0,436,103910,1227677
33,19,female,Belg,2,77,ITC,neutral,10,right,6,ITC_choice,1755,f,0,0,436,102152,1229435
33,19,female,Belg,2,77,ITC,neutral,10,right,6,ITC_wait,0,undefined,0,0,436,102148,1229439
33,19,female,Belg,2,77,ITC,neutral,10,right,6,ITC_collect,241,k,0,0,436,101906,1229681
33,19,female,Belg,2,77,ITC,neutral,10,right,6,ITC_outcome,0,undefined,0,0,442,100898,1230689
33,19,female,Belg,2,78,guess,loss,5,right,10,guess_start,259,space,0,0,442,100635,1230952
33,19,female,Belg,2,78,guess,loss,5,right,10,guess_choice,1362,f,0,0,442,99268,1232319
33,19,female,Belg,2,78,guess,loss,5,right,10,guess_outcome,0,undefined,0,0,427,97709,1233878
33,19,female,Belg,2,78,ITC,loss,5,right,10,ITC_start,535,space,0,0,427,97171,1234416
33,19,female,Belg,2,78,ITC,loss,5,right,10,ITC_choice,1149,f,0,0,427,96019,1235568
33,19,female,Belg,2,78,ITC,loss,5,right,10,ITC_wait,0,undefined,0,0,427,96015,1235572
33,19,female,Belg,2,78,ITC,loss,5,right,10,ITC_collect,213,k,0,0,427,95801,1235786
33,19,female,Belg,2,78,ITC,loss,5,right,10,ITC_outcome,0,undefined,0,0,437,94792,1236795
33,19,female,Belg,2,79,guess,neutral,5,left,4,guess_start,368,space,0,0,437,94421,1237166
33,19,female,Belg,2,79,guess,neutral,5,left,4,guess_choice,1024,f,0,0,437,93392,1238195
33,19,female,Belg,2,79,guess,neutral,5,left,4,guess_outcome,0,undefined,0,0,437,91832,1239755
33,19,female,Belg,2,79,ITC,neutral,5,left,4,ITC_start,897,space,0,0,437,90933,1240654
33,19,female,Belg,2,79,ITC,neutral,5,left,4,ITC_choice,1428,j,0,0,437,89502,1242085
33,19,female,Belg,2,79,ITC,neutral,5,left,4,ITC_wait,0,undefined,0,0,437,89497,1242090
33,19,female,Belg,2,79,ITC,neutral,5,left,4,ITC_collect,604,k,0,0,437,88891,1242696
33,19,female,Belg,2,79,ITC,neutral,5,left,4,ITC_outcome,0,undefined,0,0,441,87883,1243704
33,19,female,Belg,2,80,guess,neutral,10,right,2,guess_start,475,space,0,0,441,87404,1244183
33,19,female,Belg,2,80,guess,neutral,10,right,2,guess_choice,801,f,0,0,441,86598,1244989
33,19,female,Belg,2,80,guess,neutral,10,right,2,guess_outcome,0,undefined,0,0,441,85040,1246547
33,19,female,Belg,2,80,ITC,neutral,10,right,2,ITC_start,482,space,0,0,441,84555,1247032
33,19,female,Belg,2,80,ITC,neutral,10,right,2,ITC_choice,947,f,0,0,441,83605,1247982
33,19,female,Belg,2,80,ITC,neutral,10,right,2,ITC_wait,0,undefined,0,0,441,83601,1247986
33,19,female,Belg,2,80,ITC,neutral,10,right,2,ITC_collect,339,k,0,0,441,83260,1248327
33,19,female,Belg,2,80,ITC,neutral,10,right,2,ITC_outcome,0,undefined,0,0,443,82253,1249334
33,19,female,Belg,2,81,guess,loss,10,right,1,guess_start,411,space,0,0,443,81839,1249748
33,19,female,Belg,2,81,guess,loss,10,right,1,guess_choice,1359,j,0,0,443,80475,1251112
33,19,female,Belg,2,81,guess,loss,10,right,1,guess_outcome,0,undefined,0,0,428,78915,1252672
33,19,female,Belg,2,81,ITC,loss,10,right,1,ITC_start,326,space,0,0,428,78586,1253001
33,19,female,Belg,2,81,ITC,loss,10,right,1,ITC_choice,998,f,0,0,428,77585,1254002
33,19,female,Belg,2,81,ITC,loss,10,right,1,ITC_wait,0,undefined,0,0,428,77581,1254006
33,19,female,Belg,2,81,ITC,loss,10,right,1,ITC_collect,197,k,0,0,428,77382,1254205
33,19,female,Belg,2,81,ITC,loss,10,right,1,ITC_outcome,0,undefined,0,0,429,76376,1255211
33,19,female,Belg,2,82,guess,win,5,right,8,guess_start,296,space,0,0,429,76077,1255510
33,19,female,Belg,2,82,guess,win,5,right,8,guess_choice,691,f,0,0,429,75381,1256206
33,19,female,Belg,2,82,guess,win,5,right,8,guess_outcome,0,undefined,0,0,449,73826,1257761
33,19,female,Belg,2,82,ITC,win,5,right,8,ITC_start,443,space,0,0,449,73380,1258207
33,19,female,Belg,2,82,ITC,win,5,right,8,ITC_choice,606,f,0,0,449,72771,1258816
33,19,female,Belg,2,82,ITC,win,5,right,8,ITC_wait,0,undefined,0,0,449,72767,1258820
33,19,female,Belg,2,82,ITC,win,5,right,8,ITC_collect,219,k,0,0,449,72547,1259040
33,19,female,Belg,2,82,ITC,win,5,right,8,ITC_outcome,0,undefined,0,0,457,71542,1260045
33,19,female,Belg,2,83,guess,loss,10,left,3,guess_start,357,space,0,0,457,71181,1260406
33,19,female,Belg,2,83,guess,loss,10,left,3,guess_choice,1471,f,0,0,457,69706,1261881
33,19,female,Belg,2,83,guess,loss,10,left,3,guess_outcome,0,undefined,0,0,442,68148,1263439
33,19,female,Belg,2,83,ITC,loss,10,left,3,ITC_start,259,space,0,0,442,67886,1263701
33,19,female,Belg,2,83,ITC,loss,10,left,3,ITC_choice,1415,j,0,0,442,66468,1265119
33,19,female,Belg,2,83,ITC,loss,10,left,3,ITC_wait,0,undefined,0,0,442,66464,1265123
33,19,female,Belg,2,83,ITC,loss,10,left,3,ITC_collect,210,k,0,0,442,66253,1265334
33,19,female,Belg,2,83,ITC,loss,10,left,3,ITC_outcome,0,undefined,0,0,445,65244,1266343
33,19,female,Belg,2,84,guess,neutral,5,left,7,guess_start,496,space,0,0,445,64745,1266842
33,19,female,Belg,2,84,guess,neutral,5,left,7,guess_choice,883,f,0,0,445,63858,1267729
33,19,female,Belg,2,84,guess,neutral,5,left,7,guess_outcome,0,undefined,0,0,445,62300,1269287
33,19,female,Belg,2,84,ITC,neutral,5,left,7,ITC_start,368,space,0,0,445,61929,1269658
33,19,female,Belg,2,84,ITC,neutral,5,left,7,ITC_choice,1190,j,0,0,445,60736,1270851
33,19,female,Belg,2,84,ITC,neutral,5,left,7,ITC_wait,0,undefined,0,0,445,60732,1270855
33,19,female,Belg,2,84,ITC,neutral,5,left,7,ITC_collect,241,k,0,0,445,60489,1271098
33,19,female,Belg,2,84,ITC,neutral,5,left,7,ITC_outcome,0,undefined,0,0,452,59481,1272106
33,19,female,Belg,2,85,guess,loss,5,right,13,guess_start,369,space,0,0,452,59108,1272479
33,19,female,Belg,2,85,guess,loss,5,right,13,guess_choice,1458,f,0,0,452,57646,1273941
33,19,female,Belg,2,85,guess,loss,5,right,13,guess_outcome,0,undefined,0,0,437,56086,1275501
33,19,female,Belg,2,85,ITC,loss,5,right,13,ITC_start,326,space,0,0,437,55757,1275830
33,19,female,Belg,2,85,ITC,loss,5,right,13,ITC_choice,1376,f,0,0,437,54379,1277208
33,19,female,Belg,2,85,ITC,loss,5,right,13,ITC_wait,0,undefined,0,0,437,54374,1277213
33,19,female,Belg,2,85,ITC,loss,5,right,13,ITC_collect,207,k,0,0,437,54166,1277421
33,19,female,Belg,2,85,ITC,loss,5,right,13,ITC_outcome,0,undefined,0,0,450,53158,1278429
33,19,female,Belg,2,86,guess,loss,5,right,3,guess_start,380,space,0,0,450,52774,1278813
33,19,female,Belg,2,86,guess,loss,5,right,3,guess_choice,947,f,0,0,450,51822,1279765
33,19,female,Belg,2,86,guess,loss,5,right,3,guess_outcome,0,undefined,0,0,435,50264,1281323
33,19,female,Belg,2,86,ITC,loss,5,right,3,ITC_start,461,space,0,0,435,49800,1281787
33,19,female,Belg,2,86,ITC,loss,5,right,3,ITC_choice,1381,f,0,0,435,48416,1283171
33,19,female,Belg,2,86,ITC,loss,5,right,3,ITC_wait,0,undefined,0,0,435,48412,1283175
33,19,female,Belg,2,86,ITC,loss,5,right,3,ITC_collect,149,k,0,0,435,48262,1283325
33,19,female,Belg,2,86,ITC,loss,5,right,3,ITC_outcome,0,undefined,0,0,438,47258,1284329
33,19,female,Belg,2,87,guess,loss,5,left,12,guess_start,563,space,0,0,438,46691,1284896
33,19,female,Belg,2,87,guess,loss,5,left,12,guess_choice,380,j,0,0,438,46306,1285281
33,19,female,Belg,2,87,guess,loss,5,left,12,guess_outcome,0,undefined,0,0,423,44747,1286840
33,19,female,Belg,2,87,ITC,loss,5,left,12,ITC_start,104,space,0,0,423,44641,1286946
33,19,female,Belg,2,87,ITC,loss,5,left,12,ITC_wait,0,undefined,0,0,423,43615,1287972
33,19,female,Belg,2,87,ITC,loss,5,left,12,ITC_choice,1019,j,0,0,423,43619,1287968
33,19,female,Belg,2,87,ITC,loss,5,left,12,ITC_collect,221,k,0,0,423,43393,1288194
33,19,female,Belg,2,87,ITC,loss,5,left,12,ITC_outcome,0,undefined,0,0,435,42384,1289203
33,19,female,Belg,2,88,guess,win,5,left,11,guess_start,440,space,0,0,435,41941,1289646
33,19,female,Belg,2,88,guess,win,5,left,11,guess_choice,397,f,0,0,435,41538,1290049
33,19,female,Belg,2,88,guess,win,5,left,11,guess_outcome,0,undefined,0,0,455,39983,1291604
33,19,female,Belg,2,88,ITC,win,5,left,11,ITC_start,369,space,0,0,455,39611,1291976
33,19,female,Belg,2,88,ITC,win,5,left,11,ITC_choice,1251,j,0,0,455,38357,1293230
33,19,female,Belg,2,88,ITC,win,5,left,11,ITC_wait,0,undefined,0,0,455,38353,1293234
33,19,female,Belg,2,88,ITC,win,5,left,11,ITC_collect,198,k,0,0,455,38153,1293434
33,19,female,Belg,2,88,ITC,win,5,left,11,ITC_outcome,0,undefined,0,0,466,37145,1294442
33,19,female,Belg,2,89,guess,neutral,5,left,14,guess_start,518,space,0,0,466,36624,1294963
33,19,female,Belg,2,89,guess,neutral,5,left,14,guess_choice,1053,j,0,0,466,35566,1296021
33,19,female,Belg,2,89,guess,neutral,5,left,14,guess_outcome,0,undefined,0,0,466,34011,1297576
33,19,female,Belg,2,89,ITC,neutral,5,left,14,ITC_start,568,space,0,0,466,33440,1298147
33,19,female,Belg,2,89,ITC,neutral,5,left,14,ITC_choice,945,j,0,0,466,32492,1299095
33,19,female,Belg,2,89,ITC,neutral,5,left,14,ITC_wait,0,undefined,0,0,466,32488,1299099
33,19,female,Belg,2,89,ITC,neutral,5,left,14,ITC_collect,934,k,0,0,466,31552,1300035
33,19,female,Belg,2,89,ITC,neutral,5,left,14,ITC_outcome,0,undefined,0,0,480,30548,1301039
33,19,female,Belg,2,90,guess,loss,5,right,6,guess_start,454,space,0,0,480,30090,1301497
33,19,female,Belg,2,90,guess,loss,5,right,6,guess_choice,1100,j,0,0,480,28985,1302602
33,19,female,Belg,2,90,guess,loss,5,right,6,guess_outcome,0,undefined,0,0,465,27426,1304161
33,19,female,Belg,2,90,ITC,loss,5,right,6,ITC_start,270,space,0,0,465,27152,1304435
33,19,female,Belg,2,90,ITC,loss,5,right,6,ITC_choice,1513,f,0,0,465,25636,1305951
33,19,female,Belg,2,90,ITC,loss,5,right,6,ITC_wait,0,undefined,0,0,465,25632,1305955
33,19,female,Belg,2,90,ITC,loss,5,right,6,ITC_collect,173,k,0,0,465,25457,1306130
33,19,female,Belg,2,90,ITC,loss,5,right,6,ITC_outcome,0,undefined,0,0,471,24450,1307137
33,19,female,Belg,2,91,guess,neutral,5,left,3,guess_start,396,space,0,0,471,24051,1307536
33,19,female,Belg,2,91,guess,neutral,5,left,3,guess_choice,837,f,0,0,471,23209,1308378
33,19,female,Belg,2,91,guess,neutral,5,left,3,guess_outcome,0,undefined,0,0,471,21650,1309937
33,19,female,Belg,2,91,ITC,neutral,5,left,3,ITC_start,820,space,0,0,471,20826,1310761
33,19,female,Belg,2,91,ITC,neutral,5,left,3,ITC_choice,1145,j,0,0,471,19679,1311908
33,19,female,Belg,2,91,ITC,neutral,5,left,3,ITC_wait,0,undefined,0,0,471,19675,1311912
33,19,female,Belg,2,91,ITC,neutral,5,left,3,ITC_collect,204,k,0,0,471,19470,1312117
33,19,female,Belg,2,91,ITC,neutral,5,left,3,ITC_outcome,0,undefined,0,0,474,18464,1313123
33,19,female,Belg,2,92,guess,win,5,left,7,guess_start,399,space,0,0,474,18061,1313526
33,19,female,Belg,2,92,guess,win,5,left,7,guess_choice,1324,f,0,0,474,16732,1314855
33,19,female,Belg,2,92,guess,win,5,left,7,guess_outcome,0,undefined,0,0,494,15172,1316415
33,19,female,Belg,2,92,ITC,win,5,left,7,ITC_start,411,space,0,0,494,14758,1316829
33,19,female,Belg,2,92,ITC,win,5,left,7,ITC_choice,890,j,0,0,494,13865,1317722
33,19,female,Belg,2,92,ITC,win,5,left,7,ITC_wait,0,undefined,0,0,494,13861,1317726
33,19,female,Belg,2,92,ITC,win,5,left,7,ITC_collect,201,k,0,0,494,13658,1317929
33,19,female,Belg,2,92,ITC,win,5,left,7,ITC_outcome,0,undefined,0,0,501,12649,1318938
33,19,female,Belg,2,93,guess,loss,5,right,11,guess_start,432,space,0,0,501,12214,1319373
33,19,female,Belg,2,93,guess,loss,5,right,11,guess_choice,956,f,0,0,501,11253,1320334
33,19,female,Belg,2,93,guess,loss,5,right,11,guess_outcome,0,undefined,0,0,486,9693,1321894
33,19,female,Belg,2,93,ITC,loss,5,right,11,ITC_start,273,space,0,0,486,9417,1322170
33,19,female,Belg,2,93,ITC,loss,5,right,11,ITC_choice,929,f,0,0,486,8484,1323103
33,19,female,Belg,2,93,ITC,loss,5,right,11,ITC_wait,0,undefined,0,0,486,8480,1323107
33,19,female,Belg,2,93,ITC,loss,5,right,11,ITC_collect,173,k,0,0,486,8305,1323282
33,19,female,Belg,2,93,ITC,loss,5,right,11,ITC_outcome,0,undefined,0,0,497,7296,1324291
33,19,female,Belg,2,94,guess,win,5,left,2,guess_start,371,space,0,0,497,6921,1324666
33,19,female,Belg,2,94,guess,win,5,left,2,guess_choice,1038,f,0,0,497,5878,1325709
33,19,female,Belg,2,94,guess,win,5,left,2,guess_outcome,0,undefined,0,0,517,4323,1327264
33,19,female,Belg,2,94,ITC,win,5,left,2,ITC_start,470,space,0,0,517,3850,1327737
33,19,female,Belg,2,94,ITC,win,5,left,2,ITC_choice,1188,j,0,0,517,2660,1328927
33,19,female,Belg,2,94,ITC,win,5,left,2,ITC_wait,0,undefined,0,0,517,2655,1328932
33,19,female,Belg,2,94,ITC,win,5,left,2,ITC_collect,277,k,0,0,517,2377,1329210
33,19,female,Belg,2,94,ITC,win,5,left,2,ITC_outcome,0,undefined,0,0,519,1368,1330219
33,19,female,Belg,2,95,guess,neutral,10,left,1,guess_start,437,space,0,0,519,927,1330660
33,19,female,Belg,2,95,guess,neutral,10,left,1,guess_choice,0,undefined,0,0,519,-10,1331597
33,19,female,Belg,3,96,guess,neutral,10,left,3,guess_start,2845,space,0,0,0,477153,1341206
33,19,female,Belg,3,96,guess,neutral,10,left,3,guess_choice,846,f,0,0,0,476302,1342057
33,19,female,Belg,3,96,guess,neutral,10,left,3,guess_outcome,0,undefined,0,0,0,474742,1343617
33,19,female,Belg,3,96,ITC,neutral,10,left,3,ITC_start,547,space,0,0,0,474192,1344167
33,19,female,Belg,3,96,ITC,neutral,10,left,3,ITC_choice,1138,j,0,0,0,473051,1345308
33,19,female,Belg,3,96,ITC,neutral,10,left,3,ITC_wait,0,undefined,0,0,0,473047,1345312
33,19,female,Belg,3,96,ITC,neutral,10,left,3,ITC_collect,197,k,0,0,0,472849,1345510
33,19,female,Belg,3,96,ITC,neutral,10,left,3,ITC_outcome,0,undefined,0,0,3,471841,1346518
33,19,female,Belg,3,97,guess,neutral,5,right,1,guess_start,526,space,0,0,3,471312,1347047
33,19,female,Belg,3,97,guess,neutral,5,right,1,guess_choice,759,f,0,0,3,470548,1347811
33,19,female,Belg,3,97,guess,neutral,5,right,1,guess_outcome,0,undefined,0,0,3,468992,1349367
33,19,female,Belg,3,97,ITC,neutral,5,right,1,ITC_start,540,space,0,0,3,468448,1349911
33,19,female,Belg,3,97,ITC,neutral,5,right,1,ITC_choice,1577,f,0,0,3,466869,1351490
33,19,female,Belg,3,97,ITC,neutral,5,right,1,ITC_wait,0,undefined,0,0,3,466864,1351495
33,19,female,Belg,3,97,ITC,neutral,5,right,1,ITC_collect,155,k,0,0,3,466707,1351652
33,19,female,Belg,3,97,ITC,neutral,5,right,1,ITC_outcome,0,undefined,0,0,4,465699,1352660
33,19,female,Belg,3,98,guess,loss,5,right,2,guess_start,410,space,0,0,4,465285,1353074
33,19,female,Belg,3,98,guess,loss,5,right,2,guess_choice,1968,f,0,0,4,463313,1355046
33,19,female,Belg,3,98,guess,loss,5,right,2,guess_outcome,0,undefined,0,0,-11,461755,1356604
33,19,female,Belg,3,98,ITC,loss,5,right,2,ITC_start,517,space,0,0,-11,461235,1357124
33,19,female,Belg,3,98,ITC,loss,5,right,2,ITC_choice,1027,f,0,0,-11,460205,1358154
33,19,female,Belg,3,98,ITC,loss,5,right,2,ITC_wait,0,undefined,0,0,-11,460201,1358158
33,19,female,Belg,3,98,ITC,loss,5,right,2,ITC_collect,191,k,0,0,-11,460009,1358350
33,19,female,Belg,3,98,ITC,loss,5,right,2,ITC_outcome,0,undefined,0,0,-9,459003,1359356
33,19,female,Belg,3,99,guess,neutral,5,left,11,guess_start,402,space,0,0,-9,458597,1359762
33,19,female,Belg,3,99,guess,neutral,5,left,11,guess_choice,982,j,0,0,-9,457610,1360749
33,19,female,Belg,3,99,guess,neutral,5,left,11,guess_outcome,0,undefined,0,0,-9,456052,1362307
33,19,female,Belg,3,99,ITC,neutral,5,left,11,ITC_start,397,space,0,0,-9,455652,1362707
33,19,female,Belg,3,99,ITC,neutral,5,left,11,ITC_wait,0,undefined,0,0,-9,454180,1364179
33,19,female,Belg,3,99,ITC,neutral,5,left,11,ITC_choice,1464,j,0,0,-9,454185,1364174
33,19,female,Belg,3,99,ITC,neutral,5,left,11,ITC_collect,276,k,0,0,-9,453902,1364457
33,19,female,Belg,3,99,ITC,neutral,5,left,11,ITC_outcome,0,undefined,0,0,2,452896,1365463
33,19,female,Belg,3,100,guess,neutral,5,left,12,guess_start,456,space,0,0,2,452436,1365923
33,19,female,Belg,3,100,guess,neutral,5,left,12,guess_choice,654,f,0,0,2,451778,1366581
33,19,female,Belg,3,100,guess,neutral,5,left,12,guess_outcome,0,undefined,0,0,2,450218,1368141
33,19,female,Belg,3,100,ITC,neutral,5,left,12,ITC_start,3860,space,0,0,2,446355,1372004
33,19,female,Belg,3,100,ITC,neutral,5,left,12,ITC_choice,964,j,0,0,2,445388,1372971
33,19,female,Belg,3,100,ITC,neutral,5,left,12,ITC_wait,0,undefined,0,0,2,445383,1372976
33,19,female,Belg,3,100,ITC,neutral,5,left,12,ITC_collect,242,k,0,0,2,445140,1373219
33,19,female,Belg,3,100,ITC,neutral,5,left,12,ITC_outcome,0,undefined,0,0,14,444132,1374227
33,19,female,Belg,3,101,guess,loss,10,right,6,guess_start,2459,space,0,0,14,441670,1376689
33,19,female,Belg,3,101,guess,loss,10,right,6,guess_choice,756,f,0,0,14,440909,1377450
33,19,female,Belg,3,101,guess,loss,10,right,6,guess_outcome,0,undefined,0,0,-1,439349,1379010
33,19,female,Belg,3,101,ITC,loss,10,right,6,ITC_start,201,space,0,0,-1,439145,1379214
33,19,female,Belg,3,101,ITC,loss,10,right,6,ITC_choice,1908,f,0,0,-1,437234,1381125
33,19,female,Belg,3,101,ITC,loss,10,right,6,ITC_wait,0,undefined,0,0,-1,437230,1381129
33,19,female,Belg,3,101,ITC,loss,10,right,6,ITC_collect,185,k,0,0,-1,437043,1381316
33,19,female,Belg,3,101,ITC,loss,10,right,6,ITC_outcome,0,undefined,0,0,5,436034,1382325
33,19,female,Belg,3,102,guess,win,5,right,12,guess_start,503,space,0,0,5,435528,1382831
33,19,female,Belg,3,102,guess,win,5,right,12,guess_choice,987,j,0,0,5,434536,1383823
33,19,female,Belg,3,102,guess,win,5,right,12,guess_outcome,0,undefined,0,0,25,432976,1385383
33,19,female,Belg,3,102,ITC,win,5,right,12,ITC_start,455,space,0,0,25,432519,1385840
33,19,female,Belg,3,102,ITC,win,5,right,12,ITC_choice,924,f,0,0,25,431592,1386767
33,19,female,Belg,3,102,ITC,win,5,right,12,ITC_wait,0,undefined,0,0,25,431588,1386771
33,19,female,Belg,3,102,ITC,win,5,right,12,ITC_collect,171,k,0,0,25,431415,1386944
33,19,female,Belg,3,102,ITC,win,5,right,12,ITC_outcome,0,undefined,0,0,37,430406,1387953
33,19,female,Belg,3,103,guess,win,10,left,2,guess_start,327,space,0,0,37,430076,1388283
33,19,female,Belg,3,103,guess,win,10,left,2,guess_choice,1251,f,0,0,37,428820,1389539
33,19,female,Belg,3,103,guess,win,10,left,2,guess_outcome,0,undefined,0,0,57,427260,1391099
33,19,female,Belg,3,103,ITC,win,10,left,2,ITC_start,418,space,0,0,57,426838,1391521
33,19,female,Belg,3,103,ITC,win,10,left,2,ITC_choice,1344,j,0,0,57,425491,1392868
33,19,female,Belg,3,103,ITC,win,10,left,2,ITC_wait,0,undefined,0,0,57,425487,1392872
33,19,female,Belg,3,103,ITC,win,10,left,2,ITC_collect,255,k,0,0,57,425231,1393128
33,19,female,Belg,3,103,ITC,win,10,left,2,ITC_outcome,0,undefined,0,0,59,424221,1394138
33,19,female,Belg,3,104,guess,win,5,left,3,guess_start,510,space,0,0,59,423707,1394652
33,19,female,Belg,3,104,guess,win,5,left,3,guess_choice,1897,j,0,0,59,421805,1396554
33,19,female,Belg,3,104,guess,win,5,left,3,guess_outcome,0,undefined,0,0,79,420246,1398113
33,19,female,Belg,3,104,ITC,win,5,left,3,ITC_start,1105,space,0,0,79,419137,1399222
33,19,female,Belg,3,104,ITC,win,5,left,3,ITC_choice,1203,j,0,0,79,417931,1400428
33,19,female,Belg,3,104,ITC,win,5,left,3,ITC_wait,0,undefined,0,0,79,417927,1400432
33,19,female,Belg,3,104,ITC,win,5,left,3,ITC_collect,206,k,0,0,79,417719,1400640
33,19,female,Belg,3,104,ITC,win,5,left,3,ITC_outcome,0,undefined,0,0,82,416711,1401648
33,19,female,Belg,3,105,guess,win,5,left,6,guess_start,422,space,0,0,82,416284,1402075
33,19,female,Belg,3,105,guess,win,5,left,6,guess_choice,676,f,0,0,82,415604,1402755
33,19,female,Belg,3,105,guess,win,5,left,6,guess_outcome,0,undefined,0,0,102,414044,1404315
33,19,female,Belg,3,105,ITC,win,5,left,6,ITC_start,406,space,0,0,102,413635,1404724
33,19,female,Belg,3,105,ITC,win,5,left,6,ITC_wait,0,undefined,0,0,102,412744,1405615
33,19,female,Belg,3,105,ITC,win,5,left,6,ITC_choice,883,j,0,0,102,412748,1405611
33,19,female,Belg,3,105,ITC,win,5,left,6,ITC_collect,183,k,0,0,102,412559,1405800
33,19,female,Belg,3,105,ITC,win,5,left,6,ITC_outcome,0,undefined,0,0,108,411551,1406808
33,19,female,Belg,3,106,guess,loss,10,left,8,guess_start,402,space,0,0,108,411144,1407215
33,19,female,Belg,3,106,guess,loss,10,left,8,guess_choice,704,f,0,0,108,410435,1407924
33,19,female,Belg,3,106,guess,loss,10,left,8,guess_outcome,0,undefined,0,0,93,408875,1409484
33,19,female,Belg,3,106,ITC,loss,10,left,8,ITC_start,284,space,0,0,93,408588,1409771
33,19,female,Belg,3,106,ITC,loss,10,left,8,ITC_choice,759,j,0,0,93,407826,1410533
33,19,female,Belg,3,106,ITC,loss,10,left,8,ITC_wait,0,undefined,0,0,93,407822,1410537
33,19,female,Belg,3,106,ITC,loss,10,left,8,ITC_collect,212,k,0,0,93,407608,1410751
33,19,female,Belg,3,106,ITC,loss,10,left,8,ITC_outcome,0,undefined,0,0,101,406600,1411759
33,19,female,Belg,3,107,guess,win,10,right,7,guess_start,365,space,0,0,101,406231,1412128
33,19,female,Belg,3,107,guess,win,10,right,7,guess_choice,1121,f,0,0,101,405105,1413254
33,19,female,Belg,3,107,guess,win,10,right,7,guess_outcome,0,undefined,0,0,121,403548,1414811
33,19,female,Belg,3,107,ITC,win,10,right,7,ITC_start,411,space,0,0,121,403133,1415226
33,19,female,Belg,3,107,ITC,win,10,right,7,ITC_choice,1083,f,0,0,121,402048,1416311
33,19,female,Belg,3,107,ITC,win,10,right,7,ITC_wait,0,undefined,0,0,121,402043,1416316
33,19,female,Belg,3,107,ITC,win,10,right,7,ITC_collect,181,k,0,0,121,401860,1416499
33,19,female,Belg,3,107,ITC,win,10,right,7,ITC_outcome,0,undefined,0,0,128,400852,1417507
33,19,female,Belg,3,108,guess,loss,5,left,8,guess_start,394,space,0,0,128,400454,1417905
33,19,female,Belg,3,108,guess,loss,5,left,8,guess_choice,1410,f,0,0,128,399039,1419320
33,19,female,Belg,3,108,guess,loss,5,left,8,guess_outcome,0,undefined,0,0,113,397480,1420879
33,19,female,Belg,3,108,ITC,loss,5,left,8,ITC_start,296,space,0,0,113,397181,1421178
33,19,female,Belg,3,108,ITC,loss,5,left,8,ITC_choice,890,j,0,0,113,396288,1422071
33,19,female,Belg,3,108,ITC,loss,5,left,8,ITC_wait,0,undefined,0,0,113,396284,1422075
33,19,female,Belg,3,108,ITC,loss,5,left,8,ITC_collect,207,k,0,0,113,396076,1422283
33,19,female,Belg,3,108,ITC,loss,5,left,8,ITC_outcome,0,undefined,0,0,121,395067,1423292
33,19,female,Belg,3,109,guess,neutral,10,left,5,guess_start,416,space,0,0,121,394648,1423711
33,19,female,Belg,3,109,guess,neutral,10,left,5,guess_choice,979,j,0,0,121,393664,1424695
33,19,female,Belg,3,109,guess,neutral,10,left,5,guess_outcome,0,undefined,0,0,121,392104,1426255
33,19,female,Belg,3,109,ITC,neutral,10,left,5,ITC_start,487,space,0,0,121,391614,1426745
33,19,female,Belg,3,109,ITC,neutral,10,left,5,ITC_wait,0,undefined,0,0,121,390701,1427658
33,19,female,Belg,3,109,ITC,neutral,10,left,5,ITC_choice,906,j,0,0,121,390705,1427654
33,19,female,Belg,3,109,ITC,neutral,10,left,5,ITC_collect,251,k,0,0,121,390449,1427910
33,19,female,Belg,3,109,ITC,neutral,10,left,5,ITC_outcome,0,undefined,0,0,126,389440,1428919
33,19,female,Belg,3,110,guess,win,10,left,1,guess_start,407,space,0,0,126,389028,1429331
33,19,female,Belg,3,110,guess,win,10,left,1,guess_choice,1069,j,0,0,126,387955,1430404
33,19,female,Belg,3,110,guess,win,10,left,1,guess_outcome,0,undefined,0,0,146,386398,1431961
33,19,female,Belg,3,110,ITC,win,10,left,1,ITC_start,612,space,0,0,146,385783,1432576
33,19,female,Belg,3,110,ITC,win,10,left,1,ITC_choice,739,j,0,0,146,385041,1433318
33,19,female,Belg,3,110,ITC,win,10,left,1,ITC_wait,0,undefined,0,0,146,385038,1433321
33,19,female,Belg,3,110,ITC,win,10,left,1,ITC_collect,208,k,0,0,146,384829,1433530
33,19,female,Belg,3,110,ITC,win,10,left,1,ITC_outcome,0,undefined,0,0,147,383820,1434539
33,19,female,Belg,3,111,guess,win,5,right,9,guess_start,382,space,0,0,147,383435,1434924
33,19,female,Belg,3,111,guess,win,5,right,9,guess_choice,764,f,0,0,147,382666,1435693
33,19,female,Belg,3,111,guess,win,5,right,9,guess_outcome,0,undefined,0,0,167,381107,1437252
33,19,female,Belg,3,111,ITC,win,5,right,9,ITC_start,492,space,0,0,167,380612,1437747
33,19,female,Belg,3,111,ITC,win,5,right,9,ITC_choice,852,f,0,0,167,379757,1438602
33,19,female,Belg,3,111,ITC,win,5,right,9,ITC_wait,0,undefined,0,0,167,379753,1438606
33,19,female,Belg,3,111,ITC,win,5,right,9,ITC_collect,181,k,0,0,167,379571,1438788
33,19,female,Belg,3,111,ITC,win,5,right,9,ITC_outcome,0,undefined,0,0,176,378564,1439795
33,19,female,Belg,3,112,guess,neutral,5,left,15,guess_start,379,space,0,0,176,378179,1440180
33,19,female,Belg,3,112,guess,neutral,5,left,15,guess_choice,1001,j,0,0,176,377174,1441185
33,19,female,Belg,3,112,guess,neutral,5,left,15,guess_outcome,0,undefined,0,0,176,375620,1442739
33,19,female,Belg,3,112,ITC,neutral,5,left,15,ITC_start,308,space,0,0,176,375308,1443051
33,19,female,Belg,3,112,ITC,neutral,5,left,15,ITC_choice,883,j,0,0,176,374422,1443937
33,19,female,Belg,3,112,ITC,neutral,5,left,15,ITC_wait,0,undefined,0,0,176,374418,1443941
33,19,female,Belg,3,112,ITC,neutral,5,left,15,ITC_collect,220,k,0,0,176,374196,1444163
33,19,female,Belg,3,112,ITC,neutral,5,left,15,ITC_outcome,0,undefined,0,0,191,373188,1445171
33,19,female,Belg,3,113,guess,loss,5,right,9,guess_start,389,space,0,0,191,372795,1445564
33,19,female,Belg,3,113,guess,loss,5,right,9,guess_choice,958,f,0,0,191,371832,1446527
33,19,female,Belg,3,113,guess,loss,5,right,9,guess_outcome,0,undefined,0,0,176,370273,1448086
33,19,female,Belg,3,113,ITC,loss,5,right,9,ITC_start,394,space,0,0,176,369875,1448484
33,19,female,Belg,3,113,ITC,loss,5,right,9,ITC_choice,1122,f,0,0,176,368750,1449609
33,19,female,Belg,3,113,ITC,loss,5,right,9,ITC_wait,0,undefined,0,0,176,368746,1449613
33,19,female,Belg,3,113,ITC,loss,5,right,9,ITC_collect,164,k,0,0,176,368580,1449779
33,19,female,Belg,3,113,ITC,loss,5,right,9,ITC_outcome,0,undefined,0,0,185,367572,1450787
33,19,female,Belg,3,114,guess,win,5,right,14,guess_start,421,space,0,0,185,367146,1451213
33,19,female,Belg,3,114,guess,win,5,right,14,guess_choice,823,j,0,0,185,366318,1452041
33,19,female,Belg,3,114,guess,win,5,right,14,guess_outcome,0,undefined,0,0,205,364759,1453600
33,19,female,Belg,3,114,ITC,win,5,right,14,ITC_start,436,space,0,0,205,364320,1454039
33,19,female,Belg,3,114,ITC,win,5,right,14,ITC_choice,789,f,0,0,205,363529,1454830
33,19,female,Belg,3,114,ITC,win,5,right,14,ITC_wait,0,undefined,0,0,205,363525,1454834
33,19,female,Belg,3,114,ITC,win,5,right,14,ITC_collect,225,k,0,0,205,363298,1455061
33,19,female,Belg,3,114,ITC,win,5,right,14,ITC_outcome,0,undefined,0,0,219,362290,1456069
33,19,female,Belg,3,115,guess,win,10,left,3,guess_start,344,space,0,0,219,361942,1456417
33,19,female,Belg,3,115,guess,win,10,left,3,guess_choice,640,f,0,0,219,361298,1457061
33,19,female,Belg,3,115,guess,win,10,left,3,guess_outcome,0,undefined,0,0,239,359737,1458622
33,19,female,Belg,3,115,ITC,win,10,left,3,ITC_start,442,space,0,0,239,359292,1459067
33,19,female,Belg,3,115,ITC,win,10,left,3,ITC_wait,0,undefined,0,0,239,358535,1459824
33,19,female,Belg,3,115,ITC,win,10,left,3,ITC_choice,749,j,0,0,239,358539,1459820
33,19,female,Belg,3,115,ITC,win,10,left,3,ITC_collect,216,k,0,0,239,358317,1460042
33,19,female,Belg,3,115,ITC,win,10,left,3,ITC_outcome,0,undefined,0,0,242,357308,1461051
33,19,female,Belg,3,116,guess,neutral,5,left,16,guess_start,404,space,0,0,242,356900,1461459
33,19,female,Belg,3,116,guess,neutral,5,left,16,guess_choice,823,f,0,0,242,356072,1462287
33,19,female,Belg,3,116,guess,neutral,5,left,16,guess_outcome,0,undefined,0,0,242,354516,1463843
33,19,female,Belg,3,116,ITC,neutral,5,left,16,ITC_start,505,space,0,0,242,354008,1464351
33,19,female,Belg,3,116,ITC,neutral,5,left,16,ITC_choice,1134,j,0,0,242,352871,1465488
33,19,female,Belg,3,116,ITC,neutral,5,left,16,ITC_wait,0,undefined,0,0,242,352867,1465492
33,19,female,Belg,3,116,ITC,neutral,5,left,16,ITC_collect,192,k,0,0,242,352673,1465686
33,19,female,Belg,3,116,ITC,neutral,5,left,16,ITC_outcome,0,undefined,0,0,258,351666,1466693
33,19,female,Belg,3,117,guess,loss,10,left,4,guess_start,495,space,0,0,258,351167,1467192
33,19,female,Belg,3,117,guess,loss,10,left,4,guess_choice,853,j,0,0,258,350310,1468049
33,19,female,Belg,3,117,guess,loss,10,left,4,guess_outcome,0,undefined,0,0,243,348750,1469609
33,19,female,Belg,3,117,ITC,loss,10,left,4,ITC_start,309,space,0,0,243,348437,1469922
33,19,female,Belg,3,117,ITC,loss,10,left,4,ITC_choice,833,j,0,0,243,347601,1470758
33,19,female,Belg,3,117,ITC,loss,10,left,4,ITC_wait,0,undefined,0,0,243,347597,1470762
33,19,female,Belg,3,117,ITC,loss,10,left,4,ITC_collect,212,k,0,0,243,347384,1470975
33,19,female,Belg,3,117,ITC,loss,10,left,4,ITC_outcome,0,undefined,0,0,247,346379,1471980
33,19,female,Belg,3,118,guess,loss,5,right,5,guess_start,345,space,0,0,247,346029,1472330
33,19,female,Belg,3,118,guess,loss,5,right,5,guess_choice,640,f,0,0,247,345384,1472975
33,19,female,Belg,3,118,guess,loss,5,right,5,guess_outcome,0,undefined,0,0,232,343825,1474534
33,19,female,Belg,3,118,ITC,loss,5,right,5,ITC_start,356,space,0,0,232,343466,1474893
33,19,female,Belg,3,118,ITC,loss,5,right,5,ITC_choice,867,f,0,0,232,342596,1475763
33,19,female,Belg,3,118,ITC,loss,5,right,5,ITC_wait,0,undefined,0,0,232,342591,1475768
33,19,female,Belg,3,118,ITC,loss,5,right,5,ITC_collect,211,k,0,0,232,342378,1475981
33,19,female,Belg,3,118,ITC,loss,5,right,5,ITC_outcome,0,undefined,0,0,237,341374,1476985
33,19,female,Belg,3,119,guess,neutral,5,left,8,guess_start,422,space,0,0,237,340949,1477410
33,19,female,Belg,3,119,guess,neutral,5,left,8,guess_choice,845,j,0,0,237,340099,1478260
33,19,female,Belg,3,119,guess,neutral,5,left,8,guess_outcome,0,undefined,0,0,237,338543,1479816
33,19,female,Belg,3,119,ITC,neutral,5,left,8,ITC_start,525,space,0,0,237,338015,1480344
33,19,female,Belg,3,119,ITC,neutral,5,left,8,ITC_choice,1589,j,0,0,237,336423,1481936
33,19,female,Belg,3,119,ITC,neutral,5,left,8,ITC_wait,0,undefined,0,0,237,336419,1481940
33,19,female,Belg,3,119,ITC,neutral,5,left,8,ITC_collect,194,k,0,0,237,336223,1482136
33,19,female,Belg,3,119,ITC,neutral,5,left,8,ITC_outcome,0,undefined,0,0,245,335214,1483145
33,19,female,Belg,3,120,guess,loss,10,left,5,guess_start,333,space,0,0,245,334876,1483483
33,19,female,Belg,3,120,guess,loss,10,left,5,guess_choice,799,f,0,0,245,334072,1484287
33,19,female,Belg,3,120,guess,loss,10,left,5,guess_outcome,0,undefined,0,0,230,332516,1485843
33,19,female,Belg,3,120,ITC,loss,10,left,5,ITC_start,360,space,0,0,230,332153,1486206
33,19,female,Belg,3,120,ITC,loss,10,left,5,ITC_choice,670,j,0,0,230,331481,1486878
33,19,female,Belg,3,120,ITC,loss,10,left,5,ITC_wait,0,undefined,0,0,230,331477,1486882
33,19,female,Belg,3,120,ITC,loss,10,left,5,ITC_collect,223,k,0,0,230,331252,1487107
33,19,female,Belg,3,120,ITC,loss,10,left,5,ITC_outcome,0,undefined,0,0,235,330243,1488116
33,19,female,Belg,3,121,guess,win,10,right,8,guess_start,364,space,0,0,235,329876,1488483
33,19,female,Belg,3,121,guess,win,10,right,8,guess_choice,869,j,0,0,235,329002,1489357
33,19,female,Belg,3,121,guess,win,10,right,8,guess_outcome,0,undefined,0,0,255,327443,1490916
33,19,female,Belg,3,121,ITC,win,10,right,8,ITC_start,675,space,0,0,255,326765,1491594
33,19,female,Belg,3,121,ITC,win,10,right,8,ITC_choice,1079,f,0,0,255,325683,1492676
33,19,female,Belg,3,121,ITC,win,10,right,8,ITC_wait,0,undefined,0,0,255,325678,1492681
33,19,female,Belg,3,121,ITC,win,10,right,8,ITC_collect,189,k,0,0,255,325488,1492871
33,19,female,Belg,3,121,ITC,win,10,right,8,ITC_outcome,0,undefined,0,0,263,324480,1493879
33,19,female,Belg,3,122,guess,win,5,right,10,guess_start,385,space,0,0,263,324092,1494267
33,19,female,Belg,3,122,guess,win,5,right,10,guess_choice,600,f,0,0,263,323487,1494872
33,19,female,Belg,3,122,guess,win,5,right,10,guess_outcome,0,undefined,0,0,283,321932,1496427
33,19,female,Belg,3,122,ITC,win,5,right,10,ITC_start,422,space,0,0,283,321507,1496852
33,19,female,Belg,3,122,ITC,win,5,right,10,ITC_choice,959,f,0,0,283,320545,1497814
33,19,female,Belg,3,122,ITC,win,5,right,10,ITC_wait,0,undefined,0,0,283,320541,1497818
33,19,female,Belg,3,122,ITC,win,5,right,10,ITC_collect,170,k,0,0,283,320370,1497989
33,19,female,Belg,3,122,ITC,win,5,right,10,ITC_outcome,0,undefined,0,0,293,319367,1498992
33,19,female,Belg,3,123,guess,neutral,5,right,2,guess_start,358,space,0,0,293,319005,1499354
33,19,female,Belg,3,123,guess,neutral,5,right,2,guess_choice,916,f,0,0,293,318084,1500275
33,19,female,Belg,3,123,guess,neutral,5,right,2,guess_outcome,0,undefined,0,0,293,316528,1501831
33,19,female,Belg,3,123,ITC,neutral,5,right,2,ITC_start,664,space,0,0,293,315860,1502499
33,19,female,Belg,3,123,ITC,neutral,5,right,2,ITC_choice,1057,f,0,0,293,314801,1503558
33,19,female,Belg,3,123,ITC,neutral,5,right,2,ITC_wait,0,undefined,0,0,293,314797,1503562
33,19,female,Belg,3,123,ITC,neutral,5,right,2,ITC_collect,143,k,0,0,293,314652,1503707
33,19,female,Belg,3,123,ITC,neutral,5,right,2,ITC_outcome,0,undefined,0,0,295,313643,1504716
33,19,female,Belg,3,124,guess,neutral,10,left,4,guess_start,463,space,0,0,295,313176,1505183
33,19,female,Belg,3,124,guess,neutral,10,left,4,guess_choice,976,j,0,0,295,312195,1506164
33,19,female,Belg,3,124,guess,neutral,10,left,4,guess_outcome,0,undefined,0,0,295,310635,1507724
33,19,female,Belg,3,124,ITC,neutral,10,left,4,ITC_start,530,space,0,0,295,310101,1508258
33,19,female,Belg,3,124,ITC,neutral,10,left,4,ITC_choice,1046,j,0,0,295,309052,1509307
33,19,female,Belg,3,124,ITC,neutral,10,left,4,ITC_wait,0,undefined,0,0,295,309048,1509311
33,19,female,Belg,3,124,ITC,neutral,10,left,4,ITC_collect,208,k,0,0,295,308838,1509521
33,19,female,Belg,3,124,ITC,neutral,10,left,4,ITC_outcome,0,undefined,0,0,299,307834,1510525
33,19,female,Belg,3,125,guess,neutral,10,right,7,guess_start,656,space,0,0,299,307174,1511185
33,19,female,Belg,3,125,guess,neutral,10,right,7,guess_choice,816,j,0,0,299,306353,1512006
33,19,female,Belg,3,125,guess,neutral,10,right,7,guess_outcome,0,undefined,0,0,299,304795,1513564
33,19,female,Belg,3,125,ITC,neutral,10,right,7,ITC_start,790,space,0,0,299,304002,1514357
33,19,female,Belg,3,125,ITC,neutral,10,right,7,ITC_choice,885,f,0,0,299,303114,1515245
33,19,female,Belg,3,125,ITC,neutral,10,right,7,ITC_wait,0,undefined,0,0,299,303109,1515250
33,19,female,Belg,3,125,ITC,neutral,10,right,7,ITC_collect,162,k,0,0,299,302945,1515414
33,19,female,Belg,3,125,ITC,neutral,10,right,7,ITC_outcome,0,undefined,0,0,306,301938,1516421
33,19,female,Belg,3,126,guess,loss,10,right,7,guess_start,259,space,0,0,306,301675,1516684
33,19,female,Belg,3,126,guess,loss,10,right,7,guess_choice,730,f,0,0,306,300941,1517418
33,19,female,Belg,3,126,guess,loss,10,right,7,guess_outcome,0,undefined,0,0,291,299384,1518975
33,19,female,Belg,3,126,ITC,loss,10,right,7,ITC_start,163,space,0,0,291,299218,1519141
33,19,female,Belg,3,126,ITC,loss,10,right,7,ITC_wait,0,undefined,0,0,291,298150,1520209
33,19,female,Belg,3,126,ITC,loss,10,right,7,ITC_choice,1060,f,0,0,291,298154,1520205
33,19,female,Belg,3,126,ITC,loss,10,right,7,ITC_collect,181,k,0,0,291,297968,1520391
33,19,female,Belg,3,126,ITC,loss,10,right,7,ITC_outcome,0,undefined,0,0,298,296961,1521398
33,19,female,Belg,3,127,guess,win,5,right,15,guess_start,390,space,0,0,298,296568,1521791
33,19,female,Belg,3,127,guess,win,5,right,15,guess_choice,2060,j,0,0,298,294505,1523854
33,19,female,Belg,3,127,guess,win,5,right,15,guess_outcome,0,undefined,0,0,318,292945,1525414
33,19,female,Belg,3,127,ITC,win,5,right,15,ITC_start,822,space,0,0,318,292119,1526240
33,19,female,Belg,3,127,ITC,win,5,right,15,ITC_choice,1045,f,0,0,318,291071,1527288
33,19,female,Belg,3,127,ITC,win,5,right,15,ITC_wait,0,undefined,0,0,318,291066,1527293
33,19,female,Belg,3,127,ITC,win,5,right,15,ITC_collect,171,k,0,0,318,290894,1527465
33,19,female,Belg,3,127,ITC,win,5,right,15,ITC_outcome,0,undefined,0,0,333,289885,1528474
33,19,female,Belg,3,128,guess,loss,5,left,16,guess_start,378,space,0,0,333,289504,1528855
33,19,female,Belg,3,128,guess,loss,5,left,16,guess_choice,612,f,0,0,333,288887,1529472
33,19,female,Belg,3,128,guess,loss,5,left,16,guess_outcome,0,undefined,0,0,318,287330,1531029
33,19,female,Belg,3,128,ITC,loss,5,left,16,ITC_start,288,space,0,0,318,287039,1531320
33,19,female,Belg,3,128,ITC,loss,5,left,16,ITC_choice,806,j,0,0,318,286229,1532130
33,19,female,Belg,3,128,ITC,loss,5,left,16,ITC_wait,0,undefined,0,0,318,286225,1532134
33,19,female,Belg,3,128,ITC,loss,5,left,16,ITC_collect,182,k,0,0,318,286041,1532318
33,19,female,Belg,3,128,ITC,loss,5,left,16,ITC_outcome,0,undefined,0,0,334,285033,1533326
33,19,female,Belg,3,129,guess,win,5,left,16,guess_start,368,space,0,0,334,284661,1533698
33,19,female,Belg,3,129,guess,win,5,left,16,guess_choice,833,j,0,0,334,283823,1534536
33,19,female,Belg,3,129,guess,win,5,left,16,guess_outcome,0,undefined,0,0,354,282263,1536096
33,19,female,Belg,3,129,ITC,win,5,left,16,ITC_start,452,space,0,0,354,281808,1536551
33,19,female,Belg,3,129,ITC,win,5,left,16,ITC_choice,658,j,0,0,354,281147,1537212
33,19,female,Belg,3,129,ITC,win,5,left,16,ITC_wait,0,undefined,0,0,354,281143,1537216
33,19,female,Belg,3,129,ITC,win,5,left,16,ITC_collect,226,k,0,0,354,280915,1537444
33,19,female,Belg,3,129,ITC,win,5,left,16,ITC_outcome,0,undefined,0,0,370,279907,1538452
33,19,female,Belg,3,130,guess,win,5,right,5,guess_start,341,space,0,0,370,279562,1538797
33,19,female,Belg,3,130,guess,win,5,right,5,guess_choice,648,j,0,0,370,278908,1539451
33,19,female,Belg,3,130,guess,win,5,right,5,guess_outcome,0,undefined,0,0,390,277351,1541008
33,19,female,Belg,3,130,ITC,win,5,right,5,ITC_start,310,space,0,0,390,277038,1541321
33,19,female,Belg,3,130,ITC,win,5,right,5,ITC_choice,686,f,0,0,390,276349,1542010
33,19,female,Belg,3,130,ITC,win,5,right,5,ITC_wait,0,undefined,0,0,390,276345,1542014
33,19,female,Belg,3,130,ITC,win,5,right,5,ITC_collect,173,k,0,0,390,276170,1542189
33,19,female,Belg,3,130,ITC,win,5,right,5,ITC_outcome,0,undefined,0,0,395,275165,1543194
33,19,female,Belg,3,131,guess,win,10,right,4,guess_start,266,space,0,0,395,274895,1543464
33,19,female,Belg,3,131,guess,win,10,right,4,guess_choice,548,f,0,0,395,274342,1544017
33,19,female,Belg,3,131,guess,win,10,right,4,guess_outcome,0,undefined,0,0,415,272782,1545577
33,19,female,Belg,3,131,ITC,win,10,right,4,ITC_start,445,space,0,0,415,272335,1546024
33,19,female,Belg,3,131,ITC,win,10,right,4,ITC_choice,674,f,0,0,415,271658,1546701
33,19,female,Belg,3,131,ITC,win,10,right,4,ITC_wait,0,undefined,0,0,415,271654,1546705
33,19,female,Belg,3,131,ITC,win,10,right,4,ITC_collect,144,k,0,0,415,271508,1546851
33,19,female,Belg,3,131,ITC,win,10,right,4,ITC_outcome,0,undefined,0,0,419,270500,1547859
33,19,female,Belg,3,132,guess,loss,10,left,2,guess_start,406,space,0,0,419,270091,1548268
33,19,female,Belg,3,132,guess,loss,10,left,2,guess_choice,634,j,0,0,419,269452,1548907
33,19,female,Belg,3,132,guess,loss,10,left,2,guess_outcome,0,undefined,0,0,404,267892,1550467
33,19,female,Belg,3,132,ITC,loss,10,left,2,ITC_start,414,space,0,0,404,267475,1550884
33,19,female,Belg,3,132,ITC,loss,10,left,2,ITC_choice,677,j,0,0,404,266795,1551564
33,19,female,Belg,3,132,ITC,loss,10,left,2,ITC_wait,0,undefined,0,0,404,266791,1551568
33,19,female,Belg,3,132,ITC,loss,10,left,2,ITC_collect,197,k,0,0,404,266592,1551767
33,19,female,Belg,3,132,ITC,loss,10,left,2,ITC_outcome,0,undefined,0,0,406,265584,1552775
33,19,female,Belg,3,133,guess,win,5,left,1,guess_start,350,space,0,0,406,265230,1553129
33,19,female,Belg,3,133,guess,win,5,left,1,guess_choice,508,j,0,0,406,264716,1553643
33,19,female,Belg,3,133,guess,win,5,left,1,guess_outcome,0,undefined,0,0,426,263159,1555200
33,19,female,Belg,3,133,ITC,win,5,left,1,ITC_start,428,space,0,0,426,262728,1555631
33,19,female,Belg,3,133,ITC,win,5,left,1,ITC_wait,0,undefined,0,0,426,261794,1556565
33,19,female,Belg,3,133,ITC,win,5,left,1,ITC_choice,927,j,0,0,426,261798,1556561
33,19,female,Belg,3,133,ITC,win,5,left,1,ITC_collect,197,k,0,0,426,261595,1556764
33,19,female,Belg,3,133,ITC,win,5,left,1,ITC_outcome,0,undefined,0,0,427,260587,1557772
33,19,female,Belg,3,134,guess,neutral,5,right,10,guess_start,268,space,0,0,427,260315,1558044
33,19,female,Belg,3,134,guess,neutral,5,right,10,guess_choice,996,j,0,0,427,259314,1559045
33,19,female,Belg,3,134,guess,neutral,5,right,10,guess_outcome,0,undefined,0,0,427,257754,1560605
33,19,female,Belg,3,134,ITC,neutral,5,right,10,ITC_start,565,space,0,0,427,257188,1561171
33,19,female,Belg,3,134,ITC,neutral,5,right,10,ITC_choice,776,f,0,0,427,256408,1561951
33,19,female,Belg,3,134,ITC,neutral,5,right,10,ITC_wait,0,undefined,0,0,427,256405,1561954
33,19,female,Belg,3,134,ITC,neutral,5,right,10,ITC_collect,175,k,0,0,427,256228,1562131
33,19,female,Belg,3,134,ITC,neutral,5,right,10,ITC_outcome,0,undefined,0,0,437,255220,1563139
33,19,female,Belg,3,135,guess,loss,5,left,14,guess_start,337,space,0,0,437,254879,1563480
33,19,female,Belg,3,135,guess,loss,5,left,14,guess_choice,600,f,0,0,437,254273,1564086
33,19,female,Belg,3,135,guess,loss,5,left,14,guess_outcome,0,undefined,0,0,422,252713,1565646
33,19,female,Belg,3,135,ITC,loss,5,left,14,ITC_start,399,space,0,0,422,252311,1566048
33,19,female,Belg,3,135,ITC,loss,5,left,14,ITC_wait,0,undefined,0,0,422,251463,1566896
33,19,female,Belg,3,135,ITC,loss,5,left,14,ITC_choice,840,j,0,0,422,251468,1566891
33,19,female,Belg,3,135,ITC,loss,5,left,14,ITC_collect,222,k,0,0,422,251240,1567119
33,19,female,Belg,3,135,ITC,loss,5,left,14,ITC_outcome,0,undefined,0,0,436,250232,1568127
33,19,female,Belg,3,136,guess,neutral,5,left,5,guess_start,428,space,0,0,436,249800,1568559
33,19,female,Belg,3,136,guess,neutral,5,left,5,guess_choice,1306,f,0,0,436,248490,1569869
33,19,female,Belg,3,136,guess,neutral,5,left,5,guess_outcome,0,undefined,0,0,436,246934,1571425
33,19,female,Belg,3,136,ITC,neutral,5,left,5,ITC_start,668,space,0,0,436,246263,1572096
33,19,female,Belg,3,136,ITC,neutral,5,left,5,ITC_choice,970,j,0,0,436,245291,1573068
33,19,female,Belg,3,136,ITC,neutral,5,left,5,ITC_wait,0,undefined,0,0,436,245286,1573073
33,19,female,Belg,3,136,ITC,neutral,5,left,5,ITC_collect,201,k,0,0,436,245084,1573275
33,19,female,Belg,3,136,ITC,neutral,5,left,5,ITC_outcome,0,undefined,0,0,441,244076,1574283
33,19,female,Belg,3,137,guess,neutral,5,left,13,guess_start,332,space,0,0,441,243741,1574618
33,19,female,Belg,3,137,guess,neutral,5,left,13,guess_choice,872,j,0,0,441,242865,1575494
33,19,female,Belg,3,137,guess,neutral,5,left,13,guess_outcome,0,undefined,0,0,441,241306,1577053
33,19,female,Belg,3,137,ITC,neutral,5,left,13,ITC_start,404,space,0,0,441,240899,1577460
33,19,female,Belg,3,137,ITC,neutral,5,left,13,ITC_choice,750,j,0,0,441,240145,1578214
33,19,female,Belg,3,137,ITC,neutral,5,left,13,ITC_wait,0,undefined,0,0,441,240140,1578219
33,19,female,Belg,3,137,ITC,neutral,5,left,13,ITC_collect,227,k,0,0,441,239912,1578447
33,19,female,Belg,3,137,ITC,neutral,5,left,13,ITC_outcome,0,undefined,0,0,454,238905,1579454
33,19,female,Belg,3,138,guess,win,5,left,13,guess_start,484,space,0,0,454,238417,1579942
33,19,female,Belg,3,138,guess,win,5,left,13,guess_choice,736,f,0,0,454,237677,1580682
33,19,female,Belg,3,138,guess,win,5,left,13,guess_outcome,0,undefined,0,0,474,236117,1582242
33,19,female,Belg,3,138,ITC,win,5,left,13,ITC_start,407,space,0,0,474,235706,1582653
33,19,female,Belg,3,138,ITC,win,5,left,13,ITC_choice,609,j,0,0,474,235095,1583264
33,19,female,Belg,3,138,ITC,win,5,left,13,ITC_wait,0,undefined,0,0,474,235091,1583268
33,19,female,Belg,3,138,ITC,win,5,left,13,ITC_collect,205,k,0,0,474,234884,1583475
33,19,female,Belg,3,138,ITC,win,5,left,13,ITC_outcome,0,undefined,0,0,487,233876,1584483
33,19,female,Belg,3,139,guess,neutral,5,left,9,guess_start,399,space,0,0,487,233473,1584886
33,19,female,Belg,3,139,guess,neutral,5,left,9,guess_choice,589,f,0,0,487,232879,1585480
33,19,female,Belg,3,139,guess,neutral,5,left,9,guess_outcome,0,undefined,0,0,487,231318,1587041
33,19,female,Belg,3,139,ITC,neutral,5,left,9,ITC_start,452,space,0,0,487,230863,1587496
33,19,female,Belg,3,139,ITC,neutral,5,left,9,ITC_choice,980,j,0,0,487,229880,1588479
33,19,female,Belg,3,139,ITC,neutral,5,left,9,ITC_wait,0,undefined,0,0,487,229876,1588483
33,19,female,Belg,3,139,ITC,neutral,5,left,9,ITC_collect,206,k,0,0,487,229668,1588691
33,19,female,Belg,3,139,ITC,neutral,5,left,9,ITC_outcome,0,undefined,0,0,496,228660,1589699
33,19,female,Belg,3,140,guess,loss,5,right,15,guess_start,343,space,0,0,496,228314,1590045
33,19,female,Belg,3,140,guess,loss,5,right,15,guess_choice,640,f,0,0,496,227669,1590690
33,19,female,Belg,3,140,guess,loss,5,right,15,guess_outcome,0,undefined,0,0,481,226110,1592249
33,19,female,Belg,3,140,ITC,loss,5,right,15,ITC_start,66,space,0,0,481,226040,1592319
33,19,female,Belg,3,140,ITC,loss,5,right,15,ITC_choice,1259,f,0,0,481,224778,1593581
33,19,female,Belg,3,140,ITC,loss,5,right,15,ITC_wait,0,undefined,0,0,481,224774,1593585
33,19,female,Belg,3,140,ITC,loss,5,right,15,ITC_collect,188,k,0,0,481,224585,1593774
33,19,female,Belg,3,140,ITC,loss,5,right,15,ITC_outcome,0,undefined,0,0,496,223580,1594779
33,19,female,Belg,3,141,guess,win,5,right,4,guess_start,291,space,0,0,496,223285,1595074
33,19,female,Belg,3,141,guess,win,5,right,4,guess_choice,1214,f,0,0,496,222065,1596294
33,19,female,Belg,3,141,guess,win,5,right,4,guess_outcome,0,undefined,0,0,516,220507,1597852
33,19,female,Belg,3,141,ITC,win,5,right,4,ITC_start,420,space,0,0,516,220084,1598275
33,19,female,Belg,3,141,ITC,win,5,right,4,ITC_choice,884,f,0,0,516,219196,1599163
33,19,female,Belg,3,141,ITC,win,5,right,4,ITC_wait,0,undefined,0,0,516,219192,1599167
33,19,female,Belg,3,141,ITC,win,5,right,4,ITC_collect,157,k,0,0,516,219034,1599325
33,19,female,Belg,3,141,ITC,win,5,right,4,ITC_outcome,0,undefined,0,0,520,218026,1600333
33,19,female,Belg,3,142,guess,loss,5,left,7,guess_start,378,space,0,0,520,217644,1600715
33,19,female,Belg,3,142,guess,loss,5,left,7,guess_choice,1081,j,0,0,520,216558,1601801
33,19,female,Belg,3,142,guess,loss,5,left,7,guess_outcome,0,undefined,0,0,505,215000,1603359
33,19,female,Belg,3,142,ITC,loss,5,left,7,ITC_start,429,space,0,0,505,214567,1603792
33,19,female,Belg,3,142,ITC,loss,5,left,7,ITC_choice,766,j,0,0,505,213798,1604561
33,19,female,Belg,3,142,ITC,loss,5,left,7,ITC_wait,0,undefined,0,0,505,213794,1604565
33,19,female,Belg,3,142,ITC,loss,5,left,7,ITC_collect,215,k,0,0,505,213578,1604781
33,19,female,Belg,3,142,ITC,loss,5,left,7,ITC_outcome,0,undefined,0,0,512,212573,1605786
33,19,female,Belg,3,143,guess,win,10,left,5,guess_start,394,space,0,0,512,212175,1606184
33,19,female,Belg,3,143,guess,win,10,left,5,guess_choice,482,f,0,0,512,211689,1606670
33,19,female,Belg,3,143,guess,win,10,left,5,guess_outcome,0,undefined,0,0,532,210129,1608230
33,19,female,Belg,3,143,ITC,win,10,left,5,ITC_start,431,space,0,0,532,209696,1608663
33,19,female,Belg,3,143,ITC,win,10,left,5,ITC_choice,876,j,0,0,532,208817,1609542
33,19,female,Belg,3,143,ITC,win,10,left,5,ITC_wait,0,undefined,0,0,532,208812,1609547
33,19,female,Belg,3,143,ITC,win,10,left,5,ITC_collect,229,k,0,0,532,208582,1609777
33,19,female,Belg,3,143,ITC,win,10,left,5,ITC_outcome,0,undefined,0,0,537,207574,1610785
33,19,female,Belg,3,144,guess,neutral,5,right,6,guess_start,488,space,0,0,537,207082,1611277
33,19,female,Belg,3,144,guess,neutral,5,right,6,guess_choice,1027,j,0,0,537,206050,1612309
33,19,female,Belg,3,144,guess,neutral,5,right,6,guess_outcome,0,undefined,0,0,537,204490,1613869
33,19,female,Belg,3,144,ITC,neutral,5,right,6,ITC_start,522,space,0,0,537,203964,1614395
33,19,female,Belg,3,144,ITC,neutral,5,right,6,ITC_choice,1003,f,0,0,537,202958,1615401
33,19,female,Belg,3,144,ITC,neutral,5,right,6,ITC_wait,0,undefined,0,0,537,202953,1615406
33,19,female,Belg,3,144,ITC,neutral,5,right,6,ITC_collect,179,k,0,0,537,202772,1615587
33,19,female,Belg,3,144,ITC,neutral,5,right,6,ITC_outcome,0,undefined,0,0,543,201764,1616595
33,19,female,Belg,3,145,guess,neutral,5,right,9,guess_start,306,space,0,0,543,201453,1616906
33,19,female,Belg,3,145,guess,neutral,5,right,9,guess_choice,623,f,0,0,543,200825,1617534
33,19,female,Belg,3,145,guess,neutral,5,right,9,guess_outcome,0,undefined,0,0,543,199265,1619094
33,19,female,Belg,3,145,ITC,neutral,5,right,9,ITC_start,530,space,0,0,543,198732,1619627
