subjectID,age,gender,nationality,block_number,trial_number,trial_type,guess_outcome,delay_time,delay_pos,immediate_amount,stage,respRT,respKey,blur_count,focus_count,total_points,remaining_duration,time_elapsed
20,18,female,Belg,1,1,guess,neutral,5,right,3,guess_start,2388,space,0,0,0,477611,329402
20,18,female,Belg,1,1,guess,neutral,5,right,3,guess_choice,1896,j,0,0,0,475712,331301
20,18,female,Belg,1,1,guess,neutral,5,right,3,guess_outcome,0,undefined,0,0,0,474154,332859
20,18,female,Belg,1,1,ITC,neutral,5,right,3,ITC_start,3544,space,0,0,0,470609,336404
20,18,female,Belg,1,1,ITC,neutral,5,right,3,ITC_choice,2763,j,0,0,0,467845,339168
20,18,female,Belg,1,1,ITC,neutral,5,right,3,ITC_wait,0,undefined,0,0,0,462836,344177
20,18,female,Belg,1,1,ITC,neutral,5,right,3,ITC_collect,2199,k,0,0,0,460636,346377
20,18,female,Belg,1,1,ITC,neutral,5,right,3,ITC_outcome,0,undefined,0,0,20,459621,347392
20,18,female,Belg,1,2,guess,loss,5,right,11,guess_start,1783,space,0,0,20,457835,349178
20,18,female,Belg,1,2,guess,loss,5,right,11,guess_choice,1452,f,0,0,20,456382,350631
20,18,female,Belg,1,2,guess,loss,5,right,11,guess_outcome,0,undefined,0,0,5,454829,352184
20,18,female,Belg,1,2,ITC,loss,5,right,11,ITC_start,1422,space,0,0,5,453405,353608
20,18,female,Belg,1,2,ITC,loss,5,right,11,ITC_choice,1600,f,0,0,5,451804,355209
20,18,female,Belg,1,2,ITC,loss,5,right,11,ITC_wait,0,undefined,0,0,5,451802,355211
20,18,female,Belg,1,2,ITC,loss,5,right,11,ITC_collect,2940,k,0,0,5,448861,358152
20,18,female,Belg,1,2,ITC,loss,5,right,11,ITC_outcome,0,undefined,0,0,16,447848,359165
20,18,female,Belg,1,3,guess,neutral,10,left,3,guess_start,1464,space,0,0,16,446382,360631
20,18,female,Belg,1,3,guess,neutral,10,left,3,guess_choice,1209,f,0,0,16,445171,361842
20,18,female,Belg,1,3,guess,neutral,10,left,3,guess_outcome,0,undefined,0,0,16,443614,363399
20,18,female,Belg,1,3,ITC,neutral,10,left,3,ITC_start,895,space,0,0,16,442718,364295
20,18,female,Belg,1,3,ITC,neutral,10,left,3,ITC_choice,2841,f,0,0,16,439875,367138
20,18,female,Belg,1,3,ITC,neutral,10,left,3,ITC_wait,0,undefined,0,0,16,429870,377143
20,18,female,Belg,1,3,ITC,neutral,10,left,3,ITC_collect,830,k,0,0,16,429038,377975
20,18,female,Belg,1,3,ITC,neutral,10,left,3,ITC_outcome,0,undefined,0,0,36,428023,378990
20,18,female,Belg,1,4,guess,win,5,right,11,guess_start,1893,space,0,0,36,426129,380884
20,18,female,Belg,1,4,guess,win,5,right,11,guess_choice,1506,j,0,0,36,424622,382391
20,18,female,Belg,1,4,guess,win,5,right,11,guess_outcome,0,undefined,0,0,56,423059,383954
20,18,female,Belg,1,4,ITC,win,5,right,11,ITC_start,1571,space,0,0,56,421487,385526
20,18,female,Belg,1,4,ITC,win,5,right,11,ITC_choice,1919,f,0,0,56,419567,387446
20,18,female,Belg,1,4,ITC,win,5,right,11,ITC_wait,0,undefined,0,0,56,419564,387449
20,18,female,Belg,1,4,ITC,win,5,right,11,ITC_collect,4391,k,0,0,56,415172,391841
20,18,female,Belg,1,4,ITC,win,5,right,11,ITC_outcome,0,undefined,0,0,67,414156,392857
20,18,female,Belg,1,5,guess,neutral,5,left,8,guess_start,1689,space,0,0,67,412465,394548
20,18,female,Belg,1,5,guess,neutral,5,left,8,guess_choice,1015,f,0,0,67,411448,395565
20,18,female,Belg,1,5,guess,neutral,5,left,8,guess_outcome,0,undefined,0,0,67,409896,397117
20,18,female,Belg,1,5,ITC,neutral,5,left,8,ITC_start,4057,space,0,0,67,405838,401175
20,18,female,Belg,1,5,ITC,neutral,5,left,8,ITC_choice,2301,f,0,0,67,403536,403477
20,18,female,Belg,1,5,ITC,neutral,5,left,8,ITC_wait,0,undefined,0,0,67,398533,408480
20,18,female,Belg,1,5,ITC,neutral,5,left,8,ITC_collect,983,k,0,0,67,397548,409465
20,18,female,Belg,1,5,ITC,neutral,5,left,8,ITC_outcome,0,undefined,0,0,87,396538,410475
20,18,female,Belg,1,6,guess,win,5,right,12,guess_start,880,space,0,0,87,395656,411357
20,18,female,Belg,1,6,guess,win,5,right,12,guess_choice,1130,f,0,0,87,394525,412488
20,18,female,Belg,1,6,guess,win,5,right,12,guess_outcome,0,undefined,0,0,107,392961,414052
20,18,female,Belg,1,6,ITC,win,5,right,12,ITC_start,1031,space,0,0,107,391929,415084
20,18,female,Belg,1,6,ITC,win,5,right,12,ITC_choice,1184,f,0,0,107,390745,416268
20,18,female,Belg,1,6,ITC,win,5,right,12,ITC_wait,0,undefined,0,0,107,390742,416271
20,18,female,Belg,1,6,ITC,win,5,right,12,ITC_collect,2728,k,0,0,107,388013,419000
20,18,female,Belg,1,6,ITC,win,5,right,12,ITC_outcome,0,undefined,0,0,119,387006,420007
20,18,female,Belg,1,7,guess,win,5,right,4,guess_start,590,space,0,0,119,386413,420600
20,18,female,Belg,1,7,guess,win,5,right,4,guess_choice,901,f,0,0,119,385511,421502
20,18,female,Belg,1,7,guess,win,5,right,4,guess_outcome,0,undefined,0,0,139,383949,423064
20,18,female,Belg,1,7,ITC,win,5,right,4,ITC_start,874,space,0,0,139,383073,423940
20,18,female,Belg,1,7,ITC,win,5,right,4,ITC_choice,2024,j,0,0,139,381049,425964
20,18,female,Belg,1,7,ITC,win,5,right,4,ITC_wait,0,undefined,0,0,139,376041,430972
20,18,female,Belg,1,7,ITC,win,5,right,4,ITC_collect,1124,k,0,0,139,374916,432097
20,18,female,Belg,1,7,ITC,win,5,right,4,ITC_outcome,0,undefined,0,0,159,373906,433107
20,18,female,Belg,1,8,guess,loss,5,right,8,guess_start,1072,space,0,0,159,372833,434180
20,18,female,Belg,1,8,guess,loss,5,right,8,guess_choice,1329,f,0,0,159,371501,435512
20,18,female,Belg,1,8,guess,loss,5,right,8,guess_outcome,0,undefined,0,0,144,369933,437080
20,18,female,Belg,1,8,ITC,loss,5,right,8,ITC_start,645,space,0,0,144,369287,437726
20,18,female,Belg,1,8,ITC,loss,5,right,8,ITC_choice,1624,j,0,0,144,367662,439351
20,18,female,Belg,1,8,ITC,loss,5,right,8,ITC_wait,0,undefined,0,0,144,362650,444363
20,18,female,Belg,1,8,ITC,loss,5,right,8,ITC_collect,1054,k,0,0,144,361594,445419
20,18,female,Belg,1,8,ITC,loss,5,right,8,ITC_outcome,0,undefined,0,0,164,360586,446427
20,18,female,Belg,1,9,guess,neutral,10,left,2,guess_start,732,space,0,0,164,359852,447161
20,18,female,Belg,1,9,guess,neutral,10,left,2,guess_choice,1092,j,0,0,164,358758,448255
20,18,female,Belg,1,9,guess,neutral,10,left,2,guess_outcome,0,undefined,0,0,164,357196,449817
20,18,female,Belg,1,9,ITC,neutral,10,left,2,ITC_start,863,space,0,0,164,356332,450681
20,18,female,Belg,1,9,ITC,neutral,10,left,2,ITC_choice,2228,f,0,0,164,354103,452910
20,18,female,Belg,1,9,ITC,neutral,10,left,2,ITC_wait,0,undefined,0,0,164,344093,462920
20,18,female,Belg,1,9,ITC,neutral,10,left,2,ITC_collect,401,k,0,0,164,343691,463322
20,18,female,Belg,1,9,ITC,neutral,10,left,2,ITC_outcome,0,undefined,0,0,184,342675,464338
20,18,female,Belg,1,10,guess,neutral,5,right,13,guess_start,812,space,0,0,184,341862,465151
20,18,female,Belg,1,10,guess,neutral,5,right,13,guess_choice,712,j,0,0,184,341148,465865
20,18,female,Belg,1,10,guess,neutral,5,right,13,guess_outcome,0,undefined,0,0,184,339582,467431
20,18,female,Belg,1,10,ITC,neutral,5,right,13,ITC_start,1114,space,0,0,184,338466,468547
20,18,female,Belg,1,10,ITC,neutral,5,right,13,ITC_choice,757,f,0,0,184,337708,469305
20,18,female,Belg,1,10,ITC,neutral,5,right,13,ITC_wait,0,undefined,0,0,184,337705,469308
20,18,female,Belg,1,10,ITC,neutral,5,right,13,ITC_collect,1207,k,0,0,184,336497,470516
20,18,female,Belg,1,10,ITC,neutral,5,right,13,ITC_outcome,0,undefined,0,0,197,335484,471529
20,18,female,Belg,1,11,guess,loss,5,right,1,guess_start,1718,space,0,0,197,333764,473249
20,18,female,Belg,1,11,guess,loss,5,right,1,guess_choice,942,f,0,0,197,332821,474192
20,18,female,Belg,1,11,guess,loss,5,right,1,guess_outcome,0,undefined,0,0,182,331262,475751
20,18,female,Belg,1,11,ITC,loss,5,right,1,ITC_start,1406,space,0,0,182,329855,477158
20,18,female,Belg,1,11,ITC,loss,5,right,1,ITC_choice,1362,j,0,0,182,328492,478521
20,18,female,Belg,1,11,ITC,loss,5,right,1,ITC_wait,0,undefined,0,0,182,323488,483525
20,18,female,Belg,1,11,ITC,loss,5,right,1,ITC_collect,875,k,0,0,182,322611,484402
20,18,female,Belg,1,11,ITC,loss,5,right,1,ITC_outcome,0,undefined,0,0,202,321604,485409
20,18,female,Belg,1,12,guess,loss,5,right,15,guess_start,1183,space,0,0,202,320419,486594
20,18,female,Belg,1,12,guess,loss,5,right,15,guess_choice,902,j,0,0,202,319516,487497
20,18,female,Belg,1,12,guess,loss,5,right,15,guess_outcome,0,undefined,0,0,187,317961,489052
20,18,female,Belg,1,12,ITC,loss,5,right,15,ITC_start,747,space,0,0,187,317213,489800
20,18,female,Belg,1,12,ITC,loss,5,right,15,ITC_choice,1964,f,0,0,187,315247,491766
20,18,female,Belg,1,12,ITC,loss,5,right,15,ITC_wait,0,undefined,0,0,187,315246,491767
20,18,female,Belg,1,12,ITC,loss,5,right,15,ITC_collect,4585,k,0,0,187,310659,496354
20,18,female,Belg,1,12,ITC,loss,5,right,15,ITC_outcome,0,undefined,0,0,202,309653,497360
20,18,female,Belg,1,13,guess,loss,10,right,8,guess_start,972,space,0,0,202,308680,498333
20,18,female,Belg,1,13,guess,loss,10,right,8,guess_choice,780,f,0,0,202,307897,499116
20,18,female,Belg,1,13,guess,loss,10,right,8,guess_outcome,0,undefined,0,0,187,306343,500670
20,18,female,Belg,1,13,ITC,loss,10,right,8,ITC_start,1310,space,0,0,187,305032,501981
20,18,female,Belg,1,13,ITC,loss,10,right,8,ITC_choice,1379,j,0,0,187,303652,503361
20,18,female,Belg,1,13,ITC,loss,10,right,8,ITC_wait,0,undefined,0,0,187,293644,513369
20,18,female,Belg,1,13,ITC,loss,10,right,8,ITC_collect,796,k,0,0,187,292847,514166
20,18,female,Belg,1,13,ITC,loss,10,right,8,ITC_outcome,0,undefined,0,0,207,291838,515175
20,18,female,Belg,1,14,guess,neutral,10,left,1,guess_start,630,space,0,0,207,291206,515807
20,18,female,Belg,1,14,guess,neutral,10,left,1,guess_choice,949,j,0,0,207,290255,516758
20,18,female,Belg,1,14,guess,neutral,10,left,1,guess_outcome,0,undefined,0,0,207,288695,518318
20,18,female,Belg,1,14,ITC,neutral,10,left,1,ITC_start,738,space,0,0,207,287956,519057
20,18,female,Belg,1,14,ITC,neutral,10,left,1,ITC_choice,1681,f,0,0,207,286275,520738
20,18,female,Belg,1,14,ITC,neutral,10,left,1,ITC_wait,0,undefined,0,0,207,276259,530754
20,18,female,Belg,1,14,ITC,neutral,10,left,1,ITC_collect,636,k,0,0,207,275621,531392
20,18,female,Belg,1,14,ITC,neutral,10,left,1,ITC_outcome,0,undefined,0,0,227,274608,532405
20,18,female,Belg,1,15,guess,loss,10,left,7,guess_start,1055,space,0,0,227,273552,533461
20,18,female,Belg,1,15,guess,loss,10,left,7,guess_choice,776,j,0,0,227,272774,534239
20,18,female,Belg,1,15,guess,loss,10,left,7,guess_outcome,0,undefined,0,0,212,271211,535802
20,18,female,Belg,1,15,ITC,loss,10,left,7,ITC_start,491,space,0,0,212,270718,536295
20,18,female,Belg,1,15,ITC,loss,10,left,7,ITC_choice,1316,j,0,0,212,269402,537611
20,18,female,Belg,1,15,ITC,loss,10,left,7,ITC_wait,0,undefined,0,0,212,269400,537613
20,18,female,Belg,1,15,ITC,loss,10,left,7,ITC_collect,837,k,0,0,212,268563,538450
20,18,female,Belg,1,15,ITC,loss,10,left,7,ITC_outcome,0,undefined,0,0,219,267548,539465
20,18,female,Belg,1,16,guess,win,10,left,2,guess_start,638,space,0,0,219,266909,540104
20,18,female,Belg,1,16,guess,win,10,left,2,guess_choice,810,f,0,0,219,266097,540916
20,18,female,Belg,1,16,guess,win,10,left,2,guess_outcome,0,undefined,0,0,239,264534,542479
20,18,female,Belg,1,16,ITC,win,10,left,2,ITC_start,625,space,0,0,239,263908,543105
20,18,female,Belg,1,16,ITC,win,10,left,2,ITC_choice,1867,f,0,0,239,262040,544973
20,18,female,Belg,1,16,ITC,win,10,left,2,ITC_wait,0,undefined,0,0,239,252032,554981
20,18,female,Belg,1,16,ITC,win,10,left,2,ITC_collect,624,k,0,0,239,251407,555606
20,18,female,Belg,1,16,ITC,win,10,left,2,ITC_outcome,0,undefined,0,0,259,250396,556617
20,18,female,Belg,1,17,guess,neutral,5,left,2,guess_start,1775,space,0,0,259,248619,558394
20,18,female,Belg,1,17,guess,neutral,5,left,2,guess_choice,1164,j,0,0,259,247454,559559
20,18,female,Belg,1,17,guess,neutral,5,left,2,guess_outcome,0,undefined,0,0,259,245890,561123
20,18,female,Belg,1,17,ITC,neutral,5,left,2,ITC_start,1159,space,0,0,259,244730,562283
20,18,female,Belg,1,17,ITC,neutral,5,left,2,ITC_choice,1948,f,0,0,259,242781,564232
20,18,female,Belg,1,17,ITC,neutral,5,left,2,ITC_wait,0,undefined,0,0,259,237765,569248
20,18,female,Belg,1,17,ITC,neutral,5,left,2,ITC_collect,915,k,0,0,259,236849,570164
20,18,female,Belg,1,17,ITC,neutral,5,left,2,ITC_outcome,0,undefined,0,0,279,235846,571167
20,18,female,Belg,1,18,guess,win,5,right,1,guess_start,929,space,0,0,279,234915,572098
20,18,female,Belg,1,18,guess,win,5,right,1,guess_choice,953,j,0,0,279,233961,573052
20,18,female,Belg,1,18,guess,win,5,right,1,guess_outcome,0,undefined,0,0,299,232406,574607
20,18,female,Belg,1,18,ITC,win,5,right,1,ITC_start,751,space,0,0,299,231654,575359
20,18,female,Belg,1,18,ITC,win,5,right,1,ITC_choice,1204,j,0,0,299,230449,576564
20,18,female,Belg,1,18,ITC,win,5,right,1,ITC_wait,0,undefined,0,0,299,225438,581575
20,18,female,Belg,1,18,ITC,win,5,right,1,ITC_collect,2795,k,0,0,299,222642,584371
20,18,female,Belg,1,18,ITC,win,5,right,1,ITC_outcome,0,undefined,0,0,319,221636,585377
20,18,female,Belg,1,19,guess,win,10,right,1,guess_start,608,space,0,0,319,221027,585986
20,18,female,Belg,1,19,guess,win,10,right,1,guess_choice,1018,f,0,0,319,220007,587006
20,18,female,Belg,1,19,guess,win,10,right,1,guess_outcome,0,undefined,0,0,339,218451,588562
20,18,female,Belg,1,19,ITC,win,10,right,1,ITC_start,1050,space,0,0,339,217400,589613
20,18,female,Belg,1,19,ITC,win,10,right,1,ITC_choice,1003,j,0,0,339,216396,590617
20,18,female,Belg,1,19,ITC,win,10,right,1,ITC_wait,0,undefined,0,0,339,206391,600622
20,18,female,Belg,1,19,ITC,win,10,right,1,ITC_collect,890,k,0,0,339,205499,601514
20,18,female,Belg,1,19,ITC,win,10,right,1,ITC_outcome,0,undefined,0,0,359,204489,602524
20,18,female,Belg,1,20,guess,neutral,10,right,8,guess_start,986,space,0,0,359,203502,603511
20,18,female,Belg,1,20,guess,neutral,10,right,8,guess_choice,830,f,0,0,359,202670,604343
20,18,female,Belg,1,20,guess,neutral,10,right,8,guess_outcome,0,undefined,0,0,359,201103,605910
20,18,female,Belg,1,20,ITC,neutral,10,right,8,ITC_start,795,space,0,0,359,200307,606706
20,18,female,Belg,1,20,ITC,neutral,10,right,8,ITC_choice,1598,f,0,0,359,198707,608306
20,18,female,Belg,1,20,ITC,neutral,10,right,8,ITC_wait,0,undefined,0,0,359,198705,608308
20,18,female,Belg,1,20,ITC,neutral,10,right,8,ITC_collect,858,k,0,0,359,197846,609167
20,18,female,Belg,1,20,ITC,neutral,10,right,8,ITC_outcome,0,undefined,0,0,367,196832,610181
20,18,female,Belg,1,21,guess,win,5,right,10,guess_start,667,space,0,0,367,196164,610849
20,18,female,Belg,1,21,guess,win,5,right,10,guess_choice,891,j,0,0,367,195271,611742
20,18,female,Belg,1,21,guess,win,5,right,10,guess_outcome,0,undefined,0,0,387,193718,613295
20,18,female,Belg,1,21,ITC,win,5,right,10,ITC_start,1007,space,0,0,387,192709,614304
20,18,female,Belg,1,21,ITC,win,5,right,10,ITC_choice,1243,f,0,0,387,191466,615547
20,18,female,Belg,1,21,ITC,win,5,right,10,ITC_wait,0,undefined,0,0,387,191464,615549
20,18,female,Belg,1,21,ITC,win,5,right,10,ITC_collect,1235,k,0,0,387,190228,616785
20,18,female,Belg,1,21,ITC,win,5,right,10,ITC_outcome,0,undefined,0,0,397,189212,617801
20,18,female,Belg,1,22,guess,win,5,right,9,guess_start,552,space,0,0,397,188659,618354
20,18,female,Belg,1,22,guess,win,5,right,9,guess_choice,657,j,0,0,397,188000,619013
20,18,female,Belg,1,22,guess,win,5,right,9,guess_outcome,0,undefined,0,0,417,186442,620571
20,18,female,Belg,1,22,ITC,win,5,right,9,ITC_start,328,space,0,0,417,186113,620900
20,18,female,Belg,1,22,ITC,win,5,right,9,ITC_choice,996,f,0,0,417,185116,621897
20,18,female,Belg,1,22,ITC,win,5,right,9,ITC_wait,0,undefined,0,0,417,185114,621899
20,18,female,Belg,1,22,ITC,win,5,right,9,ITC_collect,1271,k,0,0,417,183842,623171
20,18,female,Belg,1,22,ITC,win,5,right,9,ITC_outcome,0,undefined,0,0,426,182828,624185
20,18,female,Belg,1,23,guess,neutral,5,right,6,guess_start,769,space,0,0,426,182058,624955
20,18,female,Belg,1,23,guess,neutral,5,right,6,guess_choice,622,j,0,0,426,181435,625578
20,18,female,Belg,1,23,guess,neutral,5,right,6,guess_outcome,0,undefined,0,0,426,179873,627140
20,18,female,Belg,1,23,ITC,neutral,5,right,6,ITC_start,984,space,0,0,426,178888,628125
20,18,female,Belg,1,23,ITC,neutral,5,right,6,ITC_choice,1192,j,0,0,426,177694,629319
20,18,female,Belg,1,23,ITC,neutral,5,right,6,ITC_wait,0,undefined,0,0,426,172685,634328
20,18,female,Belg,1,23,ITC,neutral,5,right,6,ITC_collect,842,k,0,0,426,171842,635171
20,18,female,Belg,1,23,ITC,neutral,5,right,6,ITC_outcome,0,undefined,0,0,446,170838,636175
20,18,female,Belg,1,24,guess,loss,5,right,6,guess_start,1315,space,0,0,446,169522,637491
20,18,female,Belg,1,24,guess,loss,5,right,6,guess_choice,1311,f,0,0,446,168210,638803
20,18,female,Belg,1,24,guess,loss,5,right,6,guess_outcome,0,undefined,0,0,431,166656,640357
20,18,female,Belg,1,24,ITC,loss,5,right,6,ITC_start,548,space,0,0,431,166106,640907
20,18,female,Belg,1,24,ITC,loss,5,right,6,ITC_choice,1642,j,0,0,431,164463,642550
20,18,female,Belg,1,24,ITC,loss,5,right,6,ITC_wait,0,undefined,0,0,431,159452,647561
20,18,female,Belg,1,24,ITC,loss,5,right,6,ITC_collect,694,k,0,0,431,158756,648257
20,18,female,Belg,1,24,ITC,loss,5,right,6,ITC_outcome,0,undefined,0,0,451,157746,649267
20,18,female,Belg,1,25,guess,win,10,right,6,guess_start,3025,space,0,0,451,154719,652294
20,18,female,Belg,1,25,guess,win,10,right,6,guess_choice,1007,f,0,0,451,153710,653303
20,18,female,Belg,1,25,guess,win,10,right,6,guess_outcome,0,undefined,0,0,471,152143,654870
20,18,female,Belg,1,25,ITC,win,10,right,6,ITC_start,1421,space,0,0,471,150721,656292
20,18,female,Belg,1,25,ITC,win,10,right,6,ITC_choice,2343,f,0,0,471,148378,658635
20,18,female,Belg,1,25,ITC,win,10,right,6,ITC_wait,0,undefined,0,0,471,148376,658637
20,18,female,Belg,1,25,ITC,win,10,right,6,ITC_collect,728,k,0,0,471,147645,659368
20,18,female,Belg,1,25,ITC,win,10,right,6,ITC_outcome,0,undefined,0,0,477,146638,660375
20,18,female,Belg,1,26,guess,win,10,right,7,guess_start,541,space,0,0,477,146097,660916
20,18,female,Belg,1,26,guess,win,10,right,7,guess_choice,677,j,0,0,477,145418,661595
20,18,female,Belg,1,26,guess,win,10,right,7,guess_outcome,0,undefined,0,0,497,143857,663156
20,18,female,Belg,1,26,ITC,win,10,right,7,ITC_start,573,space,0,0,497,143283,663730
20,18,female,Belg,1,26,ITC,win,10,right,7,ITC_choice,1096,j,0,0,497,142186,664827
20,18,female,Belg,1,26,ITC,win,10,right,7,ITC_wait,0,undefined,0,0,497,132176,674837
20,18,female,Belg,1,26,ITC,win,10,right,7,ITC_collect,396,k,0,0,497,131779,675234
20,18,female,Belg,1,26,ITC,win,10,right,7,ITC_outcome,0,undefined,0,0,517,130772,676241
20,18,female,Belg,1,27,guess,loss,5,right,2,guess_start,672,space,0,0,517,130099,676914
20,18,female,Belg,1,27,guess,loss,5,right,2,guess_choice,580,f,0,0,517,129517,677496
20,18,female,Belg,1,27,guess,loss,5,right,2,guess_outcome,0,undefined,0,0,502,127956,679057
20,18,female,Belg,1,27,ITC,loss,5,right,2,ITC_start,1141,space,0,0,502,126813,680200
20,18,female,Belg,1,27,ITC,loss,5,right,2,ITC_choice,1090,j,0,0,502,125723,681290
20,18,female,Belg,1,27,ITC,loss,5,right,2,ITC_wait,0,undefined,0,0,502,120716,686297
20,18,female,Belg,1,27,ITC,loss,5,right,2,ITC_collect,788,k,0,0,502,119926,687087
20,18,female,Belg,1,27,ITC,loss,5,right,2,ITC_outcome,0,undefined,0,0,522,118920,688093
20,18,female,Belg,1,28,guess,win,10,right,5,guess_start,694,space,0,0,522,118225,688788
20,18,female,Belg,1,28,guess,win,10,right,5,guess_choice,741,j,0,0,522,117483,689530
20,18,female,Belg,1,28,guess,win,10,right,5,guess_outcome,0,undefined,0,0,542,115924,691089
20,18,female,Belg,1,28,ITC,win,10,right,5,ITC_start,615,space,0,0,542,115308,691705
20,18,female,Belg,1,28,ITC,win,10,right,5,ITC_choice,991,f,0,0,542,114316,692697
20,18,female,Belg,1,28,ITC,win,10,right,5,ITC_wait,0,undefined,0,0,542,114313,692700
20,18,female,Belg,1,28,ITC,win,10,right,5,ITC_collect,1009,k,0,0,542,113303,693710
20,18,female,Belg,1,28,ITC,win,10,right,5,ITC_outcome,0,undefined,0,0,547,112294,694719
20,18,female,Belg,1,29,guess,neutral,5,right,11,guess_start,825,space,0,0,547,111467,695546
20,18,female,Belg,1,29,guess,neutral,5,right,11,guess_choice,621,j,0,0,547,110845,696168
20,18,female,Belg,1,29,guess,neutral,5,right,11,guess_outcome,0,undefined,0,0,547,109285,697728
20,18,female,Belg,1,29,ITC,neutral,5,right,11,ITC_start,607,space,0,0,547,108676,698337
20,18,female,Belg,1,29,ITC,neutral,5,right,11,ITC_choice,1369,f,0,0,547,107306,699707
20,18,female,Belg,1,29,ITC,neutral,5,right,11,ITC_wait,0,undefined,0,0,547,107304,699709
20,18,female,Belg,1,29,ITC,neutral,5,right,11,ITC_collect,591,k,0,0,547,106712,700301
20,18,female,Belg,1,29,ITC,neutral,5,right,11,ITC_outcome,0,undefined,0,0,558,105706,701307
20,18,female,Belg,1,30,guess,loss,5,left,12,guess_start,641,space,0,0,558,105063,701950
20,18,female,Belg,1,30,guess,loss,5,left,12,guess_choice,592,j,0,0,558,104470,702543
20,18,female,Belg,1,30,guess,loss,5,left,12,guess_outcome,0,undefined,0,0,543,102913,704100
20,18,female,Belg,1,30,ITC,loss,5,left,12,ITC_start,425,space,0,0,543,102486,704527
20,18,female,Belg,1,30,ITC,loss,5,left,12,ITC_choice,995,f,0,0,543,101490,705523
20,18,female,Belg,1,30,ITC,loss,5,left,12,ITC_wait,0,undefined,0,0,543,96482,710531
20,18,female,Belg,1,30,ITC,loss,5,left,12,ITC_collect,698,k,0,0,543,95782,711231
20,18,female,Belg,1,30,ITC,loss,5,left,12,ITC_outcome,0,undefined,0,0,563,94766,712247
20,18,female,Belg,1,31,guess,loss,5,left,13,guess_start,625,space,0,0,563,94139,712874
20,18,female,Belg,1,31,guess,loss,5,left,13,guess_choice,746,j,0,0,563,93392,713621
20,18,female,Belg,1,31,guess,loss,5,left,13,guess_outcome,0,undefined,0,0,548,91829,715184
20,18,female,Belg,1,31,ITC,loss,5,left,13,ITC_start,1064,space,0,0,548,90764,716249
20,18,female,Belg,1,31,ITC,loss,5,left,13,ITC_choice,1419,j,0,0,548,89345,717668
20,18,female,Belg,1,31,ITC,loss,5,left,13,ITC_wait,0,undefined,0,0,548,89342,717671
20,18,female,Belg,1,31,ITC,loss,5,left,13,ITC_collect,1065,k,0,0,548,88276,718737
20,18,female,Belg,1,31,ITC,loss,5,left,13,ITC_outcome,0,undefined,0,0,561,87266,719747
20,18,female,Belg,1,32,guess,loss,5,left,4,guess_start,1353,space,0,0,561,85911,721102
20,18,female,Belg,1,32,guess,loss,5,left,4,guess_choice,752,j,0,0,561,85158,721855
20,18,female,Belg,1,32,guess,loss,5,left,4,guess_outcome,0,undefined,0,0,546,83597,723416
20,18,female,Belg,1,32,ITC,loss,5,left,4,ITC_start,727,space,0,0,546,82869,724144
20,18,female,Belg,1,32,ITC,loss,5,left,4,ITC_choice,1057,f,0,0,546,81810,725203
20,18,female,Belg,1,32,ITC,loss,5,left,4,ITC_wait,0,undefined,0,0,546,76800,730213
20,18,female,Belg,1,32,ITC,loss,5,left,4,ITC_collect,670,k,0,0,546,76128,730885
20,18,female,Belg,1,32,ITC,loss,5,left,4,ITC_outcome,0,undefined,0,0,566,75112,731901
20,18,female,Belg,1,33,guess,neutral,5,right,15,guess_start,799,space,0,0,566,74313,732700
20,18,female,Belg,1,33,guess,neutral,5,right,15,guess_choice,697,f,0,0,566,73613,733400
20,18,female,Belg,1,33,guess,neutral,5,right,15,guess_outcome,0,undefined,0,0,566,72046,734967
20,18,female,Belg,1,33,ITC,neutral,5,right,15,ITC_start,625,space,0,0,566,71419,735594
20,18,female,Belg,1,33,ITC,neutral,5,right,15,ITC_choice,1128,f,0,0,566,70290,736723
20,18,female,Belg,1,33,ITC,neutral,5,right,15,ITC_wait,0,undefined,0,0,566,70288,736725
20,18,female,Belg,1,33,ITC,neutral,5,right,15,ITC_collect,778,k,0,0,566,69509,737504
20,18,female,Belg,1,33,ITC,neutral,5,right,15,ITC_outcome,0,undefined,0,0,581,68494,738519
20,18,female,Belg,1,34,guess,neutral,10,right,5,guess_start,661,space,0,0,581,67832,739181
20,18,female,Belg,1,34,guess,neutral,10,right,5,guess_choice,877,f,0,0,581,66952,740061
20,18,female,Belg,1,34,guess,neutral,10,right,5,guess_outcome,0,undefined,0,0,581,65396,741617
20,18,female,Belg,1,34,ITC,neutral,10,right,5,ITC_start,622,space,0,0,581,64774,742239
20,18,female,Belg,1,34,ITC,neutral,10,right,5,ITC_choice,1440,j,0,0,581,63333,743680
20,18,female,Belg,1,34,ITC,neutral,10,right,5,ITC_wait,0,undefined,0,0,581,53320,753693
20,18,female,Belg,1,34,ITC,neutral,10,right,5,ITC_collect,593,k,0,0,581,52725,754288
20,18,female,Belg,1,34,ITC,neutral,10,right,5,ITC_outcome,0,undefined,0,0,601,51712,755301
20,18,female,Belg,1,35,guess,win,5,left,2,guess_start,2196,space,0,0,601,49515,757498
20,18,female,Belg,1,35,guess,win,5,left,2,guess_choice,748,j,0,0,601,48765,758248
20,18,female,Belg,1,35,guess,win,5,left,2,guess_outcome,0,undefined,0,0,621,47206,759807
20,18,female,Belg,1,35,ITC,win,5,left,2,ITC_start,1471,space,0,0,621,45734,761279
20,18,female,Belg,1,35,ITC,win,5,left,2,ITC_choice,1819,f,0,0,621,43913,763100
20,18,female,Belg,1,35,ITC,win,5,left,2,ITC_wait,0,undefined,0,0,621,38902,768111
20,18,female,Belg,1,35,ITC,win,5,left,2,ITC_collect,2337,k,0,0,621,36564,770449
20,18,female,Belg,1,35,ITC,win,5,left,2,ITC_outcome,0,undefined,0,0,641,35549,771464
20,18,female,Belg,1,36,guess,loss,5,left,5,guess_start,1279,space,0,0,641,34268,772745
20,18,female,Belg,1,36,guess,loss,5,left,5,guess_choice,589,j,0,0,641,33678,773335
20,18,female,Belg,1,36,guess,loss,5,left,5,guess_outcome,0,undefined,0,0,626,32111,774902
20,18,female,Belg,1,36,ITC,loss,5,left,5,ITC_start,729,space,0,0,626,31382,775631
20,18,female,Belg,1,36,ITC,loss,5,left,5,ITC_choice,1168,j,0,0,626,30213,776800
20,18,female,Belg,1,36,ITC,loss,5,left,5,ITC_wait,0,undefined,0,0,626,30210,776803
20,18,female,Belg,1,36,ITC,loss,5,left,5,ITC_collect,1079,k,0,0,626,29130,777883
20,18,female,Belg,1,36,ITC,loss,5,left,5,ITC_outcome,0,undefined,0,0,631,28122,778891
20,18,female,Belg,1,37,guess,loss,10,right,1,guess_start,548,space,0,0,631,27573,779440
20,18,female,Belg,1,37,guess,loss,10,right,1,guess_choice,691,f,0,0,631,26880,780133
20,18,female,Belg,1,37,guess,loss,10,right,1,guess_outcome,0,undefined,0,0,616,25314,781699
20,18,female,Belg,1,37,ITC,loss,10,right,1,ITC_start,426,space,0,0,616,24887,782126
20,18,female,Belg,1,37,ITC,loss,10,right,1,ITC_choice,909,j,0,0,616,23977,783036
20,18,female,Belg,1,37,ITC,loss,10,right,1,ITC_wait,0,undefined,0,0,616,13974,793039
20,18,female,Belg,1,37,ITC,loss,10,right,1,ITC_outcome,0,undefined,0,0,636,12209,794804
20,18,female,Belg,1,37,ITC,loss,10,right,1,ITC_collect,755,k,0,0,616,13217,793796
20,18,female,Belg,1,38,guess,loss,10,left,6,guess_start,808,space,0,0,636,11399,795614
20,18,female,Belg,1,38,guess,loss,10,left,6,guess_choice,624,j,0,0,636,10774,796239
20,18,female,Belg,1,38,guess,loss,10,left,6,guess_outcome,0,undefined,0,0,621,9213,797800
20,18,female,Belg,1,38,ITC,loss,10,left,6,ITC_start,690,space,0,0,621,8522,798491
20,18,female,Belg,1,38,ITC,loss,10,left,6,ITC_choice,2199,f,0,0,621,6322,800691
20,18,female,Belg,1,38,ITC,loss,10,left,6,ITC_wait,0,undefined,0,0,621,-14,807027
20,18,female,Belg,2,39,guess,neutral,5,right,7,guess_start,1312,space,0,0,0,478686,980576
20,18,female,Belg,2,39,guess,neutral,5,right,7,guess_choice,1044,j,0,0,0,477641,981621
20,18,female,Belg,2,39,guess,neutral,5,right,7,guess_outcome,0,undefined,0,0,0,476079,983183
20,18,female,Belg,2,39,ITC,neutral,5,right,7,ITC_start,1391,space,0,0,0,474686,984576
20,18,female,Belg,2,39,ITC,neutral,5,right,7,ITC_choice,1164,j,0,0,0,473521,985741
20,18,female,Belg,2,39,ITC,neutral,5,right,7,ITC_wait,0,undefined,0,0,0,468506,990756
20,18,female,Belg,2,39,ITC,neutral,5,right,7,ITC_collect,595,k,0,0,0,467910,991352
20,18,female,Belg,2,39,ITC,neutral,5,right,7,ITC_outcome,0,undefined,0,0,20,466903,992359
20,18,female,Belg,2,40,guess,neutral,5,right,9,guess_start,953,space,0,0,20,465949,993313
20,18,female,Belg,2,40,guess,neutral,5,right,9,guess_choice,1027,f,0,0,20,464920,994342
20,18,female,Belg,2,40,guess,neutral,5,right,9,guess_outcome,0,undefined,0,0,20,463359,995903
20,18,female,Belg,2,40,ITC,neutral,5,right,9,ITC_start,658,space,0,0,20,462700,996562
20,18,female,Belg,2,40,ITC,neutral,5,right,9,ITC_choice,1197,f,0,0,20,461502,997760
20,18,female,Belg,2,40,ITC,neutral,5,right,9,ITC_wait,0,undefined,0,0,20,461500,997762
20,18,female,Belg,2,40,ITC,neutral,5,right,9,ITC_collect,607,k,0,0,20,460893,998369
20,18,female,Belg,2,40,ITC,neutral,5,right,9,ITC_outcome,0,undefined,0,0,29,459880,999382
20,18,female,Belg,2,41,guess,neutral,5,left,10,guess_start,1324,space,0,0,29,458555,1000707
20,18,female,Belg,2,41,guess,neutral,5,left,10,guess_choice,999,j,0,0,29,457554,1001708
20,18,female,Belg,2,41,guess,neutral,5,left,10,guess_outcome,0,undefined,0,0,29,456001,1003261
20,18,female,Belg,2,41,ITC,neutral,5,left,10,ITC_start,3665,space,0,0,29,452335,1006927
20,18,female,Belg,2,41,ITC,neutral,5,left,10,ITC_choice,1040,j,0,0,29,451294,1007968
20,18,female,Belg,2,41,ITC,neutral,5,left,10,ITC_wait,0,undefined,0,0,29,451291,1007971
20,18,female,Belg,2,41,ITC,neutral,5,left,10,ITC_collect,1493,k,0,0,29,449798,1009464
20,18,female,Belg,2,41,ITC,neutral,5,left,10,ITC_outcome,0,undefined,0,0,39,448789,1010473
20,18,female,Belg,2,42,guess,neutral,5,right,16,guess_start,957,space,0,0,39,447831,1011431
20,18,female,Belg,2,42,guess,neutral,5,right,16,guess_choice,622,j,0,0,39,447207,1012055
20,18,female,Belg,2,42,guess,neutral,5,right,16,guess_outcome,0,undefined,0,0,39,445653,1013609
20,18,female,Belg,2,42,ITC,neutral,5,right,16,ITC_start,1695,space,0,0,39,443956,1015306
20,18,female,Belg,2,42,ITC,neutral,5,right,16,ITC_choice,1372,f,0,0,39,442584,1016678
20,18,female,Belg,2,42,ITC,neutral,5,right,16,ITC_wait,0,undefined,0,0,39,442581,1016681
20,18,female,Belg,2,42,ITC,neutral,5,right,16,ITC_collect,1128,k,0,0,39,441452,1017810
20,18,female,Belg,2,42,ITC,neutral,5,right,16,ITC_outcome,0,undefined,0,0,55,440442,1018820
20,18,female,Belg,2,43,guess,win,5,right,3,guess_start,742,space,0,0,55,439699,1019563
20,18,female,Belg,2,43,guess,win,5,right,3,guess_choice,1009,f,0,0,55,438689,1020573
20,18,female,Belg,2,43,guess,win,5,right,3,guess_outcome,0,undefined,0,0,75,437124,1022138
20,18,female,Belg,2,43,ITC,win,5,right,3,ITC_start,557,space,0,0,75,436566,1022696
20,18,female,Belg,2,43,ITC,win,5,right,3,ITC_choice,963,j,0,0,75,435602,1023660
20,18,female,Belg,2,43,ITC,win,5,right,3,ITC_wait,0,undefined,0,0,75,430588,1028674
20,18,female,Belg,2,43,ITC,win,5,right,3,ITC_collect,1062,k,0,0,75,429525,1029737
20,18,female,Belg,2,43,ITC,win,5,right,3,ITC_outcome,0,undefined,0,0,95,428517,1030745
20,18,female,Belg,2,44,guess,win,5,right,14,guess_start,630,space,0,0,95,427885,1031377
20,18,female,Belg,2,44,guess,win,5,right,14,guess_choice,495,j,0,0,95,427387,1031875
20,18,female,Belg,2,44,guess,win,5,right,14,guess_outcome,0,undefined,0,0,115,425834,1033428
20,18,female,Belg,2,44,ITC,win,5,right,14,ITC_start,455,space,0,0,115,425378,1033884
20,18,female,Belg,2,44,ITC,win,5,right,14,ITC_choice,1943,f,0,0,115,423434,1035828
20,18,female,Belg,2,44,ITC,win,5,right,14,ITC_wait,0,undefined,0,0,115,423432,1035830
20,18,female,Belg,2,44,ITC,win,5,right,14,ITC_collect,867,k,0,0,115,422564,1036698
20,18,female,Belg,2,44,ITC,win,5,right,14,ITC_outcome,0,undefined,0,0,129,421558,1037704
20,18,female,Belg,2,45,guess,neutral,5,right,1,guess_start,533,space,0,0,129,421025,1038237
20,18,female,Belg,2,45,guess,neutral,5,right,1,guess_choice,460,j,0,0,129,420563,1038699
20,18,female,Belg,2,45,guess,neutral,5,right,1,guess_outcome,0,undefined,0,0,129,419005,1040257
20,18,female,Belg,2,45,ITC,neutral,5,right,1,ITC_start,503,space,0,0,129,418501,1040761
20,18,female,Belg,2,45,ITC,neutral,5,right,1,ITC_choice,1576,j,0,0,129,416924,1042338
20,18,female,Belg,2,45,ITC,neutral,5,right,1,ITC_wait,0,undefined,0,0,129,411923,1047339
20,18,female,Belg,2,45,ITC,neutral,5,right,1,ITC_collect,493,k,0,0,129,411428,1047834
20,18,female,Belg,2,45,ITC,neutral,5,right,1,ITC_outcome,0,undefined,0,0,149,410424,1048838
20,18,female,Belg,2,46,guess,loss,10,left,2,guess_start,984,space,0,0,149,409439,1049823
20,18,female,Belg,2,46,guess,loss,10,left,2,guess_choice,610,j,0,0,149,408828,1050434
20,18,female,Belg,2,46,guess,loss,10,left,2,guess_outcome,0,undefined,0,0,134,407275,1051987
20,18,female,Belg,2,46,ITC,loss,10,left,2,ITC_start,638,space,0,0,134,406636,1052626
20,18,female,Belg,2,46,ITC,loss,10,left,2,ITC_choice,1069,f,0,0,134,405566,1053696
20,18,female,Belg,2,46,ITC,loss,10,left,2,ITC_wait,0,undefined,0,0,134,395551,1063711
20,18,female,Belg,2,46,ITC,loss,10,left,2,ITC_collect,666,k,0,0,134,394883,1064379
20,18,female,Belg,2,46,ITC,loss,10,left,2,ITC_outcome,0,undefined,0,0,154,393881,1065381
20,18,female,Belg,2,47,guess,neutral,10,right,7,guess_start,1183,space,0,0,154,392697,1066565
20,18,female,Belg,2,47,guess,neutral,10,right,7,guess_choice,654,j,0,0,154,392042,1067220
20,18,female,Belg,2,47,guess,neutral,10,right,7,guess_outcome,0,undefined,0,0,154,390480,1068782
20,18,female,Belg,2,47,ITC,neutral,10,right,7,ITC_start,785,space,0,0,154,389694,1069568
20,18,female,Belg,2,47,ITC,neutral,10,right,7,ITC_choice,2254,f,0,0,154,387439,1071823
20,18,female,Belg,2,47,ITC,neutral,10,right,7,ITC_wait,0,undefined,0,0,154,387436,1071826
20,18,female,Belg,2,47,ITC,neutral,10,right,7,ITC_collect,699,k,0,0,154,386736,1072526
20,18,female,Belg,2,47,ITC,neutral,10,right,7,ITC_outcome,0,undefined,0,0,161,385723,1073539
20,18,female,Belg,2,48,guess,win,10,right,8,guess_start,1281,space,0,0,161,384441,1074821
20,18,female,Belg,2,48,guess,win,10,right,8,guess_choice,762,j,0,0,161,383677,1075585
20,18,female,Belg,2,48,guess,win,10,right,8,guess_outcome,0,undefined,0,0,181,382122,1077140
20,18,female,Belg,2,48,ITC,win,10,right,8,ITC_start,608,space,0,0,181,381513,1077749
20,18,female,Belg,2,48,ITC,win,10,right,8,ITC_choice,1625,f,0,0,181,379886,1079376
20,18,female,Belg,2,48,ITC,win,10,right,8,ITC_wait,0,undefined,0,0,181,379884,1079378
20,18,female,Belg,2,48,ITC,win,10,right,8,ITC_collect,1596,k,0,0,181,378287,1080975
20,18,female,Belg,2,48,ITC,win,10,right,8,ITC_outcome,0,undefined,0,0,189,377272,1081990
20,18,female,Belg,2,49,guess,loss,5,right,10,guess_start,545,space,0,0,189,376726,1082536
20,18,female,Belg,2,49,guess,loss,5,right,10,guess_choice,603,j,0,0,189,376121,1083141
20,18,female,Belg,2,49,guess,loss,5,right,10,guess_outcome,0,undefined,0,0,174,374562,1084700
20,18,female,Belg,2,49,ITC,loss,5,right,10,ITC_start,422,space,0,0,174,374139,1085123
20,18,female,Belg,2,49,ITC,loss,5,right,10,ITC_choice,837,j,0,0,174,373301,1085961
20,18,female,Belg,2,49,ITC,loss,5,right,10,ITC_wait,0,undefined,0,0,174,368289,1090973
20,18,female,Belg,2,49,ITC,loss,5,right,10,ITC_collect,631,k,0,0,174,367656,1091606
20,18,female,Belg,2,49,ITC,loss,5,right,10,ITC_outcome,0,undefined,0,0,194,366650,1092612
20,18,female,Belg,2,50,guess,loss,10,right,3,guess_start,647,space,0,0,194,366002,1093260
20,18,female,Belg,2,50,guess,loss,10,right,3,guess_choice,740,f,0,0,194,365261,1094001
20,18,female,Belg,2,50,guess,loss,10,right,3,guess_outcome,0,undefined,0,0,179,363700,1095562
20,18,female,Belg,2,50,ITC,loss,10,right,3,ITC_start,437,space,0,0,179,363262,1096000
20,18,female,Belg,2,50,ITC,loss,10,right,3,ITC_choice,1272,j,0,0,179,361989,1097273
20,18,female,Belg,2,50,ITC,loss,10,right,3,ITC_wait,0,undefined,0,0,179,351985,1107277
20,18,female,Belg,2,50,ITC,loss,10,right,3,ITC_collect,519,k,0,0,179,351464,1107798
20,18,female,Belg,2,50,ITC,loss,10,right,3,ITC_outcome,0,undefined,0,0,199,350452,1108810
20,18,female,Belg,2,51,guess,neutral,10,left,6,guess_start,2486,space,0,0,199,347965,1111297
20,18,female,Belg,2,51,guess,neutral,10,left,6,guess_choice,528,j,0,0,199,347435,1111827
20,18,female,Belg,2,51,guess,neutral,10,left,6,guess_outcome,0,undefined,0,0,199,345871,1113391
20,18,female,Belg,2,51,ITC,neutral,10,left,6,ITC_start,629,space,0,0,199,345241,1114021
20,18,female,Belg,2,51,ITC,neutral,10,left,6,ITC_choice,1416,j,0,0,199,343823,1115439
20,18,female,Belg,2,51,ITC,neutral,10,left,6,ITC_wait,0,undefined,0,0,199,343822,1115440
20,18,female,Belg,2,51,ITC,neutral,10,left,6,ITC_collect,1864,k,0,0,199,341956,1117306
20,18,female,Belg,2,51,ITC,neutral,10,left,6,ITC_outcome,0,undefined,0,0,205,340951,1118311
20,18,female,Belg,2,52,guess,loss,5,left,7,guess_start,744,space,0,0,205,340206,1119056
20,18,female,Belg,2,52,guess,loss,5,left,7,guess_choice,484,j,0,0,205,339721,1119541
20,18,female,Belg,2,52,guess,loss,5,left,7,guess_outcome,0,undefined,0,0,190,338155,1121107
20,18,female,Belg,2,52,ITC,loss,5,left,7,ITC_start,531,space,0,0,190,337623,1121639
20,18,female,Belg,2,52,ITC,loss,5,left,7,ITC_choice,962,f,0,0,190,336659,1122603
20,18,female,Belg,2,52,ITC,loss,5,left,7,ITC_wait,0,undefined,0,0,190,331651,1127611
20,18,female,Belg,2,52,ITC,loss,5,left,7,ITC_collect,419,k,0,0,190,331230,1128032
20,18,female,Belg,2,52,ITC,loss,5,left,7,ITC_outcome,0,undefined,0,0,210,330228,1129034
20,18,female,Belg,2,53,guess,neutral,5,right,12,guess_start,1202,space,0,0,210,329025,1130237
20,18,female,Belg,2,53,guess,neutral,5,right,12,guess_choice,682,j,0,0,210,328342,1130920
20,18,female,Belg,2,53,guess,neutral,5,right,12,guess_outcome,0,undefined,0,0,210,326780,1132482
20,18,female,Belg,2,53,ITC,neutral,5,right,12,ITC_start,886,space,0,0,210,325892,1133370
20,18,female,Belg,2,53,ITC,neutral,5,right,12,ITC_choice,958,f,0,0,210,324934,1134328
20,18,female,Belg,2,53,ITC,neutral,5,right,12,ITC_wait,0,undefined,0,0,210,324931,1134331
20,18,female,Belg,2,53,ITC,neutral,5,right,12,ITC_collect,706,k,0,0,210,324225,1135037
20,18,female,Belg,2,53,ITC,neutral,5,right,12,ITC_outcome,0,undefined,0,0,222,323220,1136042
20,18,female,Belg,2,54,guess,win,10,right,4,guess_start,400,space,0,0,222,322818,1136444
20,18,female,Belg,2,54,guess,win,10,right,4,guess_choice,571,f,0,0,222,322245,1137017
20,18,female,Belg,2,54,guess,win,10,right,4,guess_outcome,0,undefined,0,0,242,320677,1138585
20,18,female,Belg,2,54,ITC,win,10,right,4,ITC_start,681,space,0,0,242,319995,1139267
20,18,female,Belg,2,54,ITC,win,10,right,4,ITC_choice,1537,j,0,0,242,318457,1140805
20,18,female,Belg,2,54,ITC,win,10,right,4,ITC_wait,0,undefined,0,0,242,308448,1150814
20,18,female,Belg,2,54,ITC,win,10,right,4,ITC_collect,498,k,0,0,242,307949,1151313
20,18,female,Belg,2,54,ITC,win,10,right,4,ITC_outcome,0,undefined,0,0,262,306941,1152321
20,18,female,Belg,2,55,guess,win,5,left,13,guess_start,903,space,0,0,262,306037,1153225
20,18,female,Belg,2,55,guess,win,5,left,13,guess_choice,572,f,0,0,262,305463,1153799
20,18,female,Belg,2,55,guess,win,5,left,13,guess_outcome,0,undefined,0,0,282,303905,1155357
20,18,female,Belg,2,55,ITC,win,5,left,13,ITC_start,1029,space,0,0,282,302875,1156387
20,18,female,Belg,2,55,ITC,win,5,left,13,ITC_choice,1166,j,0,0,282,301709,1157553
20,18,female,Belg,2,55,ITC,win,5,left,13,ITC_wait,0,undefined,0,0,282,301707,1157555
20,18,female,Belg,2,55,ITC,win,5,left,13,ITC_collect,909,k,0,0,282,300797,1158465
20,18,female,Belg,2,55,ITC,win,5,left,13,ITC_outcome,0,undefined,0,0,295,299789,1159473
20,18,female,Belg,2,56,guess,loss,5,right,3,guess_start,797,space,0,0,295,298991,1160271
20,18,female,Belg,2,56,guess,loss,5,right,3,guess_choice,746,f,0,0,295,298243,1161019
20,18,female,Belg,2,56,guess,loss,5,right,3,guess_outcome,0,undefined,0,0,280,296687,1162575
20,18,female,Belg,2,56,ITC,loss,5,right,3,ITC_start,737,space,0,0,280,295948,1163314
20,18,female,Belg,2,56,ITC,loss,5,right,3,ITC_choice,1025,j,0,0,280,294922,1164340
20,18,female,Belg,2,56,ITC,loss,5,right,3,ITC_wait,0,undefined,0,0,280,289910,1169352
20,18,female,Belg,2,56,ITC,loss,5,right,3,ITC_collect,563,k,0,0,280,289345,1169917
20,18,female,Belg,2,56,ITC,loss,5,right,3,ITC_outcome,0,undefined,0,0,300,288336,1170926
20,18,female,Belg,2,57,guess,win,5,right,6,guess_start,1224,space,0,0,300,287111,1172151
20,18,female,Belg,2,57,guess,win,5,right,6,guess_choice,596,j,0,0,300,286513,1172749
20,18,female,Belg,2,57,guess,win,5,right,6,guess_outcome,0,undefined,0,0,320,284953,1174309
20,18,female,Belg,2,57,ITC,win,5,right,6,ITC_start,1233,space,0,0,320,283719,1175543
20,18,female,Belg,2,57,ITC,win,5,right,6,ITC_choice,1445,j,0,0,320,282273,1176989
20,18,female,Belg,2,57,ITC,win,5,right,6,ITC_wait,0,undefined,0,0,320,277259,1182003
20,18,female,Belg,2,57,ITC,win,5,right,6,ITC_collect,656,k,0,0,320,276603,1182659
20,18,female,Belg,2,57,ITC,win,5,right,6,ITC_outcome,0,undefined,0,0,340,275593,1183669
20,18,female,Belg,2,58,guess,neutral,5,left,14,guess_start,832,space,0,0,340,274759,1184503
20,18,female,Belg,2,58,guess,neutral,5,left,14,guess_choice,607,j,0,0,340,274150,1185112
20,18,female,Belg,2,58,guess,neutral,5,left,14,guess_outcome,0,undefined,0,0,340,272583,1186679
20,18,female,Belg,2,58,ITC,neutral,5,left,14,ITC_start,820,space,0,0,340,271762,1187500
20,18,female,Belg,2,58,ITC,neutral,5,left,14,ITC_choice,1207,j,0,0,340,270555,1188707
20,18,female,Belg,2,58,ITC,neutral,5,left,14,ITC_wait,0,undefined,0,0,340,270552,1188710
20,18,female,Belg,2,58,ITC,neutral,5,left,14,ITC_collect,1532,k,0,0,340,269020,1190242
20,18,female,Belg,2,58,ITC,neutral,5,left,14,ITC_outcome,0,undefined,0,0,354,268003,1191259
20,18,female,Belg,2,59,guess,neutral,5,left,5,guess_start,1597,space,0,0,354,266405,1192857
20,18,female,Belg,2,59,guess,neutral,5,left,5,guess_choice,651,f,0,0,354,265752,1193510
20,18,female,Belg,2,59,guess,neutral,5,left,5,guess_outcome,0,undefined,0,0,354,264198,1195064
20,18,female,Belg,2,59,ITC,neutral,5,left,5,ITC_start,668,space,0,0,354,263528,1195734
20,18,female,Belg,2,59,ITC,neutral,5,left,5,ITC_choice,1433,j,0,0,354,262095,1197167
20,18,female,Belg,2,59,ITC,neutral,5,left,5,ITC_wait,0,undefined,0,0,354,262092,1197170
20,18,female,Belg,2,59,ITC,neutral,5,left,5,ITC_collect,1277,k,0,0,354,260814,1198448
20,18,female,Belg,2,59,ITC,neutral,5,left,5,ITC_outcome,0,undefined,0,0,359,259803,1199459
20,18,female,Belg,2,60,guess,loss,5,left,16,guess_start,556,space,0,0,359,259246,1200016
20,18,female,Belg,2,60,guess,loss,5,left,16,guess_choice,508,f,0,0,359,258736,1200526
20,18,female,Belg,2,60,guess,loss,5,left,16,guess_outcome,0,undefined,0,0,344,257181,1202081
20,18,female,Belg,2,60,ITC,loss,5,left,16,ITC_start,949,space,0,0,344,256231,1203031
20,18,female,Belg,2,60,ITC,loss,5,left,16,ITC_choice,1049,j,0,0,344,255180,1204082
20,18,female,Belg,2,60,ITC,loss,5,left,16,ITC_wait,0,undefined,0,0,344,255179,1204083
20,18,female,Belg,2,60,ITC,loss,5,left,16,ITC_collect,918,k,0,0,344,254260,1205002
20,18,female,Belg,2,60,ITC,loss,5,left,16,ITC_outcome,0,undefined,0,0,360,253252,1206010
20,18,female,Belg,2,61,guess,loss,10,right,4,guess_start,544,space,0,0,360,252706,1206556
20,18,female,Belg,2,61,guess,loss,10,right,4,guess_choice,577,f,0,0,360,252127,1207135
20,18,female,Belg,2,61,guess,loss,10,right,4,guess_outcome,0,undefined,0,0,345,250570,1208692
20,18,female,Belg,2,61,ITC,loss,10,right,4,ITC_start,564,space,0,0,345,250005,1209257
20,18,female,Belg,2,61,ITC,loss,10,right,4,ITC_choice,1066,j,0,0,345,248938,1210324
20,18,female,Belg,2,61,ITC,loss,10,right,4,ITC_wait,0,undefined,0,0,345,238933,1220329
20,18,female,Belg,2,61,ITC,loss,10,right,4,ITC_collect,796,k,0,0,345,238136,1221126
20,18,female,Belg,2,61,ITC,loss,10,right,4,ITC_outcome,0,undefined,0,0,365,237125,1222137
20,18,female,Belg,2,62,guess,loss,5,left,14,guess_start,870,space,0,0,365,236253,1223009
20,18,female,Belg,2,62,guess,loss,5,left,14,guess_choice,578,j,0,0,365,235674,1223588
20,18,female,Belg,2,62,guess,loss,5,left,14,guess_outcome,0,undefined,0,0,350,234114,1225148
20,18,female,Belg,2,62,ITC,loss,5,left,14,ITC_start,558,space,0,0,350,233555,1225707
20,18,female,Belg,2,62,ITC,loss,5,left,14,ITC_choice,872,f,0,0,350,232682,1226580
20,18,female,Belg,2,62,ITC,loss,5,left,14,ITC_wait,0,undefined,0,0,350,227670,1231592
20,18,female,Belg,2,62,ITC,loss,5,left,14,ITC_collect,956,k,0,0,350,226712,1232550
20,18,female,Belg,2,62,ITC,loss,5,left,14,ITC_outcome,0,undefined,0,0,370,225703,1233559
20,18,female,Belg,2,63,guess,win,5,right,8,guess_start,1090,space,0,0,370,224612,1234650
20,18,female,Belg,2,63,guess,win,5,right,8,guess_choice,969,j,0,0,370,223641,1235621
20,18,female,Belg,2,63,guess,win,5,right,8,guess_outcome,0,undefined,0,0,390,222082,1237180
20,18,female,Belg,2,63,ITC,win,5,right,8,ITC_start,1703,space,0,0,390,220377,1238885
20,18,female,Belg,2,63,ITC,win,5,right,8,ITC_choice,1407,f,0,0,390,218969,1240293
20,18,female,Belg,2,63,ITC,win,5,right,8,ITC_wait,0,undefined,0,0,390,218967,1240295
20,18,female,Belg,2,63,ITC,win,5,right,8,ITC_collect,1334,k,0,0,390,217633,1241629
20,18,female,Belg,2,63,ITC,win,5,right,8,ITC_outcome,0,undefined,0,0,398,216620,1242642
20,18,female,Belg,2,64,guess,win,10,right,3,guess_start,411,space,0,0,398,216207,1243055
20,18,female,Belg,2,64,guess,win,10,right,3,guess_choice,592,j,0,0,398,215614,1243648
20,18,female,Belg,2,64,guess,win,10,right,3,guess_outcome,0,undefined,0,0,418,214062,1245200
20,18,female,Belg,2,64,ITC,win,10,right,3,ITC_start,1114,space,0,0,418,212946,1246316
20,18,female,Belg,2,64,ITC,win,10,right,3,ITC_choice,1003,j,0,0,418,211943,1247319
20,18,female,Belg,2,64,ITC,win,10,right,3,ITC_wait,0,undefined,0,0,418,201934,1257328
20,18,female,Belg,2,64,ITC,win,10,right,3,ITC_collect,402,k,0,0,418,201530,1257732
20,18,female,Belg,2,64,ITC,win,10,right,3,ITC_outcome,0,undefined,0,0,438,200516,1258746
20,18,female,Belg,2,65,guess,win,5,right,16,guess_start,1010,space,0,0,438,199505,1259757
20,18,female,Belg,2,65,guess,win,5,right,16,guess_choice,575,j,0,0,438,198928,1260334
20,18,female,Belg,2,65,guess,win,5,right,16,guess_outcome,0,undefined,0,0,458,197372,1261890
20,18,female,Belg,2,65,ITC,win,5,right,16,ITC_start,873,space,0,0,458,196498,1262764
20,18,female,Belg,2,65,ITC,win,5,right,16,ITC_choice,951,f,0,0,458,195546,1263716
20,18,female,Belg,2,65,ITC,win,5,right,16,ITC_wait,0,undefined,0,0,458,195544,1263718
20,18,female,Belg,2,65,ITC,win,5,right,16,ITC_collect,1273,k,0,0,458,194270,1264992
20,18,female,Belg,2,65,ITC,win,5,right,16,ITC_outcome,0,undefined,0,0,474,193266,1265996
20,18,female,Belg,2,66,guess,win,5,right,7,guess_start,851,space,0,0,474,192414,1266848
20,18,female,Belg,2,66,guess,win,5,right,7,guess_choice,547,f,0,0,474,191865,1267397
20,18,female,Belg,2,66,guess,win,5,right,7,guess_outcome,0,undefined,0,0,494,190297,1268965
20,18,female,Belg,2,66,ITC,win,5,right,7,ITC_start,602,space,0,0,494,189694,1269568
20,18,female,Belg,2,66,ITC,win,5,right,7,ITC_choice,2070,f,0,0,494,187623,1271639
20,18,female,Belg,2,66,ITC,win,5,right,7,ITC_wait,0,undefined,0,0,494,187622,1271640
20,18,female,Belg,2,66,ITC,win,5,right,7,ITC_collect,382,k,0,0,494,187239,1272023
20,18,female,Belg,2,66,ITC,win,5,right,7,ITC_outcome,0,undefined,0,0,501,186224,1273038
20,18,female,Belg,2,67,guess,neutral,5,left,4,guess_start,692,space,0,0,501,185531,1273731
20,18,female,Belg,2,67,guess,neutral,5,left,4,guess_choice,888,f,0,0,501,184641,1274621
20,18,female,Belg,2,67,guess,neutral,5,left,4,guess_outcome,0,undefined,0,0,501,183081,1276181
20,18,female,Belg,2,67,ITC,neutral,5,left,4,ITC_start,620,space,0,0,501,182459,1276803
20,18,female,Belg,2,67,ITC,neutral,5,left,4,ITC_choice,1803,f,0,0,501,180654,1278608
20,18,female,Belg,2,67,ITC,neutral,5,left,4,ITC_wait,0,undefined,0,0,501,175652,1283610
20,18,female,Belg,2,67,ITC,neutral,5,left,4,ITC_collect,430,k,0,0,501,175221,1284041
20,18,female,Belg,2,67,ITC,neutral,5,left,4,ITC_outcome,0,undefined,0,0,521,174205,1285057
20,18,female,Belg,2,68,guess,win,5,right,5,guess_start,1627,space,0,0,521,172576,1286686
20,18,female,Belg,2,68,guess,win,5,right,5,guess_choice,555,j,0,0,521,172020,1287242
20,18,female,Belg,2,68,guess,win,5,right,5,guess_outcome,0,undefined,0,0,541,170457,1288805
20,18,female,Belg,2,68,ITC,win,5,right,5,ITC_start,764,space,0,0,541,169692,1289570
20,18,female,Belg,2,68,ITC,win,5,right,5,ITC_choice,1548,f,0,0,541,168143,1291119
20,18,female,Belg,2,68,ITC,win,5,right,5,ITC_wait,0,undefined,0,0,541,168141,1291121
20,18,female,Belg,2,68,ITC,win,5,right,5,ITC_collect,2225,k,0,0,541,165915,1293347
20,18,female,Belg,2,68,ITC,win,5,right,5,ITC_outcome,0,undefined,0,0,546,164912,1294350
20,18,female,Belg,2,69,guess,loss,10,left,5,guess_start,1012,space,0,0,546,163900,1295362
20,18,female,Belg,2,69,guess,loss,10,left,5,guess_choice,641,f,0,0,546,163257,1296005
20,18,female,Belg,2,69,guess,loss,10,left,5,guess_outcome,0,undefined,0,0,531,161704,1297558
20,18,female,Belg,2,69,ITC,loss,10,left,5,ITC_start,3202,space,0,0,531,158500,1300762
20,18,female,Belg,2,69,ITC,loss,10,left,5,ITC_choice,1185,f,0,0,531,157314,1301948
20,18,female,Belg,2,69,ITC,loss,10,left,5,ITC_wait,0,undefined,0,0,531,147299,1311963
20,18,female,Belg,2,69,ITC,loss,10,left,5,ITC_collect,1291,k,0,0,531,146007,1313255
20,18,female,Belg,2,69,ITC,loss,10,left,5,ITC_outcome,0,undefined,0,0,551,144990,1314272
20,18,female,Belg,2,70,guess,neutral,10,left,4,guess_start,2621,space,0,0,551,142368,1316894
20,18,female,Belg,2,70,guess,neutral,10,left,4,guess_choice,734,f,0,0,551,141632,1317630
20,18,female,Belg,2,70,guess,neutral,10,left,4,guess_outcome,0,undefined,0,0,551,140067,1319195
20,18,female,Belg,2,70,ITC,neutral,10,left,4,ITC_start,1561,space,0,0,551,138505,1320757
20,18,female,Belg,2,70,ITC,neutral,10,left,4,ITC_choice,833,f,0,0,551,137670,1321592
20,18,female,Belg,2,70,ITC,neutral,10,left,4,ITC_wait,0,undefined,0,0,551,127662,1331600
20,18,female,Belg,2,70,ITC,neutral,10,left,4,ITC_collect,646,k,0,0,551,127015,1332247
20,18,female,Belg,2,70,ITC,neutral,10,left,4,ITC_outcome,0,undefined,0,0,571,126012,1333250
20,18,female,Belg,2,71,guess,loss,5,left,9,guess_start,1395,space,0,0,571,124616,1334646
20,18,female,Belg,2,71,guess,loss,5,left,9,guess_choice,670,j,0,0,571,123944,1335318
20,18,female,Belg,2,71,guess,loss,5,left,9,guess_outcome,0,undefined,0,0,556,122390,1336872
20,18,female,Belg,2,71,ITC,loss,5,left,9,ITC_start,2144,space,0,0,556,120245,1339017
20,18,female,Belg,2,71,ITC,loss,5,left,9,ITC_choice,633,f,0,0,556,119612,1339650
20,18,female,Belg,2,71,ITC,loss,5,left,9,ITC_wait,0,undefined,0,0,556,114597,1344665
20,18,female,Belg,2,71,ITC,loss,5,left,9,ITC_collect,1847,k,0,0,556,112749,1346513
20,18,female,Belg,2,71,ITC,loss,5,left,9,ITC_outcome,0,undefined,0,0,576,111734,1347528
20,18,female,Belg,2,72,guess,win,5,left,15,guess_start,622,space,0,0,576,111110,1348152
20,18,female,Belg,2,72,guess,win,5,left,15,guess_choice,636,f,0,0,576,110473,1348789
20,18,female,Belg,2,72,guess,win,5,left,15,guess_outcome,0,undefined,0,0,596,108919,1350343
20,18,female,Belg,2,72,ITC,win,5,left,15,ITC_start,927,space,0,0,596,107992,1351270
20,18,female,Belg,2,72,ITC,win,5,left,15,ITC_choice,1371,j,0,0,596,106620,1352642
20,18,female,Belg,2,72,ITC,win,5,left,15,ITC_wait,0,undefined,0,0,596,106617,1352645
20,18,female,Belg,2,72,ITC,win,5,left,15,ITC_collect,994,k,0,0,596,105622,1353640
20,18,female,Belg,2,72,ITC,win,5,left,15,ITC_outcome,0,undefined,0,0,611,104612,1354650
20,18,female,Belg,2,73,guess,loss,10,left,4,guess_start,593,space,0,0,611,104017,1355245
20,18,female,Belg,2,73,guess,loss,10,left,4,guess_choice,589,f,0,0,611,103426,1355836
20,18,female,Belg,2,73,guess,loss,10,left,4,guess_outcome,0,undefined,0,0,596,101870,1357392
20,18,female,Belg,2,73,ITC,loss,10,left,4,ITC_start,538,space,0,0,596,101331,1357931
20,18,female,Belg,2,73,ITC,loss,10,left,4,ITC_choice,2435,j,0,0,596,98895,1360367
20,18,female,Belg,2,73,ITC,loss,10,left,4,ITC_wait,0,undefined,0,0,596,98892,1360370
20,18,female,Belg,2,73,ITC,loss,10,left,4,ITC_collect,749,k,0,0,596,98142,1361120
20,18,female,Belg,2,73,ITC,loss,10,left,4,ITC_outcome,0,undefined,0,0,600,97140,1362122
20,18,female,Belg,2,74,guess,win,5,right,5,guess_start,823,space,0,0,600,96315,1362947
20,18,female,Belg,2,74,guess,win,5,right,5,guess_choice,718,f,0,0,600,95596,1363666
20,18,female,Belg,2,74,guess,win,5,right,5,guess_outcome,0,undefined,0,0,620,94040,1365222
20,18,female,Belg,2,74,ITC,win,5,right,5,ITC_start,1205,space,0,0,620,92834,1366428
20,18,female,Belg,2,74,ITC,win,5,right,5,ITC_choice,1248,f,0,0,620,91585,1367677
20,18,female,Belg,2,74,ITC,win,5,right,5,ITC_wait,0,undefined,0,0,620,91583,1367679
20,18,female,Belg,2,74,ITC,win,5,right,5,ITC_collect,773,k,0,0,620,90809,1368453
20,18,female,Belg,2,74,ITC,win,5,right,5,ITC_outcome,0,undefined,0,0,625,89807,1369455
20,18,female,Belg,2,75,guess,loss,10,right,7,guess_start,405,space,0,0,625,89400,1369862
20,18,female,Belg,2,75,guess,loss,10,right,7,guess_choice,674,j,0,0,625,88724,1370538
20,18,female,Belg,2,75,guess,loss,10,right,7,guess_outcome,0,undefined,0,0,610,87160,1372102
20,18,female,Belg,2,75,ITC,loss,10,right,7,ITC_start,1210,space,0,0,610,85949,1373313
20,18,female,Belg,2,75,ITC,loss,10,right,7,ITC_choice,1013,j,0,0,610,84935,1374327
20,18,female,Belg,2,75,ITC,loss,10,right,7,ITC_wait,0,undefined,0,0,610,74925,1384337
20,18,female,Belg,2,75,ITC,loss,10,right,7,ITC_collect,783,k,0,0,610,74141,1385121
20,18,female,Belg,2,75,ITC,loss,10,right,7,ITC_outcome,0,undefined,0,0,630,73134,1386128
20,18,female,Belg,2,76,guess,loss,5,right,16,guess_start,1180,space,0,0,630,71953,1387309
20,18,female,Belg,2,76,guess,loss,5,right,16,guess_choice,534,j,0,0,630,71417,1387845
20,18,female,Belg,2,76,guess,loss,5,right,16,guess_outcome,0,undefined,0,0,615,69864,1389398
20,18,female,Belg,2,76,ITC,loss,5,right,16,ITC_start,817,space,0,0,615,69046,1390216
20,18,female,Belg,2,76,ITC,loss,5,right,16,ITC_choice,1141,f,0,0,615,67904,1391358
20,18,female,Belg,2,76,ITC,loss,5,right,16,ITC_wait,0,undefined,0,0,615,67902,1391360
20,18,female,Belg,2,76,ITC,loss,5,right,16,ITC_collect,506,k,0,0,615,67394,1391868
20,18,female,Belg,2,76,ITC,loss,5,right,16,ITC_outcome,0,undefined,0,0,631,66380,1392882
20,18,female,Belg,2,77,guess,neutral,10,right,5,guess_start,1152,space,0,0,631,65227,1394035
20,18,female,Belg,2,77,guess,neutral,10,right,5,guess_choice,834,j,0,0,631,64391,1394871
20,18,female,Belg,2,77,guess,neutral,10,right,5,guess_outcome,0,undefined,0,0,631,62828,1396434
20,18,female,Belg,2,77,ITC,neutral,10,right,5,ITC_start,947,space,0,0,631,61880,1397382
20,18,female,Belg,2,77,ITC,neutral,10,right,5,ITC_choice,1056,j,0,0,631,60823,1398439
20,18,female,Belg,2,77,ITC,neutral,10,right,5,ITC_wait,0,undefined,0,0,631,50819,1408443
20,18,female,Belg,2,77,ITC,neutral,10,right,5,ITC_collect,628,k,0,0,631,50190,1409072
20,18,female,Belg,2,77,ITC,neutral,10,right,5,ITC_outcome,0,undefined,0,0,651,49188,1410074
20,18,female,Belg,2,78,guess,neutral,10,right,4,guess_start,3312,space,0,0,651,45875,1413387
20,18,female,Belg,2,78,guess,neutral,10,right,4,guess_choice,837,f,0,0,651,45037,1414225
20,18,female,Belg,2,78,guess,neutral,10,right,4,guess_outcome,0,undefined,0,0,651,43481,1415781
20,18,female,Belg,2,78,ITC,neutral,10,right,4,ITC_start,922,space,0,0,651,42557,1416705
20,18,female,Belg,2,78,ITC,neutral,10,right,4,ITC_choice,1372,f,0,0,651,41183,1418079
20,18,female,Belg,2,78,ITC,neutral,10,right,4,ITC_wait,0,undefined,0,0,651,41180,1418082
20,18,female,Belg,2,78,ITC,neutral,10,right,4,ITC_collect,724,k,0,0,651,40456,1418806
20,18,female,Belg,2,78,ITC,neutral,10,right,4,ITC_outcome,0,undefined,0,0,655,39452,1419810
20,18,female,Belg,2,79,guess,win,5,right,15,guess_start,559,space,0,0,655,38891,1420371
20,18,female,Belg,2,79,guess,win,5,right,15,guess_choice,972,f,0,0,655,37917,1421345
20,18,female,Belg,2,79,guess,win,5,right,15,guess_outcome,0,undefined,0,0,675,36359,1422903
20,18,female,Belg,2,79,ITC,win,5,right,15,ITC_start,869,space,0,0,675,35489,1423773
20,18,female,Belg,2,79,ITC,win,5,right,15,ITC_choice,642,f,0,0,675,34845,1424417
20,18,female,Belg,2,79,ITC,win,5,right,15,ITC_wait,0,undefined,0,0,675,34843,1424419
20,18,female,Belg,2,79,ITC,win,5,right,15,ITC_collect,864,k,0,0,675,33978,1425284
20,18,female,Belg,2,79,ITC,win,5,right,15,ITC_outcome,0,undefined,0,0,690,32971,1426291
20,18,female,Belg,2,80,guess,neutral,5,left,1,guess_start,465,space,0,0,690,32504,1426758
20,18,female,Belg,2,80,guess,neutral,5,left,1,guess_choice,865,j,0,0,690,31638,1427624
20,18,female,Belg,2,80,guess,neutral,5,left,1,guess_outcome,0,undefined,0,0,690,30070,1429192
20,18,female,Belg,2,80,ITC,neutral,5,left,1,ITC_start,865,space,0,0,690,29204,1430058
20,18,female,Belg,2,80,ITC,neutral,5,left,1,ITC_choice,846,j,0,0,690,28357,1430905
20,18,female,Belg,2,80,ITC,neutral,5,left,1,ITC_wait,0,undefined,0,0,690,28354,1430908
20,18,female,Belg,2,80,ITC,neutral,5,left,1,ITC_collect,677,k,0,0,690,27676,1431586
20,18,female,Belg,2,80,ITC,neutral,5,left,1,ITC_outcome,0,undefined,0,0,691,26662,1432600
20,18,female,Belg,2,81,guess,loss,10,right,5,guess_start,912,space,0,0,691,25748,1433514
20,18,female,Belg,2,81,guess,loss,10,right,5,guess_choice,804,f,0,0,691,24943,1434319
20,18,female,Belg,2,81,guess,loss,10,right,5,guess_outcome,0,undefined,0,0,676,23377,1435885
20,18,female,Belg,2,81,ITC,loss,10,right,5,ITC_start,371,space,0,0,676,23004,1436258
20,18,female,Belg,2,81,ITC,loss,10,right,5,ITC_choice,861,f,0,0,676,22142,1437120
20,18,female,Belg,2,81,ITC,loss,10,right,5,ITC_wait,0,undefined,0,0,676,22140,1437122
20,18,female,Belg,2,81,ITC,loss,10,right,5,ITC_collect,546,k,0,0,676,21593,1437669
20,18,female,Belg,2,81,ITC,loss,10,right,5,ITC_outcome,0,undefined,0,0,681,20585,1438677
20,18,female,Belg,2,82,guess,neutral,10,left,8,guess_start,1034,space,0,0,681,19550,1439712
20,18,female,Belg,2,82,guess,neutral,10,left,8,guess_choice,659,j,0,0,681,18889,1440373
20,18,female,Belg,2,82,guess,neutral,10,left,8,guess_outcome,0,undefined,0,0,681,17325,1441937
20,18,female,Belg,2,82,ITC,neutral,10,left,8,ITC_start,506,space,0,0,681,16818,1442444
20,18,female,Belg,2,82,ITC,neutral,10,left,8,ITC_choice,874,j,0,0,681,15943,1443319
20,18,female,Belg,2,82,ITC,neutral,10,left,8,ITC_wait,0,undefined,0,0,681,15940,1443322
20,18,female,Belg,2,82,ITC,neutral,10,left,8,ITC_collect,376,k,0,0,681,15563,1443699
20,18,female,Belg,2,82,ITC,neutral,10,left,8,ITC_outcome,0,undefined,0,0,689,14547,1444715
20,18,female,Belg,2,83,guess,win,5,right,11,guess_start,1434,space,0,0,689,13112,1446150
20,18,female,Belg,2,83,guess,win,5,right,11,guess_choice,808,j,0,0,689,12302,1446960
20,18,female,Belg,2,83,guess,win,5,right,11,guess_outcome,0,undefined,0,0,709,10740,1448522
20,18,female,Belg,2,83,ITC,win,5,right,11,ITC_start,810,space,0,0,709,9929,1449333
20,18,female,Belg,2,83,ITC,win,5,right,11,ITC_choice,812,f,0,0,709,9116,1450146
20,18,female,Belg,2,83,ITC,win,5,right,11,ITC_wait,0,undefined,0,0,709,9114,1450148
20,18,female,Belg,2,83,ITC,win,5,right,11,ITC_collect,643,k,0,0,709,8469,1450793
20,18,female,Belg,2,83,ITC,win,5,right,11,ITC_outcome,0,undefined,0,0,720,7463,1451799
20,18,female,Belg,2,84,guess,loss,5,left,4,guess_start,1299,space,0,0,720,6163,1453099
20,18,female,Belg,2,84,guess,loss,5,left,4,guess_choice,714,j,0,0,720,5448,1453814
20,18,female,Belg,2,84,guess,loss,5,left,4,guess_outcome,0,undefined,0,0,705,3890,1455372
20,18,female,Belg,2,84,ITC,loss,5,left,4,ITC_start,462,space,0,0,705,3426,1455836
20,18,female,Belg,2,84,ITC,loss,5,left,4,ITC_choice,1879,f,0,0,705,1546,1457716
20,18,female,Belg,2,84,ITC,loss,5,left,4,ITC_wait,0,undefined,0,0,705,-12,1459274
20,18,female,Belg,3,85,guess,win,5,right,1,guess_start,852,space,0,0,0,479147,1553655
20,18,female,Belg,3,85,guess,win,5,right,1,guess_choice,629,j,0,0,0,478516,1554286
20,18,female,Belg,3,85,guess,win,5,right,1,guess_outcome,0,undefined,0,0,20,476963,1555839
20,18,female,Belg,3,85,ITC,win,5,right,1,ITC_start,1455,space,0,0,20,475506,1557296
20,18,female,Belg,3,85,ITC,win,5,right,1,ITC_choice,2430,f,0,0,20,473075,1559727
20,18,female,Belg,3,85,ITC,win,5,right,1,ITC_wait,0,undefined,0,0,20,473073,1559729
20,18,female,Belg,3,85,ITC,win,5,right,1,ITC_collect,464,k,0,0,20,472608,1560194
20,18,female,Belg,3,85,ITC,win,5,right,1,ITC_outcome,0,undefined,0,0,21,471602,1561200
20,18,female,Belg,3,86,guess,neutral,10,right,1,guess_start,626,space,0,0,21,470975,1561827
20,18,female,Belg,3,86,guess,neutral,10,right,1,guess_choice,639,j,0,0,21,470334,1562468
20,18,female,Belg,3,86,guess,neutral,10,right,1,guess_outcome,0,undefined,0,0,21,468767,1564035
20,18,female,Belg,3,86,ITC,neutral,10,right,1,ITC_start,549,space,0,0,21,468217,1564585
20,18,female,Belg,3,86,ITC,neutral,10,right,1,ITC_choice,938,j,0,0,21,467278,1565524
20,18,female,Belg,3,86,ITC,neutral,10,right,1,ITC_wait,0,undefined,0,0,21,457265,1575537
20,18,female,Belg,3,86,ITC,neutral,10,right,1,ITC_collect,481,k,0,0,21,456783,1576019
20,18,female,Belg,3,86,ITC,neutral,10,right,1,ITC_outcome,0,undefined,0,0,41,455772,1577030
20,18,female,Belg,3,87,guess,win,5,left,12,guess_start,734,space,0,0,41,455036,1577766
20,18,female,Belg,3,87,guess,win,5,left,12,guess_choice,1057,f,0,0,41,453977,1578825
20,18,female,Belg,3,87,guess,win,5,left,12,guess_outcome,0,undefined,0,0,61,452411,1580391
20,18,female,Belg,3,87,ITC,win,5,left,12,ITC_start,563,space,0,0,61,451847,1580955
20,18,female,Belg,3,87,ITC,win,5,left,12,ITC_choice,1120,j,0,0,61,450726,1582076
20,18,female,Belg,3,87,ITC,win,5,left,12,ITC_wait,0,undefined,0,0,61,450722,1582080
20,18,female,Belg,3,87,ITC,win,5,left,12,ITC_collect,607,k,0,0,61,450114,1582688
20,18,female,Belg,3,87,ITC,win,5,left,12,ITC_outcome,0,undefined,0,0,73,449111,1583691
20,18,female,Belg,3,88,guess,neutral,5,right,7,guess_start,458,space,0,0,73,448652,1584150
20,18,female,Belg,3,88,guess,neutral,5,right,7,guess_choice,611,j,0,0,73,448038,1584764
20,18,female,Belg,3,88,guess,neutral,5,right,7,guess_outcome,0,undefined,0,0,73,446484,1586318
20,18,female,Belg,3,88,ITC,neutral,5,right,7,ITC_start,906,space,0,0,73,445577,1587225
20,18,female,Belg,3,88,ITC,neutral,5,right,7,ITC_choice,1790,f,0,0,73,443786,1589016
20,18,female,Belg,3,88,ITC,neutral,5,right,7,ITC_wait,0,undefined,0,0,73,443783,1589019
20,18,female,Belg,3,88,ITC,neutral,5,right,7,ITC_collect,392,k,0,0,73,443390,1589412
20,18,female,Belg,3,88,ITC,neutral,5,right,7,ITC_outcome,0,undefined,0,0,80,442387,1590415
20,18,female,Belg,3,89,guess,loss,5,left,15,guess_start,297,space,0,0,80,442089,1590713
20,18,female,Belg,3,89,guess,loss,5,left,15,guess_choice,514,j,0,0,80,441573,1591229
20,18,female,Belg,3,89,guess,loss,5,left,15,guess_outcome,0,undefined,0,0,65,440015,1592787
20,18,female,Belg,3,89,ITC,loss,5,left,15,ITC_start,863,space,0,0,65,439152,1593650
20,18,female,Belg,3,89,ITC,loss,5,left,15,ITC_choice,848,j,0,0,65,438303,1594499
20,18,female,Belg,3,89,ITC,loss,5,left,15,ITC_wait,0,undefined,0,0,65,438300,1594502
20,18,female,Belg,3,89,ITC,loss,5,left,15,ITC_collect,493,k,0,0,65,437807,1594995
20,18,female,Belg,3,89,ITC,loss,5,left,15,ITC_outcome,0,undefined,0,0,80,436799,1596003
20,18,female,Belg,3,90,guess,neutral,5,right,16,guess_start,525,space,0,0,80,436273,1596529
20,18,female,Belg,3,90,guess,neutral,5,right,16,guess_choice,820,f,0,0,80,435451,1597351
20,18,female,Belg,3,90,guess,neutral,5,right,16,guess_outcome,0,undefined,0,0,80,433887,1598915
20,18,female,Belg,3,90,ITC,neutral,5,right,16,ITC_start,530,space,0,0,80,433355,1599447
20,18,female,Belg,3,90,ITC,neutral,5,right,16,ITC_choice,676,f,0,0,80,432679,1600123
20,18,female,Belg,3,90,ITC,neutral,5,right,16,ITC_wait,0,undefined,0,0,80,432676,1600126
20,18,female,Belg,3,90,ITC,neutral,5,right,16,ITC_collect,303,k,0,0,80,432372,1600430
20,18,female,Belg,3,90,ITC,neutral,5,right,16,ITC_outcome,0,undefined,0,0,96,431356,1601446
20,18,female,Belg,3,91,guess,win,5,left,14,guess_start,557,space,0,0,96,430798,1602004
20,18,female,Belg,3,91,guess,win,5,left,14,guess_choice,784,j,0,0,96,430013,1602789
20,18,female,Belg,3,91,guess,win,5,left,14,guess_outcome,0,undefined,0,0,116,428447,1604355
20,18,female,Belg,3,91,ITC,win,5,left,14,ITC_start,1933,space,0,0,116,426513,1606289
20,18,female,Belg,3,91,ITC,win,5,left,14,ITC_choice,866,j,0,0,116,425645,1607157
20,18,female,Belg,3,91,ITC,win,5,left,14,ITC_wait,0,undefined,0,0,116,425643,1607159
20,18,female,Belg,3,91,ITC,win,5,left,14,ITC_collect,254,k,0,0,116,425388,1607414
20,18,female,Belg,3,91,ITC,win,5,left,14,ITC_outcome,0,undefined,0,0,130,424384,1608418
20,18,female,Belg,3,92,guess,loss,5,left,2,guess_start,2049,space,0,0,130,422332,1610470
20,18,female,Belg,3,92,guess,loss,5,left,2,guess_choice,826,j,0,0,130,421505,1611297
20,18,female,Belg,3,92,guess,loss,5,left,2,guess_outcome,0,undefined,0,0,115,419938,1612864
20,18,female,Belg,3,92,ITC,loss,5,left,2,ITC_start,1797,space,0,0,115,418140,1614662
20,18,female,Belg,3,92,ITC,loss,5,left,2,ITC_choice,1370,f,0,0,115,416769,1616033
20,18,female,Belg,3,92,ITC,loss,5,left,2,ITC_wait,0,undefined,0,0,115,411761,1621041
20,18,female,Belg,3,92,ITC,loss,5,left,2,ITC_collect,635,k,0,0,115,411124,1621678
20,18,female,Belg,3,92,ITC,loss,5,left,2,ITC_outcome,0,undefined,0,0,135,410117,1622685
20,18,female,Belg,3,93,guess,neutral,10,left,6,guess_start,637,space,0,0,135,409478,1623324
20,18,female,Belg,3,93,guess,neutral,10,left,6,guess_choice,603,f,0,0,135,408873,1623929
20,18,female,Belg,3,93,guess,neutral,10,left,6,guess_outcome,0,undefined,0,0,135,407318,1625484
20,18,female,Belg,3,93,ITC,neutral,10,left,6,ITC_start,380,space,0,0,135,406937,1625865
20,18,female,Belg,3,93,ITC,neutral,10,left,6,ITC_choice,1383,j,0,0,135,405553,1627249
20,18,female,Belg,3,93,ITC,neutral,10,left,6,ITC_wait,0,undefined,0,0,135,405551,1627251
20,18,female,Belg,3,93,ITC,neutral,10,left,6,ITC_collect,605,k,0,0,135,404944,1627858
20,18,female,Belg,3,93,ITC,neutral,10,left,6,ITC_outcome,0,undefined,0,0,141,403929,1628873
20,18,female,Belg,3,94,guess,neutral,10,right,3,guess_start,390,space,0,0,141,403537,1629265
20,18,female,Belg,3,94,guess,neutral,10,right,3,guess_choice,627,f,0,0,141,402907,1629895
20,18,female,Belg,3,94,guess,neutral,10,right,3,guess_outcome,0,undefined,0,0,141,401350,1631452
20,18,female,Belg,3,94,ITC,neutral,10,right,3,ITC_start,825,space,0,0,141,400524,1632278
20,18,female,Belg,3,94,ITC,neutral,10,right,3,ITC_choice,1294,j,0,0,141,399229,1633573
20,18,female,Belg,3,94,ITC,neutral,10,right,3,ITC_wait,0,undefined,0,0,141,389218,1643584
20,18,female,Belg,3,94,ITC,neutral,10,right,3,ITC_collect,522,k,0,0,141,388694,1644108
20,18,female,Belg,3,94,ITC,neutral,10,right,3,ITC_outcome,0,undefined,0,0,161,387681,1645121
20,18,female,Belg,3,95,guess,neutral,5,left,14,guess_start,787,space,0,0,161,386892,1645910
20,18,female,Belg,3,95,guess,neutral,5,left,14,guess_choice,610,f,0,0,161,386280,1646522
20,18,female,Belg,3,95,guess,neutral,5,left,14,guess_outcome,0,undefined,0,0,161,384715,1648087
20,18,female,Belg,3,95,ITC,neutral,5,left,14,ITC_start,587,space,0,0,161,384127,1648675
20,18,female,Belg,3,95,ITC,neutral,5,left,14,ITC_choice,2014,j,0,0,161,382111,1650691
20,18,female,Belg,3,95,ITC,neutral,5,left,14,ITC_wait,0,undefined,0,0,161,382109,1650693
20,18,female,Belg,3,95,ITC,neutral,5,left,14,ITC_collect,396,k,0,0,161,381712,1651090
20,18,female,Belg,3,95,ITC,neutral,5,left,14,ITC_outcome,0,undefined,0,0,175,380697,1652105
20,18,female,Belg,3,96,guess,loss,5,right,11,guess_start,1382,space,0,0,175,379313,1653489
20,18,female,Belg,3,96,guess,loss,5,right,11,guess_choice,790,j,0,0,175,378522,1654280
20,18,female,Belg,3,96,guess,loss,5,right,11,guess_outcome,0,undefined,0,0,160,376963,1655839
20,18,female,Belg,3,96,ITC,loss,5,right,11,ITC_start,589,space,0,0,160,376372,1656430
20,18,female,Belg,3,96,ITC,loss,5,right,11,ITC_choice,1079,f,0,0,160,375292,1657510
20,18,female,Belg,3,96,ITC,loss,5,right,11,ITC_wait,0,undefined,0,0,160,375289,1657513
20,18,female,Belg,3,96,ITC,loss,5,right,11,ITC_collect,1568,k,0,0,160,373721,1659081
20,18,female,Belg,3,96,ITC,loss,5,right,11,ITC_outcome,0,undefined,0,0,171,372719,1660083
20,18,female,Belg,3,97,guess,win,5,right,6,guess_start,264,space,0,0,171,372454,1660348
20,18,female,Belg,3,97,guess,win,5,right,6,guess_choice,632,f,0,0,171,371820,1660982
20,18,female,Belg,3,97,guess,win,5,right,6,guess_outcome,0,undefined,0,0,191,370258,1662544
20,18,female,Belg,3,97,ITC,win,5,right,6,ITC_start,704,space,0,0,191,369553,1663249
20,18,female,Belg,3,97,ITC,win,5,right,6,ITC_choice,1586,f,0,0,191,367967,1664835
20,18,female,Belg,3,97,ITC,win,5,right,6,ITC_wait,0,undefined,0,0,191,367965,1664837
20,18,female,Belg,3,97,ITC,win,5,right,6,ITC_collect,332,k,0,0,191,367632,1665170
20,18,female,Belg,3,97,ITC,win,5,right,6,ITC_outcome,0,undefined,0,0,197,366618,1666184
20,18,female,Belg,3,98,guess,win,5,right,13,guess_start,690,space,0,0,197,365926,1666876
20,18,female,Belg,3,98,guess,win,5,right,13,guess_choice,486,f,0,0,197,365439,1667363
20,18,female,Belg,3,98,guess,win,5,right,13,guess_outcome,0,undefined,0,0,217,363873,1668929
20,18,female,Belg,3,98,ITC,win,5,right,13,ITC_start,749,space,0,0,217,363122,1669680
20,18,female,Belg,3,98,ITC,win,5,right,13,ITC_choice,1922,f,0,0,217,361199,1671603
20,18,female,Belg,3,98,ITC,win,5,right,13,ITC_wait,0,undefined,0,0,217,361197,1671605
20,18,female,Belg,3,98,ITC,win,5,right,13,ITC_collect,570,k,0,0,217,360625,1672177
20,18,female,Belg,3,98,ITC,win,5,right,13,ITC_outcome,0,undefined,0,0,230,359623,1673179
20,18,female,Belg,3,99,guess,loss,5,left,14,guess_start,606,space,0,0,230,359016,1673786
20,18,female,Belg,3,99,guess,loss,5,left,14,guess_choice,825,j,0,0,230,358189,1674613
20,18,female,Belg,3,99,guess,loss,5,left,14,guess_outcome,0,undefined,0,0,215,356628,1676174
20,18,female,Belg,3,99,ITC,loss,5,left,14,ITC_start,670,space,0,0,215,355957,1676845
20,18,female,Belg,3,99,ITC,loss,5,left,14,ITC_choice,1121,j,0,0,215,354834,1677968
20,18,female,Belg,3,99,ITC,loss,5,left,14,ITC_wait,0,undefined,0,0,215,354832,1677970
20,18,female,Belg,3,99,ITC,loss,5,left,14,ITC_collect,299,k,0,0,215,354533,1678269
20,18,female,Belg,3,99,ITC,loss,5,left,14,ITC_outcome,0,undefined,0,0,229,353525,1679277
20,18,female,Belg,3,100,guess,loss,5,left,5,guess_start,472,space,0,0,229,353051,1679751
20,18,female,Belg,3,100,guess,loss,5,left,5,guess_choice,669,f,0,0,229,352380,1680422
20,18,female,Belg,3,100,guess,loss,5,left,5,guess_outcome,0,undefined,0,0,214,350827,1681975
20,18,female,Belg,3,100,ITC,loss,5,left,5,ITC_start,712,space,0,0,214,350114,1682688
20,18,female,Belg,3,100,ITC,loss,5,left,5,ITC_choice,1446,f,0,0,214,348666,1684136
20,18,female,Belg,3,100,ITC,loss,5,left,5,ITC_wait,0,undefined,0,0,214,343650,1689152
20,18,female,Belg,3,100,ITC,loss,5,left,5,ITC_collect,834,k,0,0,214,342815,1689987
20,18,female,Belg,3,100,ITC,loss,5,left,5,ITC_outcome,0,undefined,0,0,234,341798,1691004
20,18,female,Belg,3,101,guess,loss,5,right,8,guess_start,410,space,0,0,234,341387,1691415
20,18,female,Belg,3,101,guess,loss,5,right,8,guess_choice,496,j,0,0,234,340889,1691913
20,18,female,Belg,3,101,guess,loss,5,right,8,guess_outcome,0,undefined,0,0,219,339326,1693476
20,18,female,Belg,3,101,ITC,loss,5,right,8,ITC_start,807,space,0,0,219,338518,1694284
20,18,female,Belg,3,101,ITC,loss,5,right,8,ITC_choice,1765,f,0,0,219,336752,1696050
20,18,female,Belg,3,101,ITC,loss,5,right,8,ITC_wait,0,undefined,0,0,219,336749,1696053
20,18,female,Belg,3,101,ITC,loss,5,right,8,ITC_collect,398,k,0,0,219,336350,1696452
20,18,female,Belg,3,101,ITC,loss,5,right,8,ITC_outcome,0,undefined,0,0,227,335340,1697462
20,18,female,Belg,3,102,guess,loss,5,left,1,guess_start,495,space,0,0,227,334844,1697958
20,18,female,Belg,3,102,guess,loss,5,left,1,guess_choice,614,j,0,0,227,334228,1698574
20,18,female,Belg,3,102,guess,loss,5,left,1,guess_outcome,0,undefined,0,0,212,332672,1700130
20,18,female,Belg,3,102,ITC,loss,5,left,1,ITC_start,449,space,0,0,212,332221,1700581
20,18,female,Belg,3,102,ITC,loss,5,left,1,ITC_choice,1439,f,0,0,212,330782,1702020
20,18,female,Belg,3,102,ITC,loss,5,left,1,ITC_wait,0,undefined,0,0,212,325769,1707033
20,18,female,Belg,3,102,ITC,loss,5,left,1,ITC_collect,841,k,0,0,212,324926,1707876
20,18,female,Belg,3,102,ITC,loss,5,left,1,ITC_outcome,0,undefined,0,0,232,323914,1708888
20,18,female,Belg,3,103,guess,neutral,5,left,9,guess_start,1539,space,0,0,232,322374,1710428
20,18,female,Belg,3,103,guess,neutral,5,left,9,guess_choice,851,f,0,0,232,321521,1711281
20,18,female,Belg,3,103,guess,neutral,5,left,9,guess_outcome,0,undefined,0,0,232,319964,1712838
20,18,female,Belg,3,103,ITC,neutral,5,left,9,ITC_start,1047,space,0,0,232,318915,1713887
20,18,female,Belg,3,103,ITC,neutral,5,left,9,ITC_choice,1337,f,0,0,232,317577,1715225
20,18,female,Belg,3,103,ITC,neutral,5,left,9,ITC_wait,0,undefined,0,0,232,312569,1720233
20,18,female,Belg,3,103,ITC,neutral,5,left,9,ITC_collect,690,k,0,0,232,311877,1720925
20,18,female,Belg,3,103,ITC,neutral,5,left,9,ITC_outcome,0,undefined,0,0,252,310869,1721933
20,18,female,Belg,3,104,guess,neutral,5,right,3,guess_start,739,space,0,0,252,310129,1722673
20,18,female,Belg,3,104,guess,neutral,5,right,3,guess_choice,598,j,0,0,252,309529,1723273
20,18,female,Belg,3,104,guess,neutral,5,right,3,guess_outcome,0,undefined,0,0,252,307964,1724838
20,18,female,Belg,3,104,ITC,neutral,5,right,3,ITC_start,464,space,0,0,252,307498,1725304
20,18,female,Belg,3,104,ITC,neutral,5,right,3,ITC_choice,1016,j,0,0,252,306481,1726321
20,18,female,Belg,3,104,ITC,neutral,5,right,3,ITC_wait,0,undefined,0,0,252,301473,1731329
20,18,female,Belg,3,104,ITC,neutral,5,right,3,ITC_collect,903,k,0,0,252,300568,1732234
20,18,female,Belg,3,104,ITC,neutral,5,right,3,ITC_outcome,0,undefined,0,0,272,299553,1733249
20,18,female,Belg,3,105,guess,win,10,right,8,guess_start,391,space,0,0,272,299160,1733642
20,18,female,Belg,3,105,guess,win,10,right,8,guess_choice,847,f,0,0,272,298311,1734491
20,18,female,Belg,3,105,guess,win,10,right,8,guess_outcome,0,undefined,0,0,292,296750,1736052
20,18,female,Belg,3,105,ITC,win,10,right,8,ITC_start,457,space,0,0,292,296291,1736511
20,18,female,Belg,3,105,ITC,win,10,right,8,ITC_choice,984,f,0,0,292,295306,1737496
20,18,female,Belg,3,105,ITC,win,10,right,8,ITC_wait,0,undefined,0,0,292,295303,1737499
20,18,female,Belg,3,105,ITC,win,10,right,8,ITC_collect,289,k,0,0,292,295013,1737789
20,18,female,Belg,3,105,ITC,win,10,right,8,ITC_outcome,0,undefined,0,0,300,294006,1738796
20,18,female,Belg,3,106,guess,win,5,left,8,guess_start,161,space,0,0,300,293843,1738959
20,18,female,Belg,3,106,guess,win,5,left,8,guess_choice,674,f,0,0,300,293168,1739634
20,18,female,Belg,3,106,guess,win,5,left,8,guess_outcome,0,undefined,0,0,320,291609,1741193
20,18,female,Belg,3,106,ITC,win,5,left,8,ITC_start,538,space,0,0,320,291070,1741732
20,18,female,Belg,3,106,ITC,win,5,left,8,ITC_choice,1637,j,0,0,320,289432,1743370
20,18,female,Belg,3,106,ITC,win,5,left,8,ITC_wait,0,undefined,0,0,320,289429,1743373
20,18,female,Belg,3,106,ITC,win,5,left,8,ITC_collect,288,k,0,0,320,289139,1743663
20,18,female,Belg,3,106,ITC,win,5,left,8,ITC_outcome,0,undefined,0,0,328,288130,1744672
20,18,female,Belg,3,107,guess,neutral,5,right,2,guess_start,811,space,0,0,328,287317,1745485
20,18,female,Belg,3,107,guess,neutral,5,right,2,guess_choice,1067,f,0,0,328,286249,1746553
20,18,female,Belg,3,107,guess,neutral,5,right,2,guess_outcome,0,undefined,0,0,328,284686,1748116
20,18,female,Belg,3,107,ITC,neutral,5,right,2,ITC_start,764,space,0,0,328,283921,1748881
20,18,female,Belg,3,107,ITC,neutral,5,right,2,ITC_choice,1885,j,0,0,328,282035,1750767
20,18,female,Belg,3,107,ITC,neutral,5,right,2,ITC_wait,0,undefined,0,0,328,277026,1755776
20,18,female,Belg,3,107,ITC,neutral,5,right,2,ITC_collect,706,k,0,0,328,276317,1756485
20,18,female,Belg,3,107,ITC,neutral,5,right,2,ITC_outcome,0,undefined,0,0,348,275313,1757489
20,18,female,Belg,3,108,guess,win,5,left,2,guess_start,958,space,0,0,348,274353,1758449
20,18,female,Belg,3,108,guess,win,5,left,2,guess_choice,681,j,0,0,348,273670,1759132
20,18,female,Belg,3,108,guess,win,5,left,2,guess_outcome,0,undefined,0,0,368,272107,1760695
20,18,female,Belg,3,108,ITC,win,5,left,2,ITC_start,1662,space,0,0,368,270443,1762359
20,18,female,Belg,3,108,ITC,win,5,left,2,ITC_choice,1999,f,0,0,368,268443,1764359
20,18,female,Belg,3,108,ITC,win,5,left,2,ITC_wait,0,undefined,0,0,368,263439,1769363
20,18,female,Belg,3,108,ITC,win,5,left,2,ITC_collect,600,k,0,0,368,262838,1769964
20,18,female,Belg,3,108,ITC,win,5,left,2,ITC_outcome,0,undefined,0,0,388,261829,1770973
20,18,female,Belg,3,109,guess,win,10,left,4,guess_start,872,space,0,0,388,260955,1771847
20,18,female,Belg,3,109,guess,win,10,left,4,guess_choice,499,j,0,0,388,260454,1772348
20,18,female,Belg,3,109,guess,win,10,left,4,guess_outcome,0,undefined,0,0,408,258891,1773911
20,18,female,Belg,3,109,ITC,win,10,left,4,ITC_start,710,space,0,0,408,258180,1774622
20,18,female,Belg,3,109,ITC,win,10,left,4,ITC_choice,1019,j,0,0,408,257160,1775642
20,18,female,Belg,3,109,ITC,win,10,left,4,ITC_wait,0,undefined,0,0,408,257157,1775645
20,18,female,Belg,3,109,ITC,win,10,left,4,ITC_collect,281,k,0,0,408,256876,1775926
20,18,female,Belg,3,109,ITC,win,10,left,4,ITC_outcome,0,undefined,0,0,412,255865,1776937
20,18,female,Belg,3,110,guess,win,10,left,5,guess_start,778,space,0,0,412,255085,1777717
20,18,female,Belg,3,110,guess,win,10,left,5,guess_choice,1826,f,0,0,412,253257,1779545
20,18,female,Belg,3,110,guess,win,10,left,5,guess_outcome,0,undefined,0,0,432,251700,1781102
20,18,female,Belg,3,110,ITC,win,10,left,5,ITC_start,2050,space,0,0,432,249649,1783153
20,18,female,Belg,3,110,ITC,win,10,left,5,ITC_choice,1521,j,0,0,432,248127,1784675
20,18,female,Belg,3,110,ITC,win,10,left,5,ITC_wait,0,undefined,0,0,432,248124,1784678
20,18,female,Belg,3,110,ITC,win,10,left,5,ITC_collect,351,k,0,0,432,247772,1785030
20,18,female,Belg,3,110,ITC,win,10,left,5,ITC_outcome,0,undefined,0,0,437,246760,1786042
20,18,female,Belg,3,111,guess,loss,5,left,10,guess_start,433,space,0,0,437,246326,1786476
20,18,female,Belg,3,111,guess,loss,5,left,10,guess_choice,572,j,0,0,437,245752,1787050
20,18,female,Belg,3,111,guess,loss,5,left,10,guess_outcome,0,undefined,0,0,422,244193,1788609
20,18,female,Belg,3,111,ITC,loss,5,left,10,ITC_start,390,space,0,0,422,243801,1789001
20,18,female,Belg,3,111,ITC,loss,5,left,10,ITC_choice,834,f,0,0,422,242966,1789836
20,18,female,Belg,3,111,ITC,loss,5,left,10,ITC_wait,0,undefined,0,0,422,237958,1794844
20,18,female,Belg,3,111,ITC,loss,5,left,10,ITC_collect,328,k,0,0,422,237628,1795174
20,18,female,Belg,3,111,ITC,loss,5,left,10,ITC_outcome,0,undefined,0,0,442,236616,1796186
20,18,female,Belg,3,112,guess,loss,10,right,8,guess_start,251,space,0,0,442,236363,1796439
20,18,female,Belg,3,112,guess,loss,10,right,8,guess_choice,557,f,0,0,442,235805,1796997
20,18,female,Belg,3,112,guess,loss,10,right,8,guess_outcome,0,undefined,0,0,427,234242,1798560
20,18,female,Belg,3,112,ITC,loss,10,right,8,ITC_start,927,space,0,0,427,233314,1799488
20,18,female,Belg,3,112,ITC,loss,10,right,8,ITC_choice,1177,f,0,0,427,232137,1800665
20,18,female,Belg,3,112,ITC,loss,10,right,8,ITC_wait,0,undefined,0,0,427,232133,1800669
20,18,female,Belg,3,112,ITC,loss,10,right,8,ITC_collect,440,k,0,0,427,231692,1801110
20,18,female,Belg,3,112,ITC,loss,10,right,8,ITC_outcome,0,undefined,0,0,435,230680,1802122
20,18,female,Belg,3,113,guess,loss,5,right,7,guess_start,440,space,0,0,435,230237,1802565
20,18,female,Belg,3,113,guess,loss,5,right,7,guess_choice,485,j,0,0,435,229750,1803052
20,18,female,Belg,3,113,guess,loss,5,right,7,guess_outcome,0,undefined,0,0,420,228186,1804616
20,18,female,Belg,3,113,ITC,loss,5,right,7,ITC_start,568,space,0,0,420,227618,1805184
20,18,female,Belg,3,113,ITC,loss,5,right,7,ITC_choice,1029,f,0,0,420,226588,1806214
20,18,female,Belg,3,113,ITC,loss,5,right,7,ITC_wait,0,undefined,0,0,420,226584,1806218
20,18,female,Belg,3,113,ITC,loss,5,right,7,ITC_collect,778,k,0,0,420,225805,1806997
20,18,female,Belg,3,113,ITC,loss,5,right,7,ITC_outcome,0,undefined,0,0,427,224788,1808014
20,18,female,Belg,3,114,guess,neutral,5,left,8,guess_start,671,space,0,0,427,224116,1808686
20,18,female,Belg,3,114,guess,neutral,5,left,8,guess_choice,1623,f,0,0,427,222492,1810310
20,18,female,Belg,3,114,guess,neutral,5,left,8,guess_outcome,0,undefined,0,0,427,220934,1811868
20,18,female,Belg,3,114,ITC,neutral,5,left,8,ITC_start,4179,space,0,0,427,216754,1816048
20,18,female,Belg,3,114,ITC,neutral,5,left,8,ITC_choice,1725,j,0,0,427,215028,1817774
20,18,female,Belg,3,114,ITC,neutral,5,left,8,ITC_wait,0,undefined,0,0,427,215025,1817777
20,18,female,Belg,3,114,ITC,neutral,5,left,8,ITC_collect,317,k,0,0,427,214707,1818095
20,18,female,Belg,3,114,ITC,neutral,5,left,8,ITC_outcome,0,undefined,0,0,435,213698,1819104
20,18,female,Belg,3,115,guess,win,5,right,3,guess_start,585,space,0,0,435,213111,1819691
20,18,female,Belg,3,115,guess,win,5,right,3,guess_choice,891,f,0,0,435,212219,1820583
20,18,female,Belg,3,115,guess,win,5,right,3,guess_outcome,0,undefined,0,0,455,210651,1822151
20,18,female,Belg,3,115,ITC,win,5,right,3,ITC_start,660,space,0,0,455,209989,1822813
20,18,female,Belg,3,115,ITC,win,5,right,3,ITC_choice,1194,j,0,0,455,208794,1824008
20,18,female,Belg,3,115,ITC,win,5,right,3,ITC_wait,0,undefined,0,0,455,203780,1829022
20,18,female,Belg,3,115,ITC,win,5,right,3,ITC_collect,1476,k,0,0,455,202302,1830500
20,18,female,Belg,3,115,ITC,win,5,right,3,ITC_outcome,0,undefined,0,0,475,201299,1831503
20,18,female,Belg,3,116,guess,win,10,right,1,guess_start,1088,space,0,0,475,200210,1832592
20,18,female,Belg,3,116,guess,win,10,right,1,guess_choice,565,j,0,0,475,199642,1833160
20,18,female,Belg,3,116,guess,win,10,right,1,guess_outcome,0,undefined,0,0,495,198079,1834723
20,18,female,Belg,3,116,ITC,win,10,right,1,ITC_start,1548,space,0,0,495,196530,1836272
20,18,female,Belg,3,116,ITC,win,10,right,1,ITC_choice,1424,j,0,0,495,195105,1837697
20,18,female,Belg,3,116,ITC,win,10,right,1,ITC_wait,0,undefined,0,0,495,185102,1847700
20,18,female,Belg,3,116,ITC,win,10,right,1,ITC_collect,376,k,0,0,495,184725,1848077
20,18,female,Belg,3,116,ITC,win,10,right,1,ITC_outcome,0,undefined,0,0,515,183711,1849091
20,18,female,Belg,3,117,guess,neutral,10,right,2,guess_start,1078,space,0,0,515,182631,1850171
20,18,female,Belg,3,117,guess,neutral,10,right,2,guess_choice,593,j,0,0,515,182036,1850766
20,18,female,Belg,3,117,guess,neutral,10,right,2,guess_outcome,0,undefined,0,0,515,180473,1852329
20,18,female,Belg,3,117,ITC,neutral,10,right,2,ITC_start,724,space,0,0,515,179748,1853054
20,18,female,Belg,3,117,ITC,neutral,10,right,2,ITC_choice,2887,f,0,0,515,176860,1855942
20,18,female,Belg,3,117,ITC,neutral,10,right,2,ITC_wait,0,undefined,0,0,515,176857,1855945
20,18,female,Belg,3,117,ITC,neutral,10,right,2,ITC_collect,558,k,0,0,515,176298,1856504
20,18,female,Belg,3,117,ITC,neutral,10,right,2,ITC_outcome,0,undefined,0,0,517,175280,1857522
20,18,female,Belg,3,118,guess,win,5,left,10,guess_start,874,space,0,0,517,174404,1858398
20,18,female,Belg,3,118,guess,win,5,left,10,guess_choice,596,j,0,0,517,173806,1858996
20,18,female,Belg,3,118,guess,win,5,left,10,guess_outcome,0,undefined,0,0,537,172252,1860550
20,18,female,Belg,3,118,ITC,win,5,left,10,ITC_start,1025,space,0,0,537,171226,1861576
20,18,female,Belg,3,118,ITC,win,5,left,10,ITC_choice,1246,j,0,0,537,169979,1862823
20,18,female,Belg,3,118,ITC,win,5,left,10,ITC_wait,0,undefined,0,0,537,169977,1862825
20,18,female,Belg,3,118,ITC,win,5,left,10,ITC_collect,610,k,0,0,537,169367,1863435
20,18,female,Belg,3,118,ITC,win,5,left,10,ITC_outcome,0,undefined,0,0,547,168354,1864448
20,18,female,Belg,3,119,guess,loss,10,right,1,guess_start,603,space,0,0,547,167749,1865053
20,18,female,Belg,3,119,guess,loss,10,right,1,guess_choice,728,j,0,0,547,167019,1865783
20,18,female,Belg,3,119,guess,loss,10,right,1,guess_outcome,0,undefined,0,0,532,165454,1867348
20,18,female,Belg,3,119,ITC,loss,10,right,1,ITC_start,604,space,0,0,532,164849,1867953
20,18,female,Belg,3,119,ITC,loss,10,right,1,ITC_wait,0,undefined,0,0,532,162818,1869984
20,18,female,Belg,3,119,ITC,loss,10,right,1,ITC_choice,2029,f,0,0,532,162820,1869982
20,18,female,Belg,3,119,ITC,loss,10,right,1,ITC_collect,412,k,0,0,532,162404,1870398
20,18,female,Belg,3,119,ITC,loss,10,right,1,ITC_outcome,0,undefined,0,0,533,161390,1871412
20,18,female,Belg,3,120,guess,neutral,5,left,11,guess_start,850,space,0,0,533,160539,1872263
20,18,female,Belg,3,120,guess,neutral,5,left,11,guess_choice,682,f,0,0,533,159855,1872947
20,18,female,Belg,3,120,guess,neutral,5,left,11,guess_outcome,0,undefined,0,0,533,158298,1874504
20,18,female,Belg,3,120,ITC,neutral,5,left,11,ITC_start,668,space,0,0,533,157629,1875173
20,18,female,Belg,3,120,ITC,neutral,5,left,11,ITC_choice,1274,f,0,0,533,156354,1876448
20,18,female,Belg,3,120,ITC,neutral,5,left,11,ITC_wait,0,undefined,0,0,533,151339,1881463
20,18,female,Belg,3,120,ITC,neutral,5,left,11,ITC_collect,878,k,0,0,533,150459,1882343
20,18,female,Belg,3,120,ITC,neutral,5,left,11,ITC_outcome,0,undefined,0,0,553,149449,1883353
20,18,female,Belg,3,121,guess,win,10,left,6,guess_start,635,space,0,0,553,148812,1883990
20,18,female,Belg,3,121,guess,win,10,left,6,guess_choice,538,j,0,0,553,148272,1884530
20,18,female,Belg,3,121,guess,win,10,left,6,guess_outcome,0,undefined,0,0,573,146705,1886097
20,18,female,Belg,3,121,ITC,win,10,left,6,ITC_start,988,space,0,0,573,145716,1887086
20,18,female,Belg,3,121,ITC,win,10,left,6,ITC_choice,1291,j,0,0,573,144424,1888378
20,18,female,Belg,3,121,ITC,win,10,left,6,ITC_wait,0,undefined,0,0,573,144421,1888381
20,18,female,Belg,3,121,ITC,win,10,left,6,ITC_collect,380,k,0,0,573,144040,1888762
20,18,female,Belg,3,121,ITC,win,10,left,6,ITC_outcome,0,undefined,0,0,579,143024,1889778
20,18,female,Belg,3,122,guess,loss,10,left,3,guess_start,990,space,0,0,579,142032,1890770
20,18,female,Belg,3,122,guess,loss,10,left,3,guess_choice,1068,j,0,0,579,140962,1891840
20,18,female,Belg,3,122,guess,loss,10,left,3,guess_outcome,0,undefined,0,0,564,139405,1893397
20,18,female,Belg,3,122,ITC,loss,10,left,3,ITC_start,3963,space,0,0,564,135441,1897361
20,18,female,Belg,3,122,ITC,loss,10,left,3,ITC_choice,2557,f,0,0,564,132882,1899920
20,18,female,Belg,3,122,ITC,loss,10,left,3,ITC_wait,0,undefined,0,0,564,122870,1909932
20,18,female,Belg,3,122,ITC,loss,10,left,3,ITC_collect,659,k,0,0,564,122209,1910593
20,18,female,Belg,3,122,ITC,loss,10,left,3,ITC_outcome,0,undefined,0,0,584,121194,1911608
20,18,female,Belg,3,123,guess,neutral,5,left,12,guess_start,781,space,0,0,584,120412,1912390
20,18,female,Belg,3,123,guess,neutral,5,left,12,guess_choice,1195,j,0,0,584,119215,1913587
20,18,female,Belg,3,123,guess,neutral,5,left,12,guess_outcome,0,undefined,0,0,584,117658,1915144
20,18,female,Belg,3,123,ITC,neutral,5,left,12,ITC_start,836,space,0,0,584,116822,1915980
20,18,female,Belg,3,123,ITC,neutral,5,left,12,ITC_choice,1578,f,0,0,584,115243,1917559
20,18,female,Belg,3,123,ITC,neutral,5,left,12,ITC_wait,0,undefined,0,0,584,110229,1922573
20,18,female,Belg,3,123,ITC,neutral,5,left,12,ITC_collect,716,k,0,0,584,109512,1923290
20,18,female,Belg,3,123,ITC,neutral,5,left,12,ITC_outcome,0,undefined,0,0,604,108501,1924301
20,18,female,Belg,3,124,guess,loss,10,right,6,guess_start,481,space,0,0,604,108017,1924785
20,18,female,Belg,3,124,guess,loss,10,right,6,guess_choice,586,j,0,0,604,107429,1925373
20,18,female,Belg,3,124,guess,loss,10,right,6,guess_outcome,0,undefined,0,0,589,105873,1926929
20,18,female,Belg,3,124,ITC,loss,10,right,6,ITC_start,46,space,0,0,589,105826,1926976
20,18,female,Belg,3,124,ITC,loss,10,right,6,ITC_choice,1481,j,0,0,589,104344,1928458
20,18,female,Belg,3,124,ITC,loss,10,right,6,ITC_wait,0,undefined,0,0,589,94334,1938468
20,18,female,Belg,3,124,ITC,loss,10,right,6,ITC_collect,668,k,0,0,589,93664,1939138
20,18,female,Belg,3,124,ITC,loss,10,right,6,ITC_outcome,0,undefined,0,0,609,92651,1940151
20,18,female,Belg,3,125,guess,loss,5,right,13,guess_start,3140,space,0,0,609,89510,1943292
20,18,female,Belg,3,125,guess,loss,5,right,13,guess_choice,1115,f,0,0,609,88393,1944409
20,18,female,Belg,3,125,guess,loss,5,right,13,guess_outcome,0,undefined,0,0,594,86825,1945977
20,18,female,Belg,3,125,ITC,loss,5,right,13,ITC_start,1798,space,0,0,594,85027,1947775
20,18,female,Belg,3,125,ITC,loss,5,right,13,ITC_choice,1275,f,0,0,594,83751,1949051
20,18,female,Belg,3,125,ITC,loss,5,right,13,ITC_wait,0,undefined,0,0,594,83748,1949054
20,18,female,Belg,3,125,ITC,loss,5,right,13,ITC_collect,467,k,0,0,594,83280,1949522
20,18,female,Belg,3,125,ITC,loss,5,right,13,ITC_outcome,0,undefined,0,0,607,82277,1950525
20,18,female,Belg,3,126,guess,win,5,left,7,guess_start,764,space,0,0,607,81511,1951291
20,18,female,Belg,3,126,guess,win,5,left,7,guess_choice,1066,f,0,0,607,80442,1952360
20,18,female,Belg,3,126,guess,win,5,left,7,guess_outcome,0,undefined,0,0,627,78880,1953922
20,18,female,Belg,3,126,ITC,win,5,left,7,ITC_start,662,space,0,0,627,78217,1954585
20,18,female,Belg,3,126,ITC,win,5,left,7,ITC_choice,1247,j,0,0,627,76969,1955833
20,18,female,Belg,3,126,ITC,win,5,left,7,ITC_wait,0,undefined,0,0,627,76967,1955835
20,18,female,Belg,3,126,ITC,win,5,left,7,ITC_collect,329,k,0,0,627,76637,1956165
20,18,female,Belg,3,126,ITC,win,5,left,7,ITC_outcome,0,undefined,0,0,634,75624,1957178
20,18,female,Belg,3,127,guess,loss,5,left,6,guess_start,651,space,0,0,634,74971,1957831
20,18,female,Belg,3,127,guess,loss,5,left,6,guess_choice,522,j,0,0,634,74448,1958354
20,18,female,Belg,3,127,guess,loss,5,left,6,guess_outcome,0,undefined,0,0,619,72890,1959912
20,18,female,Belg,3,127,ITC,loss,5,left,6,ITC_start,745,space,0,0,619,72143,1960659
20,18,female,Belg,3,127,ITC,loss,5,left,6,ITC_choice,637,j,0,0,619,71505,1961297
20,18,female,Belg,3,127,ITC,loss,5,left,6,ITC_wait,0,undefined,0,0,619,71503,1961299
20,18,female,Belg,3,127,ITC,loss,5,left,6,ITC_collect,953,k,0,0,619,70549,1962253
20,18,female,Belg,3,127,ITC,loss,5,left,6,ITC_outcome,0,undefined,0,0,625,69535,1963267
20,18,female,Belg,3,128,guess,win,5,right,9,guess_start,532,space,0,0,625,69001,1963801
20,18,female,Belg,3,128,guess,win,5,right,9,guess_choice,766,f,0,0,625,68233,1964569
20,18,female,Belg,3,128,guess,win,5,right,9,guess_outcome,0,undefined,0,0,645,66667,1966135
20,18,female,Belg,3,128,ITC,win,5,right,9,ITC_start,627,space,0,0,645,66040,1966762
20,18,female,Belg,3,128,ITC,win,5,right,9,ITC_choice,860,f,0,0,645,65178,1967624
20,18,female,Belg,3,128,ITC,win,5,right,9,ITC_wait,0,undefined,0,0,645,65175,1967627
20,18,female,Belg,3,128,ITC,win,5,right,9,ITC_collect,383,k,0,0,645,64791,1968011
20,18,female,Belg,3,128,ITC,win,5,right,9,ITC_outcome,0,undefined,0,0,654,63782,1969020
20,18,female,Belg,3,129,guess,neutral,5,right,15,guess_start,1907,space,0,0,654,61873,1970929
20,18,female,Belg,3,129,guess,neutral,5,right,15,guess_choice,600,j,0,0,654,61272,1971530
20,18,female,Belg,3,129,guess,neutral,5,right,15,guess_outcome,0,undefined,0,0,654,59717,1973085
20,18,female,Belg,3,129,ITC,neutral,5,right,15,ITC_start,584,space,0,0,654,59131,1973671
20,18,female,Belg,3,129,ITC,neutral,5,right,15,ITC_choice,691,f,0,0,654,58440,1974362
20,18,female,Belg,3,129,ITC,neutral,5,right,15,ITC_wait,0,undefined,0,0,654,58437,1974365
20,18,female,Belg,3,129,ITC,neutral,5,right,15,ITC_collect,293,k,0,0,654,58143,1974659
20,18,female,Belg,3,129,ITC,neutral,5,right,15,ITC_outcome,0,undefined,0,0,669,57128,1975674
20,18,female,Belg,3,130,guess,win,5,left,4,guess_start,1297,space,0,0,669,55830,1976972
20,18,female,Belg,3,130,guess,win,5,left,4,guess_choice,647,j,0,0,669,55182,1977620
20,18,female,Belg,3,130,guess,win,5,left,4,guess_outcome,0,undefined,0,0,689,53620,1979182
20,18,female,Belg,3,130,ITC,win,5,left,4,ITC_start,743,space,0,0,689,52876,1979926
20,18,female,Belg,3,130,ITC,win,5,left,4,ITC_choice,936,j,0,0,689,51938,1980864
20,18,female,Belg,3,130,ITC,win,5,left,4,ITC_wait,0,undefined,0,0,689,51936,1980866
20,18,female,Belg,3,130,ITC,win,5,left,4,ITC_collect,233,k,0,0,689,51702,1981100
20,18,female,Belg,3,130,ITC,win,5,left,4,ITC_outcome,0,undefined,0,0,693,50689,1982113
20,18,female,Belg,3,131,guess,neutral,5,right,13,guess_start,655,space,0,0,693,50032,1982770
20,18,female,Belg,3,131,guess,neutral,5,right,13,guess_choice,740,j,0,0,693,49290,1983512
20,18,female,Belg,3,131,guess,neutral,5,right,13,guess_outcome,0,undefined,0,0,693,47726,1985076
20,18,female,Belg,3,131,ITC,neutral,5,right,13,ITC_start,531,space,0,0,693,47194,1985608
20,18,female,Belg,3,131,ITC,neutral,5,right,13,ITC_choice,1310,f,0,0,693,45883,1986919
20,18,female,Belg,3,131,ITC,neutral,5,right,13,ITC_wait,0,undefined,0,0,693,45881,1986921
20,18,female,Belg,3,131,ITC,neutral,5,right,13,ITC_collect,247,k,0,0,693,45633,1987169
20,18,female,Belg,3,131,ITC,neutral,5,right,13,ITC_outcome,0,undefined,0,0,706,44627,1988175
20,18,female,Belg,3,132,guess,neutral,10,left,7,guess_start,564,space,0,0,706,44062,1988740
20,18,female,Belg,3,132,guess,neutral,10,left,7,guess_choice,575,f,0,0,706,43485,1989317
20,18,female,Belg,3,132,guess,neutral,10,left,7,guess_outcome,0,undefined,0,0,706,41929,1990873
20,18,female,Belg,3,132,ITC,neutral,10,left,7,ITC_start,1102,space,0,0,706,40826,1991976
20,18,female,Belg,3,132,ITC,neutral,10,left,7,ITC_choice,1350,j,0,0,706,39475,1993327
20,18,female,Belg,3,132,ITC,neutral,10,left,7,ITC_wait,0,undefined,0,0,706,39472,1993330
20,18,female,Belg,3,132,ITC,neutral,10,left,7,ITC_collect,611,k,0,0,706,38859,1993943
20,18,female,Belg,3,132,ITC,neutral,10,left,7,ITC_outcome,0,undefined,0,0,713,37841,1994961
20,18,female,Belg,3,133,guess,loss,5,right,12,guess_start,819,space,0,0,713,37020,1995782
20,18,female,Belg,3,133,guess,loss,5,right,12,guess_choice,1163,j,0,0,713,35856,1996946
20,18,female,Belg,3,133,guess,loss,5,right,12,guess_outcome,0,undefined,0,0,698,34298,1998504
20,18,female,Belg,3,133,ITC,loss,5,right,12,ITC_start,1441,space,0,0,698,32856,1999946
20,18,female,Belg,3,133,ITC,loss,5,right,12,ITC_choice,826,f,0,0,698,32028,2000774
20,18,female,Belg,3,133,ITC,loss,5,right,12,ITC_wait,0,undefined,0,0,698,32026,2000776
20,18,female,Belg,3,133,ITC,loss,5,right,12,ITC_collect,441,k,0,0,698,31583,2001219
20,18,female,Belg,3,133,ITC,loss,5,right,12,ITC_outcome,0,undefined,0,0,710,30580,2002222
20,18,female,Belg,3,134,guess,neutral,5,left,5,guess_start,571,space,0,0,710,30008,2002794
20,18,female,Belg,3,134,guess,neutral,5,left,5,guess_choice,971,j,0,0,710,29035,2003767
20,18,female,Belg,3,134,guess,neutral,5,left,5,guess_outcome,0,undefined,0,0,710,27483,2005319
20,18,female,Belg,3,134,ITC,neutral,5,left,5,ITC_start,827,space,0,0,710,26654,2006148
20,18,female,Belg,3,134,ITC,neutral,5,left,5,ITC_choice,1191,j,0,0,710,25463,2007339
20,18,female,Belg,3,134,ITC,neutral,5,left,5,ITC_wait,0,undefined,0,0,710,25460,2007342
20,18,female,Belg,3,134,ITC,neutral,5,left,5,ITC_collect,1635,k,0,0,710,23824,2008978
20,18,female,Belg,3,134,ITC,neutral,5,left,5,ITC_outcome,0,undefined,0,0,715,22815,2009987
20,18,female,Belg,3,135,guess,loss,10,right,2,guess_start,981,space,0,0,715,21833,2010969
20,18,female,Belg,3,135,guess,loss,10,right,2,guess_choice,845,f,0,0,715,20986,2011816
20,18,female,Belg,3,135,guess,loss,10,right,2,guess_outcome,0,undefined,0,0,700,19423,2013379
20,18,female,Belg,3,135,ITC,loss,10,right,2,ITC_start,1202,space,0,0,700,18220,2014582
20,18,female,Belg,3,135,ITC,loss,10,right,2,ITC_choice,1448,j,0,0,700,16771,2016031
20,18,female,Belg,3,135,ITC,loss,10,right,2,ITC_wait,0,undefined,0,0,700,6759,2026043
20,18,female,Belg,3,135,ITC,loss,10,right,2,ITC_collect,651,k,0,0,700,6107,2026695
20,18,female,Belg,3,136,guess,loss,5,right,3,guess_outcome,0,undefined,0,0,705,2115,2030687
20,18,female,Belg,3,135,ITC,loss,10,right,2,ITC_outcome,0,undefined,0,0,720,5091,2027711
20,18,female,Belg,3,136,guess,loss,5,right,3,guess_start,716,space,0,0,720,4374,2028428
20,18,female,Belg,3,136,guess,loss,5,right,3,guess_choice,697,f,0,0,720,3674,2029128
20,18,female,Belg,3,136,ITC,loss,5,right,3,ITC_start,767,space,0,0,705,1347,2031455
20,18,female,Belg,3,136,ITC,loss,5,right,3,ITC_choice,0,undefined,0,0,705,-9,2032811
20,18,female,Belg,4,137,guess,win,10,right,3,guess_start,1520,space,0,0,0,478479,2118509
20,18,female,Belg,4,137,guess,win,10,right,3,guess_choice,770,j,0,0,0,477706,2119282
20,18,female,Belg,4,137,guess,win,10,right,3,guess_outcome,0,undefined,0,0,20,476141,2120847
20,18,female,Belg,4,137,ITC,win,10,right,3,ITC_start,544,space,0,0,20,475596,2121392
20,18,female,Belg,4,137,ITC,win,10,right,3,ITC_choice,1129,f,0,0,20,474465,2122523
20,18,female,Belg,4,137,ITC,win,10,right,3,ITC_wait,0,undefined,0,0,20,474463,2122525
20,18,female,Belg,4,137,ITC,win,10,right,3,ITC_collect,710,k,0,0,20,473752,2123236
20,18,female,Belg,4,137,ITC,win,10,right,3,ITC_outcome,0,undefined,0,0,23,472737,2124251
20,18,female,Belg,4,138,guess,win,10,left,2,guess_start,489,space,0,0,23,472246,2124742
20,18,female,Belg,4,138,guess,win,10,left,2,guess_choice,655,j,0,0,23,471588,2125400
20,18,female,Belg,4,138,guess,win,10,left,2,guess_outcome,0,undefined,0,0,43,470034,2126954
20,18,female,Belg,4,138,ITC,win,10,left,2,ITC_start,384,space,0,0,43,469649,2127339
20,18,female,Belg,4,138,ITC,win,10,left,2,ITC_choice,1047,j,0,0,43,468600,2128388
20,18,female,Belg,4,138,ITC,win,10,left,2,ITC_wait,0,undefined,0,0,43,468598,2128390
20,18,female,Belg,4,138,ITC,win,10,left,2,ITC_collect,853,k,0,0,43,467744,2129244
20,18,female,Belg,4,138,ITC,win,10,left,2,ITC_outcome,0,undefined,0,0,45,466738,2130250
20,18,female,Belg,4,139,guess,win,10,right,7,guess_start,575,space,0,0,45,466161,2130827
20,18,female,Belg,4,139,guess,win,10,right,7,guess_choice,1217,f,0,0,45,464942,2132046
20,18,female,Belg,4,139,guess,win,10,right,7,guess_outcome,0,undefined,0,0,65,463383,2133605
20,18,female,Belg,4,139,ITC,win,10,right,7,ITC_start,560,space,0,0,65,462822,2134166
20,18,female,Belg,4,139,ITC,win,10,right,7,ITC_choice,796,f,0,0,65,462026,2134962
20,18,female,Belg,4,139,ITC,win,10,right,7,ITC_wait,0,undefined,0,0,65,462021,2134967
20,18,female,Belg,4,139,ITC,win,10,right,7,ITC_collect,361,k,0,0,65,461659,2135329
20,18,female,Belg,4,139,ITC,win,10,right,7,ITC_outcome,0,undefined,0,0,72,460656,2136332
20,18,female,Belg,4,140,guess,loss,5,left,9,guess_start,535,space,0,0,72,460119,2136869
20,18,female,Belg,4,140,guess,loss,5,left,9,guess_choice,652,j,0,0,72,459465,2137523
20,18,female,Belg,4,140,guess,loss,5,left,9,guess_outcome,0,undefined,0,0,57,457904,2139084
20,18,female,Belg,4,140,ITC,loss,5,left,9,ITC_start,605,space,0,0,57,457298,2139690
20,18,female,Belg,4,140,ITC,loss,5,left,9,ITC_choice,1110,j,0,0,57,456187,2140801
20,18,female,Belg,4,140,ITC,loss,5,left,9,ITC_wait,0,undefined,0,0,57,456184,2140804
20,18,female,Belg,4,140,ITC,loss,5,left,9,ITC_collect,697,k,0,0,57,455487,2141501
20,18,female,Belg,4,140,ITC,loss,5,left,9,ITC_outcome,0,undefined,0,0,66,454473,2142515
20,18,female,Belg,4,141,guess,neutral,5,right,10,guess_start,396,space,0,0,66,454075,2142913
20,18,female,Belg,4,141,guess,neutral,5,right,10,guess_choice,1145,j,0,0,66,452928,2144060
20,18,female,Belg,4,141,guess,neutral,5,right,10,guess_outcome,0,undefined,0,0,66,451373,2145615
20,18,female,Belg,4,141,ITC,neutral,5,right,10,ITC_start,834,space,0,0,66,450538,2146450
20,18,female,Belg,4,141,ITC,neutral,5,right,10,ITC_choice,1473,f,0,0,66,449064,2147924
20,18,female,Belg,4,141,ITC,neutral,5,right,10,ITC_wait,0,undefined,0,0,66,449061,2147927
20,18,female,Belg,4,141,ITC,neutral,5,right,10,ITC_collect,383,k,0,0,66,448677,2148311
20,18,female,Belg,4,141,ITC,neutral,5,right,10,ITC_outcome,0,undefined,0,0,76,447674,2149314
20,18,female,Belg,4,142,guess,win,5,right,16,guess_start,869,space,0,0,76,446803,2150185
20,18,female,Belg,4,142,guess,win,5,right,16,guess_choice,419,f,0,0,76,446382,2150606
20,18,female,Belg,4,142,guess,win,5,right,16,guess_outcome,0,undefined,0,0,96,444814,2152174
20,18,female,Belg,4,142,ITC,win,5,right,16,ITC_start,560,space,0,0,96,444253,2152735
20,18,female,Belg,4,142,ITC,win,5,right,16,ITC_choice,896,f,0,0,96,443356,2153632
20,18,female,Belg,4,142,ITC,win,5,right,16,ITC_wait,0,undefined,0,0,96,443352,2153636
20,18,female,Belg,4,142,ITC,win,5,right,16,ITC_collect,322,k,0,0,96,443029,2153959
20,18,female,Belg,4,142,ITC,win,5,right,16,ITC_outcome,0,undefined,0,0,112,442020,2154968
20,18,female,Belg,4,143,guess,neutral,5,left,6,guess_start,659,space,0,0,112,441359,2155629
20,18,female,Belg,4,143,guess,neutral,5,left,6,guess_choice,574,f,0,0,112,440783,2156205
20,18,female,Belg,4,143,guess,neutral,5,left,6,guess_outcome,0,undefined,0,0,112,439220,2157768
20,18,female,Belg,4,143,ITC,neutral,5,left,6,ITC_start,389,space,0,0,112,438831,2158157
20,18,female,Belg,4,143,ITC,neutral,5,left,6,ITC_choice,1159,j,0,0,112,437671,2159317
20,18,female,Belg,4,143,ITC,neutral,5,left,6,ITC_wait,0,undefined,0,0,112,437668,2159320
20,18,female,Belg,4,143,ITC,neutral,5,left,6,ITC_collect,254,k,0,0,112,437413,2159575
20,18,female,Belg,4,143,ITC,neutral,5,left,6,ITC_outcome,0,undefined,0,0,118,436398,2160590
20,18,female,Belg,4,144,guess,neutral,5,right,4,guess_start,594,space,0,0,118,435802,2161186
20,18,female,Belg,4,144,guess,neutral,5,right,4,guess_choice,529,f,0,0,118,435272,2161716
20,18,female,Belg,4,144,guess,neutral,5,right,4,guess_outcome,0,undefined,0,0,118,433709,2163279
20,18,female,Belg,4,144,ITC,neutral,5,right,4,ITC_start,515,space,0,0,118,433193,2163795
20,18,female,Belg,4,144,ITC,neutral,5,right,4,ITC_choice,1273,j,0,0,118,431917,2165071
20,18,female,Belg,4,144,ITC,neutral,5,right,4,ITC_wait,0,undefined,0,0,118,426902,2170086
