subjectID,age,gender,nationality,block_number,trial_number,trial_type,guess_outcome,delay_time,delay_pos,immediate_amount,stage,respRT,respKey,blur_count,focus_count,total_points,remaining_duration,time_elapsed
35,19,female,Belgium,1,1,guess,win,5,right,9,guess_start,2045,space,0,0,0,477952,428950
35,19,female,Belgium,1,1,guess,win,5,right,9,guess_choice,3127,j,0,0,0,474818,432084
35,19,female,Belgium,1,1,guess,win,5,right,9,guess_outcome,0,undefined,0,0,20,473256,433646
35,19,female,Belgium,1,1,ITC,win,5,right,9,ITC_start,2197,space,0,0,20,471055,435847
35,19,female,Belgium,1,1,ITC,win,5,right,9,ITC_choice,2941,j,0,0,20,468110,438792
35,19,female,Belgium,1,1,ITC,win,5,right,9,ITC_wait,0,undefined,0,0,20,463102,443800
35,19,female,Belgium,1,1,ITC,win,5,right,9,ITC_collect,1858,k,0,0,20,461240,445662
35,19,female,Belgium,1,1,ITC,win,5,right,9,ITC_outcome,0,undefined,0,0,40,460231,446671
35,19,female,Belgium,1,2,guess,loss,5,right,4,guess_start,2410,space,0,0,40,457816,449086
35,19,female,Belgium,1,2,guess,loss,5,right,4,guess_choice,2150,f,0,0,40,455659,451243
35,19,female,Belgium,1,2,guess,loss,5,right,4,guess_outcome,0,undefined,0,0,25,454103,452799
35,19,female,Belgium,1,2,ITC,loss,5,right,4,ITC_start,4793,space,0,0,25,449307,457595
35,19,female,Belgium,1,2,ITC,loss,5,right,4,ITC_choice,3555,j,0,0,25,445749,461153
35,19,female,Belgium,1,2,ITC,loss,5,right,4,ITC_wait,0,undefined,0,0,25,440742,466160
35,19,female,Belgium,1,2,ITC,loss,5,right,4,ITC_collect,2004,k,0,0,25,438734,468168
35,19,female,Belgium,1,2,ITC,loss,5,right,4,ITC_outcome,0,undefined,0,0,45,437725,469177
35,19,female,Belgium,1,3,guess,win,5,left,4,guess_start,1688,space,0,0,45,436034,470868
35,19,female,Belgium,1,3,guess,win,5,left,4,guess_choice,1567,f,0,0,45,434462,472440
35,19,female,Belgium,1,3,guess,win,5,left,4,guess_outcome,0,undefined,0,0,65,432902,474000
35,19,female,Belgium,1,3,ITC,win,5,left,4,ITC_start,1732,space,0,0,65,431166,475736
35,19,female,Belgium,1,3,ITC,win,5,left,4,ITC_choice,3572,f,0,0,65,427592,479310
35,19,female,Belgium,1,3,ITC,win,5,left,4,ITC_wait,0,undefined,0,0,65,422588,484314
35,19,female,Belgium,1,3,ITC,win,5,left,4,ITC_collect,2229,k,0,0,65,420356,486546
35,19,female,Belgium,1,3,ITC,win,5,left,4,ITC_outcome,0,undefined,0,0,85,419351,487551
35,19,female,Belgium,1,4,guess,neutral,5,left,4,guess_start,999,space,0,0,85,418348,488554
35,19,female,Belgium,1,4,guess,neutral,5,left,4,guess_choice,1607,j,0,0,85,416736,490166
35,19,female,Belgium,1,4,guess,neutral,5,left,4,guess_outcome,0,undefined,0,0,85,415175,491727
35,19,female,Belgium,1,4,ITC,neutral,5,left,4,ITC_start,1177,space,0,0,85,413995,492907
35,19,female,Belgium,1,4,ITC,neutral,5,left,4,ITC_choice,3563,f,0,0,85,410429,496473
35,19,female,Belgium,1,4,ITC,neutral,5,left,4,ITC_wait,0,undefined,0,0,85,405421,501481
35,19,female,Belgium,1,4,ITC,neutral,5,left,4,ITC_collect,1201,k,0,0,85,404217,502685
35,19,female,Belgium,1,4,ITC,neutral,5,left,4,ITC_outcome,0,undefined,0,0,105,403207,503695
35,19,female,Belgium,1,5,guess,win,5,right,8,guess_start,1683,space,0,0,105,401520,505382
35,19,female,Belgium,1,5,guess,win,5,right,8,guess_choice,1464,j,0,0,105,400051,506851
35,19,female,Belgium,1,5,guess,win,5,right,8,guess_outcome,0,undefined,0,0,125,398495,508407
35,19,female,Belgium,1,5,ITC,win,5,right,8,ITC_start,1491,space,0,0,125,397002,509900
35,19,female,Belgium,1,5,ITC,win,5,right,8,ITC_choice,2971,j,0,0,125,394028,512874
35,19,female,Belgium,1,5,ITC,win,5,right,8,ITC_wait,0,undefined,0,0,125,389020,517882
35,19,female,Belgium,1,5,ITC,win,5,right,8,ITC_collect,2232,k,0,0,125,386784,520118
35,19,female,Belgium,1,5,ITC,win,5,right,8,ITC_outcome,0,undefined,0,0,145,385775,521127
35,19,female,Belgium,1,6,guess,loss,10,left,8,guess_start,2902,space,0,0,145,382870,524032
35,19,female,Belgium,1,6,guess,loss,10,left,8,guess_choice,926,f,0,0,145,381939,524963
35,19,female,Belgium,1,6,guess,loss,10,left,8,guess_outcome,0,undefined,0,0,130,380378,526524
35,19,female,Belgium,1,6,ITC,loss,10,left,8,ITC_start,743,space,0,0,130,379631,527271
35,19,female,Belgium,1,6,ITC,loss,10,left,8,ITC_choice,2914,f,0,0,130,376715,530187
35,19,female,Belgium,1,6,ITC,loss,10,left,8,ITC_wait,0,undefined,0,0,130,366711,540191
35,19,female,Belgium,1,6,ITC,loss,10,left,8,ITC_collect,1183,k,0,0,130,365524,541378
35,19,female,Belgium,1,6,ITC,loss,10,left,8,ITC_outcome,0,undefined,0,0,150,364515,542387
35,19,female,Belgium,1,7,guess,loss,10,left,1,guess_start,1288,space,0,0,150,363223,543679
35,19,female,Belgium,1,7,guess,loss,10,left,1,guess_choice,1547,j,0,0,150,361670,545232
35,19,female,Belgium,1,7,guess,loss,10,left,1,guess_outcome,0,undefined,0,0,135,360109,546793
35,19,female,Belgium,1,7,ITC,loss,10,left,1,ITC_start,949,space,0,0,135,359157,547745
35,19,female,Belgium,1,7,ITC,loss,10,left,1,ITC_choice,2233,f,0,0,135,356922,549980
35,19,female,Belgium,1,7,ITC,loss,10,left,1,ITC_wait,0,undefined,0,0,135,346915,559987
35,19,female,Belgium,1,7,ITC,loss,10,left,1,ITC_collect,607,k,0,0,135,346304,560598
35,19,female,Belgium,1,7,ITC,loss,10,left,1,ITC_outcome,0,undefined,0,0,155,345296,561606
35,19,female,Belgium,1,8,guess,win,5,right,1,guess_start,412,space,0,0,155,344880,562022
35,19,female,Belgium,1,8,guess,win,5,right,1,guess_choice,952,j,0,0,155,343923,562979
35,19,female,Belgium,1,8,guess,win,5,right,1,guess_outcome,0,undefined,0,0,175,342369,564533
35,19,female,Belgium,1,8,ITC,win,5,right,1,ITC_start,2215,space,0,0,175,340151,566751
35,19,female,Belgium,1,8,ITC,win,5,right,1,ITC_choice,2333,j,0,0,175,337816,569086
35,19,female,Belgium,1,8,ITC,win,5,right,1,ITC_wait,0,undefined,0,0,175,332808,574094
35,19,female,Belgium,1,8,ITC,win,5,right,1,ITC_collect,892,k,0,0,175,331913,574989
35,19,female,Belgium,1,8,ITC,win,5,right,1,ITC_outcome,0,undefined,0,0,195,330909,575993
35,19,female,Belgium,1,9,guess,win,5,left,14,guess_start,1407,space,0,0,195,329499,577403
35,19,female,Belgium,1,9,guess,win,5,left,14,guess_choice,963,f,0,0,195,328531,578371
35,19,female,Belgium,1,9,guess,win,5,left,14,guess_outcome,0,undefined,0,0,215,326976,579926
35,19,female,Belgium,1,9,ITC,win,5,left,14,ITC_start,2646,space,0,0,215,324327,582575
35,19,female,Belgium,1,9,ITC,win,5,left,14,ITC_choice,3296,f,0,0,215,321029,585873
35,19,female,Belgium,1,9,ITC,win,5,left,14,ITC_wait,0,undefined,0,0,215,316021,590881
35,19,female,Belgium,1,9,ITC,win,5,left,14,ITC_collect,1266,k,0,0,215,314752,592150
35,19,female,Belgium,1,9,ITC,win,5,left,14,ITC_outcome,0,undefined,0,0,235,313747,593155
35,19,female,Belgium,1,10,guess,loss,5,right,1,guess_start,857,space,0,0,235,312887,594015
35,19,female,Belgium,1,10,guess,loss,5,right,1,guess_choice,1520,f,0,0,235,311362,595540
35,19,female,Belgium,1,10,guess,loss,5,right,1,guess_outcome,0,undefined,0,0,220,309803,597099
35,19,female,Belgium,1,10,ITC,loss,5,right,1,ITC_start,893,space,0,0,220,308908,597994
35,19,female,Belgium,1,10,ITC,loss,5,right,1,ITC_choice,1741,j,0,0,220,307164,599738
35,19,female,Belgium,1,10,ITC,loss,5,right,1,ITC_wait,0,undefined,0,0,220,302157,604745
35,19,female,Belgium,1,10,ITC,loss,5,right,1,ITC_collect,878,k,0,0,220,301276,605626
35,19,female,Belgium,1,10,ITC,loss,5,right,1,ITC_outcome,0,undefined,0,0,240,300267,606635
35,19,female,Belgium,1,11,guess,loss,5,right,9,guess_start,637,space,0,0,240,299627,607275
35,19,female,Belgium,1,11,guess,loss,5,right,9,guess_choice,956,f,0,0,240,298666,608236
35,19,female,Belgium,1,11,guess,loss,5,right,9,guess_outcome,0,undefined,0,0,225,297111,609791
35,19,female,Belgium,1,11,ITC,loss,5,right,9,ITC_start,1108,space,0,0,225,296000,610902
35,19,female,Belgium,1,11,ITC,loss,5,right,9,ITC_choice,1414,j,0,0,225,294583,612319
35,19,female,Belgium,1,11,ITC,loss,5,right,9,ITC_wait,0,undefined,0,0,225,289579,617323
35,19,female,Belgium,1,11,ITC,loss,5,right,9,ITC_collect,980,k,0,0,225,288596,618306
35,19,female,Belgium,1,11,ITC,loss,5,right,9,ITC_outcome,0,undefined,0,0,245,287591,619311
35,19,female,Belgium,1,12,guess,neutral,10,left,1,guess_start,595,space,0,0,245,286993,619909
35,19,female,Belgium,1,12,guess,neutral,10,left,1,guess_choice,946,f,0,0,245,286043,620859
35,19,female,Belgium,1,12,guess,neutral,10,left,1,guess_outcome,0,undefined,0,0,245,284488,622414
35,19,female,Belgium,1,12,ITC,neutral,10,left,1,ITC_start,719,space,0,0,245,283766,623136
35,19,female,Belgium,1,12,ITC,neutral,10,left,1,ITC_choice,1648,f,0,0,245,282115,624787
35,19,female,Belgium,1,12,ITC,neutral,10,left,1,ITC_wait,0,undefined,0,0,245,272107,634795
35,19,female,Belgium,1,12,ITC,neutral,10,left,1,ITC_collect,1186,k,0,0,245,270917,635985
35,19,female,Belgium,1,12,ITC,neutral,10,left,1,ITC_outcome,0,undefined,0,0,265,269910,636992
35,19,female,Belgium,1,13,guess,loss,5,right,15,guess_start,814,space,0,0,265,269092,637810
35,19,female,Belgium,1,13,guess,loss,5,right,15,guess_choice,1349,f,0,0,265,267739,639163
35,19,female,Belgium,1,13,guess,loss,5,right,15,guess_outcome,0,undefined,0,0,250,266182,640720
35,19,female,Belgium,1,13,ITC,loss,5,right,15,ITC_start,855,space,0,0,250,265324,641578
35,19,female,Belgium,1,13,ITC,loss,5,right,15,ITC_choice,2326,j,0,0,250,262995,643907
35,19,female,Belgium,1,13,ITC,loss,5,right,15,ITC_wait,0,undefined,0,0,250,257988,648914
35,19,female,Belgium,1,13,ITC,loss,5,right,15,ITC_collect,1076,k,0,0,250,256908,649994
35,19,female,Belgium,1,13,ITC,loss,5,right,15,ITC_outcome,0,undefined,0,0,270,255900,651002
35,19,female,Belgium,1,14,guess,loss,5,left,2,guess_start,766,space,0,0,270,255131,651771
35,19,female,Belgium,1,14,guess,loss,5,left,2,guess_choice,1771,j,0,0,270,253355,653547
35,19,female,Belgium,1,14,guess,loss,5,left,2,guess_outcome,0,undefined,0,0,255,251798,655104
35,19,female,Belgium,1,14,ITC,loss,5,left,2,ITC_start,550,space,0,0,255,251245,655657
35,19,female,Belgium,1,14,ITC,loss,5,left,2,ITC_choice,797,f,0,0,255,250445,656457
35,19,female,Belgium,1,14,ITC,loss,5,left,2,ITC_wait,0,undefined,0,0,255,245437,661465
35,19,female,Belgium,1,14,ITC,loss,5,left,2,ITC_collect,1093,k,0,0,255,244340,662562
35,19,female,Belgium,1,14,ITC,loss,5,left,2,ITC_outcome,0,undefined,0,0,275,243330,663572
35,19,female,Belgium,1,15,guess,loss,5,left,3,guess_start,763,space,0,0,275,242565,664337
35,19,female,Belgium,1,15,guess,loss,5,left,3,guess_choice,1299,j,0,0,275,241260,665642
35,19,female,Belgium,1,15,guess,loss,5,left,3,guess_outcome,0,undefined,0,0,260,239703,667199
35,19,female,Belgium,1,15,ITC,loss,5,left,3,ITC_start,558,space,0,0,260,239142,667760
35,19,female,Belgium,1,15,ITC,loss,5,left,3,ITC_choice,956,f,0,0,260,238184,668718
35,19,female,Belgium,1,15,ITC,loss,5,left,3,ITC_wait,0,undefined,0,0,260,233176,673726
35,19,female,Belgium,1,15,ITC,loss,5,left,3,ITC_collect,1137,k,0,0,260,232035,674867
35,19,female,Belgium,1,15,ITC,loss,5,left,3,ITC_outcome,0,undefined,0,0,280,231026,675876
35,19,female,Belgium,1,16,guess,neutral,10,left,3,guess_start,616,space,0,0,280,230407,676495
35,19,female,Belgium,1,16,guess,neutral,10,left,3,guess_choice,932,f,0,0,280,229471,677431
35,19,female,Belgium,1,16,guess,neutral,10,left,3,guess_outcome,0,undefined,0,0,280,227912,678990
35,19,female,Belgium,1,16,ITC,neutral,10,left,3,ITC_start,576,space,0,0,280,227332,679570
35,19,female,Belgium,1,16,ITC,neutral,10,left,3,ITC_choice,1168,f,0,0,280,226161,680741
35,19,female,Belgium,1,16,ITC,neutral,10,left,3,ITC_wait,0,undefined,0,0,280,216155,690747
35,19,female,Belgium,1,16,ITC,neutral,10,left,3,ITC_collect,917,k,0,0,280,215234,691668
35,19,female,Belgium,1,16,ITC,neutral,10,left,3,ITC_outcome,0,undefined,0,0,300,214226,692676
35,19,female,Belgium,1,17,guess,win,5,right,3,guess_start,990,space,0,0,300,213232,693670
35,19,female,Belgium,1,17,guess,win,5,right,3,guess_choice,1348,f,0,0,300,211880,695022
35,19,female,Belgium,1,17,guess,win,5,right,3,guess_outcome,0,undefined,0,0,320,210320,696582
35,19,female,Belgium,1,17,ITC,win,5,right,3,ITC_start,812,space,0,0,320,209505,697397
35,19,female,Belgium,1,17,ITC,win,5,right,3,ITC_choice,1199,j,0,0,320,208303,698599
35,19,female,Belgium,1,17,ITC,win,5,right,3,ITC_wait,0,undefined,0,0,320,203295,703607
35,19,female,Belgium,1,17,ITC,win,5,right,3,ITC_collect,757,k,0,0,320,202534,704368
35,19,female,Belgium,1,17,ITC,win,5,right,3,ITC_outcome,0,undefined,0,0,340,201526,705376
35,19,female,Belgium,1,18,guess,win,10,left,1,guess_start,624,space,0,0,340,200900,706002
35,19,female,Belgium,1,18,guess,win,10,left,1,guess_choice,1320,f,0,0,340,199576,707326
35,19,female,Belgium,1,18,guess,win,10,left,1,guess_outcome,0,undefined,0,0,360,198020,708882
35,19,female,Belgium,1,18,ITC,win,10,left,1,ITC_start,1008,space,0,0,360,197009,709893
35,19,female,Belgium,1,18,ITC,win,10,left,1,ITC_choice,1518,f,0,0,360,195488,711414
35,19,female,Belgium,1,18,ITC,win,10,left,1,ITC_wait,0,undefined,0,0,360,185480,721422
35,19,female,Belgium,1,18,ITC,win,10,left,1,ITC_collect,1690,k,0,0,360,183787,723115
35,19,female,Belgium,1,18,ITC,win,10,left,1,ITC_outcome,0,undefined,0,0,380,182778,724124
35,19,female,Belgium,1,19,guess,neutral,5,left,5,guess_start,810,space,0,0,380,181964,724938
35,19,female,Belgium,1,19,guess,neutral,5,left,5,guess_choice,877,f,0,0,380,181083,725819
35,19,female,Belgium,1,19,guess,neutral,5,left,5,guess_outcome,0,undefined,0,0,380,179524,727378
35,19,female,Belgium,1,19,ITC,neutral,5,left,5,ITC_start,630,space,0,0,380,178890,728012
35,19,female,Belgium,1,19,ITC,neutral,5,left,5,ITC_choice,874,f,0,0,380,178013,728889
35,19,female,Belgium,1,19,ITC,neutral,5,left,5,ITC_wait,0,undefined,0,0,380,173010,733892
35,19,female,Belgium,1,19,ITC,neutral,5,left,5,ITC_collect,4811,k,0,0,380,168196,738706
35,19,female,Belgium,1,19,ITC,neutral,5,left,5,ITC_outcome,0,undefined,0,0,400,167191,739711
35,19,female,Belgium,1,20,guess,neutral,5,right,3,guess_start,678,space,0,0,400,166510,740392
35,19,female,Belgium,1,20,guess,neutral,5,right,3,guess_choice,863,f,0,0,400,165643,741259
35,19,female,Belgium,1,20,guess,neutral,5,right,3,guess_outcome,0,undefined,0,0,400,164087,742815
35,19,female,Belgium,1,20,ITC,neutral,5,right,3,ITC_start,777,space,0,0,400,163308,743594
35,19,female,Belgium,1,20,ITC,neutral,5,right,3,ITC_choice,1072,j,0,0,400,162233,744669
35,19,female,Belgium,1,20,ITC,neutral,5,right,3,ITC_wait,0,undefined,0,0,400,157225,749677
35,19,female,Belgium,1,20,ITC,neutral,5,right,3,ITC_collect,454,k,0,0,400,156768,750134
35,19,female,Belgium,1,20,ITC,neutral,5,right,3,ITC_outcome,0,undefined,0,0,420,155763,751139
35,19,female,Belgium,1,21,guess,neutral,5,left,7,guess_start,617,space,0,0,420,155142,751760
35,19,female,Belgium,1,21,guess,neutral,5,left,7,guess_choice,887,f,0,0,420,154251,752651
35,19,female,Belgium,1,21,guess,neutral,5,left,7,guess_outcome,0,undefined,0,0,420,152694,754208
35,19,female,Belgium,1,21,ITC,neutral,5,left,7,ITC_start,812,space,0,0,420,151879,755023
35,19,female,Belgium,1,21,ITC,neutral,5,left,7,ITC_choice,1302,f,0,0,420,150575,756327
35,19,female,Belgium,1,21,ITC,neutral,5,left,7,ITC_wait,0,undefined,0,0,420,145565,761337
35,19,female,Belgium,1,21,ITC,neutral,5,left,7,ITC_collect,1207,k,0,0,420,144355,762547
35,19,female,Belgium,1,21,ITC,neutral,5,left,7,ITC_outcome,0,undefined,0,0,440,143349,763553
35,19,female,Belgium,1,22,guess,win,10,left,3,guess_start,395,space,0,0,440,142951,763951
35,19,female,Belgium,1,22,guess,win,10,left,3,guess_choice,1372,f,0,0,440,141574,765328
35,19,female,Belgium,1,22,guess,win,10,left,3,guess_outcome,0,undefined,0,0,460,140015,766887
35,19,female,Belgium,1,22,ITC,win,10,left,3,ITC_start,883,space,0,0,460,139130,767772
35,19,female,Belgium,1,22,ITC,win,10,left,3,ITC_choice,864,f,0,0,460,138263,768639
35,19,female,Belgium,1,22,ITC,win,10,left,3,ITC_wait,0,undefined,0,0,460,128258,778644
35,19,female,Belgium,1,22,ITC,win,10,left,3,ITC_collect,392,k,0,0,460,127863,779039
35,19,female,Belgium,1,22,ITC,win,10,left,3,ITC_outcome,0,undefined,0,0,480,126858,780044
35,19,female,Belgium,1,23,guess,win,10,right,7,guess_start,464,space,0,0,480,126390,780512
35,19,female,Belgium,1,23,guess,win,10,right,7,guess_choice,906,j,0,0,480,125480,781422
35,19,female,Belgium,1,23,guess,win,10,right,7,guess_outcome,0,undefined,0,0,500,123921,782981
35,19,female,Belgium,1,23,ITC,win,10,right,7,ITC_start,584,space,0,0,500,123334,783568
35,19,female,Belgium,1,23,ITC,win,10,right,7,ITC_choice,917,j,0,0,500,122414,784488
35,19,female,Belgium,1,23,ITC,win,10,right,7,ITC_wait,0,undefined,0,0,500,112406,794496
35,19,female,Belgium,1,23,ITC,win,10,right,7,ITC_collect,789,k,0,0,500,111613,795289
35,19,female,Belgium,1,23,ITC,win,10,right,7,ITC_outcome,0,undefined,0,0,520,110605,796297
35,19,female,Belgium,1,24,guess,neutral,10,right,5,guess_start,768,space,0,0,520,109833,797069
35,19,female,Belgium,1,24,guess,neutral,10,right,5,guess_choice,931,f,0,0,520,108898,798004
35,19,female,Belgium,1,24,guess,neutral,10,right,5,guess_outcome,0,undefined,0,0,520,107339,799563
35,19,female,Belgium,1,24,ITC,neutral,10,right,5,ITC_start,1120,space,0,0,520,106217,800685
35,19,female,Belgium,1,24,ITC,neutral,10,right,5,ITC_choice,1000,j,0,0,520,105214,801688
35,19,female,Belgium,1,24,ITC,neutral,10,right,5,ITC_wait,0,undefined,0,0,520,95207,811695
35,19,female,Belgium,1,24,ITC,neutral,10,right,5,ITC_collect,975,k,0,0,520,94228,812674
35,19,female,Belgium,1,24,ITC,neutral,10,right,5,ITC_outcome,0,undefined,0,0,540,93219,813683
35,19,female,Belgium,1,25,guess,neutral,5,right,8,guess_start,1180,space,0,0,540,92036,814866
35,19,female,Belgium,1,25,guess,neutral,5,right,8,guess_choice,950,f,0,0,540,91081,815821
35,19,female,Belgium,1,25,guess,neutral,5,right,8,guess_outcome,0,undefined,0,0,540,89522,817380
35,19,female,Belgium,1,25,ITC,neutral,5,right,8,ITC_start,488,space,0,0,540,89031,817871
35,19,female,Belgium,1,25,ITC,neutral,5,right,8,ITC_choice,921,j,0,0,540,88106,818796
35,19,female,Belgium,1,25,ITC,neutral,5,right,8,ITC_wait,0,undefined,0,0,540,83098,823804
35,19,female,Belgium,1,25,ITC,neutral,5,right,8,ITC_collect,2729,k,0,0,540,80366,826536
35,19,female,Belgium,1,25,ITC,neutral,5,right,8,ITC_outcome,0,undefined,0,0,560,79358,827544
35,19,female,Belgium,1,26,guess,loss,5,left,13,guess_start,751,space,0,0,560,78603,828299
35,19,female,Belgium,1,26,guess,loss,5,left,13,guess_choice,1239,f,0,0,560,77360,829542
35,19,female,Belgium,1,26,guess,loss,5,left,13,guess_outcome,0,undefined,0,0,545,75805,831097
35,19,female,Belgium,1,26,ITC,loss,5,left,13,ITC_start,945,space,0,0,545,74857,832045
35,19,female,Belgium,1,26,ITC,loss,5,left,13,ITC_choice,2553,f,0,0,545,72302,834600
35,19,female,Belgium,1,26,ITC,loss,5,left,13,ITC_wait,0,undefined,0,0,545,67295,839607
35,19,female,Belgium,1,26,ITC,loss,5,left,13,ITC_collect,1258,k,0,0,545,66033,840869
35,19,female,Belgium,1,26,ITC,loss,5,left,13,ITC_outcome,0,undefined,0,0,565,65025,841877
35,19,female,Belgium,1,27,guess,win,5,left,5,guess_start,1502,space,0,0,565,63519,843383
35,19,female,Belgium,1,27,guess,win,5,left,5,guess_choice,1041,f,0,0,565,62474,844428
35,19,female,Belgium,1,27,guess,win,5,left,5,guess_outcome,0,undefined,0,0,585,60916,845986
35,19,female,Belgium,1,27,ITC,win,5,left,5,ITC_start,877,space,0,0,585,60036,846866
35,19,female,Belgium,1,27,ITC,win,5,left,5,ITC_choice,1722,f,0,0,585,58311,848591
35,19,female,Belgium,1,27,ITC,win,5,left,5,ITC_wait,0,undefined,0,0,585,53303,853599
35,19,female,Belgium,1,27,ITC,win,5,left,5,ITC_collect,3286,k,0,0,585,50014,856888
35,19,female,Belgium,1,27,ITC,win,5,left,5,ITC_outcome,0,undefined,0,0,605,49005,857897
35,19,female,Belgium,1,28,guess,win,5,right,16,guess_start,1544,space,0,0,605,47458,859444
35,19,female,Belgium,1,28,guess,win,5,right,16,guess_choice,1486,j,0,0,605,45968,860934
35,19,female,Belgium,1,28,guess,win,5,right,16,guess_outcome,0,undefined,0,0,625,44411,862491
35,19,female,Belgium,1,28,ITC,win,5,right,16,ITC_start,501,space,0,0,625,43908,862994
35,19,female,Belgium,1,28,ITC,win,5,right,16,ITC_choice,1015,j,0,0,625,42890,864012
35,19,female,Belgium,1,28,ITC,win,5,right,16,ITC_wait,0,undefined,0,0,625,37881,869021
35,19,female,Belgium,1,28,ITC,win,5,right,16,ITC_collect,1003,k,0,0,625,36875,870027
35,19,female,Belgium,1,28,ITC,win,5,right,16,ITC_outcome,0,undefined,0,0,645,35869,871033
35,19,female,Belgium,1,29,guess,win,10,right,6,guess_start,351,space,0,0,645,35515,871387
35,19,female,Belgium,1,29,guess,win,10,right,6,guess_choice,890,f,0,0,645,34621,872281
35,19,female,Belgium,1,29,guess,win,10,right,6,guess_outcome,0,undefined,0,0,665,33061,873841
35,19,female,Belgium,1,29,ITC,win,10,right,6,ITC_start,1075,space,0,0,665,31984,874918
35,19,female,Belgium,1,29,ITC,win,10,right,6,ITC_choice,1022,j,0,0,665,30960,875942
35,19,female,Belgium,1,29,ITC,win,10,right,6,ITC_wait,0,undefined,0,0,665,20953,885949
35,19,female,Belgium,1,29,ITC,win,10,right,6,ITC_collect,1186,k,0,0,665,19764,887138
35,19,female,Belgium,1,29,ITC,win,10,right,6,ITC_outcome,0,undefined,0,0,685,18755,888147
35,19,female,Belgium,1,30,guess,win,10,right,4,guess_start,1207,space,0,0,685,17544,889358
35,19,female,Belgium,1,30,guess,win,10,right,4,guess_choice,972,f,0,0,685,16568,890334
35,19,female,Belgium,1,30,guess,win,10,right,4,guess_outcome,0,undefined,0,0,705,15009,891893
35,19,female,Belgium,1,30,ITC,win,10,right,4,ITC_start,1154,space,0,0,705,13851,893051
35,19,female,Belgium,1,30,ITC,win,10,right,4,ITC_choice,1640,j,0,0,705,12209,894693
35,19,female,Belgium,1,30,ITC,win,10,right,4,ITC_wait,0,undefined,0,0,705,2205,904697
35,19,female,Belgium,1,30,ITC,win,10,right,4,ITC_collect,1068,k,0,0,705,1134,905768
35,19,female,Belgium,1,30,ITC,win,10,right,4,ITC_outcome,0,undefined,0,0,725,125,906777
35,19,female,Belgium,1,31,guess,neutral,10,right,4,guess_start,0,undefined,0,0,725,-6,906908
35,19,female,Belgium,2,32,guess,neutral,5,left,14,guess_start,2557,space,0,0,0,477441,1010677
35,19,female,Belgium,2,32,guess,neutral,5,left,14,guess_choice,1655,f,0,0,0,475781,1012337
35,19,female,Belgium,2,32,guess,neutral,5,left,14,guess_outcome,0,undefined,0,0,0,474221,1013897
35,19,female,Belgium,2,32,ITC,neutral,5,left,14,ITC_start,897,space,0,0,0,473321,1014797
35,19,female,Belgium,2,32,ITC,neutral,5,left,14,ITC_choice,2447,f,0,0,0,470872,1017246
35,19,female,Belgium,2,32,ITC,neutral,5,left,14,ITC_wait,0,undefined,0,0,0,465865,1022253
35,19,female,Belgium,2,32,ITC,neutral,5,left,14,ITC_collect,2911,k,0,0,0,462951,1025167
35,19,female,Belgium,2,32,ITC,neutral,5,left,14,ITC_outcome,0,undefined,0,0,20,461943,1026175
35,19,female,Belgium,2,33,guess,win,10,left,2,guess_start,499,space,0,0,20,461441,1026677
35,19,female,Belgium,2,33,guess,win,10,left,2,guess_choice,1165,f,0,0,20,460271,1027847
35,19,female,Belgium,2,33,guess,win,10,left,2,guess_outcome,0,undefined,0,0,40,458712,1029406
35,19,female,Belgium,2,33,ITC,win,10,left,2,ITC_start,774,space,0,0,40,457935,1030183
35,19,female,Belgium,2,33,ITC,win,10,left,2,ITC_choice,1246,f,0,0,40,456686,1031432
35,19,female,Belgium,2,33,ITC,win,10,left,2,ITC_wait,0,undefined,0,0,40,446680,1041438
35,19,female,Belgium,2,33,ITC,win,10,left,2,ITC_collect,846,k,0,0,40,445830,1042288
35,19,female,Belgium,2,33,ITC,win,10,left,2,ITC_outcome,0,undefined,0,0,60,444824,1043294
35,19,female,Belgium,2,34,guess,loss,10,right,6,guess_start,1558,space,0,0,60,443263,1044855
35,19,female,Belgium,2,34,guess,loss,10,right,6,guess_choice,846,j,0,0,60,442412,1045706
35,19,female,Belgium,2,34,guess,loss,10,right,6,guess_outcome,0,undefined,0,0,45,440853,1047265
35,19,female,Belgium,2,34,ITC,loss,10,right,6,ITC_start,653,space,0,0,45,440197,1047921
35,19,female,Belgium,2,34,ITC,loss,10,right,6,ITC_choice,1080,j,0,0,45,439114,1049004
35,19,female,Belgium,2,34,ITC,loss,10,right,6,ITC_wait,0,undefined,0,0,45,429106,1059012
35,19,female,Belgium,2,34,ITC,loss,10,right,6,ITC_collect,1146,k,0,0,45,427957,1060161
35,19,female,Belgium,2,34,ITC,loss,10,right,6,ITC_outcome,0,undefined,0,0,65,426949,1061169
35,19,female,Belgium,2,35,guess,loss,5,right,8,guess_start,681,space,0,0,65,426265,1061853
35,19,female,Belgium,2,35,guess,loss,5,right,8,guess_choice,666,j,0,0,65,425595,1062523
35,19,female,Belgium,2,35,guess,loss,5,right,8,guess_outcome,0,undefined,0,0,50,424035,1064083
35,19,female,Belgium,2,35,ITC,loss,5,right,8,ITC_start,731,space,0,0,50,423301,1064817
35,19,female,Belgium,2,35,ITC,loss,5,right,8,ITC_choice,1474,j,0,0,50,421824,1066294
35,19,female,Belgium,2,35,ITC,loss,5,right,8,ITC_wait,0,undefined,0,0,50,416817,1071301
35,19,female,Belgium,2,35,ITC,loss,5,right,8,ITC_collect,906,k,0,0,50,415905,1072213
35,19,female,Belgium,2,35,ITC,loss,5,right,8,ITC_outcome,0,undefined,0,0,70,414897,1073221
35,19,female,Belgium,2,36,guess,neutral,5,right,1,guess_start,652,space,0,0,70,414242,1073876
35,19,female,Belgium,2,36,guess,neutral,5,right,1,guess_choice,904,j,0,0,70,413333,1074785
35,19,female,Belgium,2,36,guess,neutral,5,right,1,guess_outcome,0,undefined,0,0,70,411774,1076344
35,19,female,Belgium,2,36,ITC,neutral,5,right,1,ITC_start,402,space,0,0,70,411369,1076749
35,19,female,Belgium,2,36,ITC,neutral,5,right,1,ITC_choice,878,j,0,0,70,410488,1077630
35,19,female,Belgium,2,36,ITC,neutral,5,right,1,ITC_wait,0,undefined,0,0,70,405484,1082634
35,19,female,Belgium,2,36,ITC,neutral,5,right,1,ITC_collect,950,k,0,0,70,404530,1083588
35,19,female,Belgium,2,36,ITC,neutral,5,right,1,ITC_outcome,0,undefined,0,0,90,403522,1084596
35,19,female,Belgium,2,37,guess,win,5,left,6,guess_start,504,space,0,0,90,403015,1085103
35,19,female,Belgium,2,37,guess,win,5,left,6,guess_choice,1251,f,0,0,90,401758,1086360
35,19,female,Belgium,2,37,guess,win,5,left,6,guess_outcome,0,undefined,0,0,110,400198,1087920
35,19,female,Belgium,2,37,ITC,win,5,left,6,ITC_start,413,space,0,0,110,399782,1088336
35,19,female,Belgium,2,37,ITC,win,5,left,6,ITC_choice,943,f,0,0,110,398837,1089281
35,19,female,Belgium,2,37,ITC,win,5,left,6,ITC_wait,0,undefined,0,0,110,393829,1094289
35,19,female,Belgium,2,37,ITC,win,5,left,6,ITC_collect,539,k,0,0,110,393286,1094832
35,19,female,Belgium,2,37,ITC,win,5,left,6,ITC_outcome,0,undefined,0,0,130,392278,1095840
35,19,female,Belgium,2,38,guess,loss,10,left,3,guess_start,477,space,0,0,130,391798,1096320
35,19,female,Belgium,2,38,guess,loss,10,left,3,guess_choice,1089,j,0,0,130,390705,1097413
35,19,female,Belgium,2,38,guess,loss,10,left,3,guess_outcome,0,undefined,0,0,115,389147,1098971
35,19,female,Belgium,2,38,ITC,loss,10,left,3,ITC_start,447,space,0,0,115,388697,1099421
35,19,female,Belgium,2,38,ITC,loss,10,left,3,ITC_choice,709,f,0,0,115,387985,1100133
35,19,female,Belgium,2,38,ITC,loss,10,left,3,ITC_wait,0,undefined,0,0,115,377980,1110138
35,19,female,Belgium,2,38,ITC,loss,10,left,3,ITC_collect,804,k,0,0,115,377173,1110945
35,19,female,Belgium,2,38,ITC,loss,10,left,3,ITC_outcome,0,undefined,0,0,135,376164,1111954
35,19,female,Belgium,2,39,guess,win,5,left,10,guess_start,470,space,0,0,135,375691,1112427
35,19,female,Belgium,2,39,guess,win,5,left,10,guess_choice,948,j,0,0,135,374738,1113380
35,19,female,Belgium,2,39,guess,win,5,left,10,guess_outcome,0,undefined,0,0,155,373182,1114936
35,19,female,Belgium,2,39,ITC,win,5,left,10,ITC_start,452,space,0,0,155,372728,1115390
35,19,female,Belgium,2,39,ITC,win,5,left,10,ITC_choice,1072,f,0,0,155,371653,1116465
35,19,female,Belgium,2,39,ITC,win,5,left,10,ITC_wait,0,undefined,0,0,155,366645,1121473
35,19,female,Belgium,2,39,ITC,win,5,left,10,ITC_collect,803,k,0,0,155,365838,1122280
35,19,female,Belgium,2,39,ITC,win,5,left,10,ITC_outcome,0,undefined,0,0,175,364830,1123288
35,19,female,Belgium,2,40,guess,loss,5,left,12,guess_start,912,space,0,0,175,363915,1124203
35,19,female,Belgium,2,40,guess,loss,5,left,12,guess_choice,827,f,0,0,175,363083,1125035
35,19,female,Belgium,2,40,guess,loss,5,left,12,guess_outcome,0,undefined,0,0,160,361528,1126590
35,19,female,Belgium,2,40,ITC,loss,5,left,12,ITC_start,384,space,0,0,160,361141,1126977
35,19,female,Belgium,2,40,ITC,loss,5,left,12,ITC_choice,826,f,0,0,160,360313,1127805
35,19,female,Belgium,2,40,ITC,loss,5,left,12,ITC_wait,0,undefined,0,0,160,355309,1132809
35,19,female,Belgium,2,40,ITC,loss,5,left,12,ITC_collect,928,k,0,0,160,354377,1133741
35,19,female,Belgium,2,40,ITC,loss,5,left,12,ITC_outcome,0,undefined,0,0,180,353369,1134749
35,19,female,Belgium,2,41,guess,neutral,10,right,8,guess_start,538,space,0,0,180,352827,1135291
35,19,female,Belgium,2,41,guess,neutral,10,right,8,guess_choice,759,j,0,0,180,352064,1136054
35,19,female,Belgium,2,41,guess,neutral,10,right,8,guess_outcome,0,undefined,0,0,180,350506,1137612
35,19,female,Belgium,2,41,ITC,neutral,10,right,8,ITC_start,430,space,0,0,180,350073,1138045
35,19,female,Belgium,2,41,ITC,neutral,10,right,8,ITC_choice,711,j,0,0,180,349359,1138759
35,19,female,Belgium,2,41,ITC,neutral,10,right,8,ITC_wait,0,undefined,0,0,180,339352,1148766
35,19,female,Belgium,2,41,ITC,neutral,10,right,8,ITC_collect,670,k,0,0,180,338679,1149439
35,19,female,Belgium,2,41,ITC,neutral,10,right,8,ITC_outcome,0,undefined,0,0,200,337670,1150448
35,19,female,Belgium,2,42,guess,win,5,right,13,guess_start,450,space,0,0,200,337217,1150901
35,19,female,Belgium,2,42,guess,win,5,right,13,guess_choice,816,f,0,0,200,336397,1151721
35,19,female,Belgium,2,42,guess,win,5,right,13,guess_outcome,0,undefined,0,0,220,334841,1153277
35,19,female,Belgium,2,42,ITC,win,5,right,13,ITC_start,735,space,0,0,220,334103,1154015
35,19,female,Belgium,2,42,ITC,win,5,right,13,ITC_choice,838,j,0,0,220,333262,1154856
35,19,female,Belgium,2,42,ITC,win,5,right,13,ITC_wait,0,undefined,0,0,220,328255,1159863
35,19,female,Belgium,2,42,ITC,win,5,right,13,ITC_collect,585,k,0,0,220,327667,1160451
35,19,female,Belgium,2,42,ITC,win,5,right,13,ITC_outcome,0,undefined,0,0,240,326658,1161460
35,19,female,Belgium,2,43,guess,neutral,10,right,6,guess_start,527,space,0,0,240,326129,1161989
35,19,female,Belgium,2,43,guess,neutral,10,right,6,guess_choice,1249,j,0,0,240,324875,1163243
35,19,female,Belgium,2,43,guess,neutral,10,right,6,guess_outcome,0,undefined,0,0,240,323316,1164802
35,19,female,Belgium,2,43,ITC,neutral,10,right,6,ITC_start,410,space,0,0,240,322903,1165215
35,19,female,Belgium,2,43,ITC,neutral,10,right,6,ITC_choice,805,j,0,0,240,322095,1166023
35,19,female,Belgium,2,43,ITC,neutral,10,right,6,ITC_wait,0,undefined,0,0,240,312088,1176030
35,19,female,Belgium,2,43,ITC,neutral,10,right,6,ITC_collect,1050,k,0,0,240,311035,1177083
35,19,female,Belgium,2,43,ITC,neutral,10,right,6,ITC_outcome,0,undefined,0,0,260,310028,1178090
35,19,female,Belgium,2,44,guess,win,10,left,8,guess_start,576,space,0,0,260,309448,1178670
35,19,female,Belgium,2,44,guess,win,10,left,8,guess_choice,786,f,0,0,260,308658,1179460
35,19,female,Belgium,2,44,guess,win,10,left,8,guess_outcome,0,undefined,0,0,280,307100,1181018
35,19,female,Belgium,2,44,ITC,win,10,left,8,ITC_start,595,space,0,0,280,306502,1181616
35,19,female,Belgium,2,44,ITC,win,10,left,8,ITC_choice,708,f,0,0,280,305791,1182327
35,19,female,Belgium,2,44,ITC,win,10,left,8,ITC_wait,0,undefined,0,0,280,295784,1192334
35,19,female,Belgium,2,44,ITC,win,10,left,8,ITC_collect,322,k,0,0,280,295458,1192660
35,19,female,Belgium,2,44,ITC,win,10,left,8,ITC_outcome,0,undefined,0,0,300,294449,1193669
35,19,female,Belgium,2,45,guess,neutral,5,left,12,guess_start,383,space,0,0,300,294063,1194055
35,19,female,Belgium,2,45,guess,neutral,5,left,12,guess_choice,736,j,0,0,300,293323,1194795
35,19,female,Belgium,2,45,guess,neutral,5,left,12,guess_outcome,0,undefined,0,0,300,291768,1196350
35,19,female,Belgium,2,45,ITC,neutral,5,left,12,ITC_start,611,space,0,0,300,291154,1196964
35,19,female,Belgium,2,45,ITC,neutral,5,left,12,ITC_choice,726,f,0,0,300,290425,1197693
35,19,female,Belgium,2,45,ITC,neutral,5,left,12,ITC_wait,0,undefined,0,0,300,285418,1202700
35,19,female,Belgium,2,45,ITC,neutral,5,left,12,ITC_collect,700,k,0,0,300,284715,1203403
35,19,female,Belgium,2,45,ITC,neutral,5,left,12,ITC_outcome,0,undefined,0,0,320,283709,1204409
35,19,female,Belgium,2,46,guess,loss,10,left,2,guess_start,348,space,0,0,320,283358,1204760
35,19,female,Belgium,2,46,guess,loss,10,left,2,guess_choice,839,f,0,0,320,282514,1205604
35,19,female,Belgium,2,46,guess,loss,10,left,2,guess_outcome,0,undefined,0,0,305,280959,1207159
35,19,female,Belgium,2,46,ITC,loss,10,left,2,ITC_start,165,space,0,0,305,280790,1207328
35,19,female,Belgium,2,46,ITC,loss,10,left,2,ITC_choice,891,f,0,0,305,279896,1208222
35,19,female,Belgium,2,46,ITC,loss,10,left,2,ITC_wait,0,undefined,0,0,305,269888,1218230
35,19,female,Belgium,2,46,ITC,loss,10,left,2,ITC_collect,874,k,0,0,305,269012,1219106
35,19,female,Belgium,2,46,ITC,loss,10,left,2,ITC_outcome,0,undefined,0,0,325,268003,1220115
35,19,female,Belgium,2,47,guess,neutral,5,left,10,guess_start,1051,space,0,0,325,266949,1221169
35,19,female,Belgium,2,47,guess,neutral,5,left,10,guess_choice,806,f,0,0,325,266138,1221980
35,19,female,Belgium,2,47,guess,neutral,5,left,10,guess_outcome,0,undefined,0,0,325,264579,1223539
35,19,female,Belgium,2,47,ITC,neutral,5,left,10,ITC_start,857,space,0,0,325,263719,1224399
35,19,female,Belgium,2,47,ITC,neutral,5,left,10,ITC_choice,927,f,0,0,325,262789,1225329
35,19,female,Belgium,2,47,ITC,neutral,5,left,10,ITC_wait,0,undefined,0,0,325,257782,1230336
35,19,female,Belgium,2,47,ITC,neutral,5,left,10,ITC_collect,675,k,0,0,325,257104,1231014
35,19,female,Belgium,2,47,ITC,neutral,5,left,10,ITC_outcome,0,undefined,0,0,345,256095,1232023
35,19,female,Belgium,2,48,guess,win,5,right,12,guess_start,589,space,0,0,345,255503,1232615
35,19,female,Belgium,2,48,guess,win,5,right,12,guess_choice,863,f,0,0,345,254635,1233483
35,19,female,Belgium,2,48,guess,win,5,right,12,guess_outcome,0,undefined,0,0,365,253076,1235042
35,19,female,Belgium,2,48,ITC,win,5,right,12,ITC_start,733,space,0,0,365,252339,1235779
35,19,female,Belgium,2,48,ITC,win,5,right,12,ITC_choice,1158,j,0,0,365,251179,1236939
35,19,female,Belgium,2,48,ITC,win,5,right,12,ITC_wait,0,undefined,0,0,365,246172,1241946
35,19,female,Belgium,2,48,ITC,win,5,right,12,ITC_collect,749,k,0,0,365,245419,1242699
35,19,female,Belgium,2,48,ITC,win,5,right,12,ITC_outcome,0,undefined,0,0,385,244412,1243706
35,19,female,Belgium,2,49,guess,win,5,left,7,guess_start,536,space,0,0,385,243872,1244246
35,19,female,Belgium,2,49,guess,win,5,left,7,guess_choice,968,f,0,0,385,242898,1245220
35,19,female,Belgium,2,49,guess,win,5,left,7,guess_outcome,0,undefined,0,0,405,241339,1246779
35,19,female,Belgium,2,49,ITC,win,5,left,7,ITC_start,554,space,0,0,405,240783,1247335
35,19,female,Belgium,2,49,ITC,win,5,left,7,ITC_choice,667,f,0,0,405,240113,1248005
35,19,female,Belgium,2,49,ITC,win,5,left,7,ITC_wait,0,undefined,0,0,405,235105,1253013
35,19,female,Belgium,2,49,ITC,win,5,left,7,ITC_collect,651,k,0,0,405,234451,1253667
35,19,female,Belgium,2,49,ITC,win,5,left,7,ITC_outcome,0,undefined,0,0,425,233443,1254675
35,19,female,Belgium,2,50,guess,loss,5,left,6,guess_start,352,space,0,0,425,233088,1255030
35,19,female,Belgium,2,50,guess,loss,5,left,6,guess_choice,951,f,0,0,425,232131,1255987
35,19,female,Belgium,2,50,guess,loss,5,left,6,guess_outcome,0,undefined,0,0,410,230574,1257544
35,19,female,Belgium,2,50,ITC,loss,5,left,6,ITC_start,422,space,0,0,410,230150,1257968
35,19,female,Belgium,2,50,ITC,loss,5,left,6,ITC_choice,712,f,0,0,410,229435,1258683
35,19,female,Belgium,2,50,ITC,loss,5,left,6,ITC_wait,0,undefined,0,0,410,224427,1263691
35,19,female,Belgium,2,50,ITC,loss,5,left,6,ITC_collect,1051,k,0,0,410,223373,1264745
35,19,female,Belgium,2,50,ITC,loss,5,left,6,ITC_outcome,0,undefined,0,0,430,222368,1265750
35,19,female,Belgium,2,51,guess,neutral,5,right,9,guess_start,1113,space,0,0,430,221252,1266866
35,19,female,Belgium,2,51,guess,neutral,5,right,9,guess_choice,781,f,0,0,430,220466,1267652
35,19,female,Belgium,2,51,guess,neutral,5,right,9,guess_outcome,0,undefined,0,0,430,218906,1269212
35,19,female,Belgium,2,51,ITC,neutral,5,right,9,ITC_start,460,space,0,0,430,218443,1269675
35,19,female,Belgium,2,51,ITC,neutral,5,right,9,ITC_choice,639,j,0,0,430,217801,1270317
35,19,female,Belgium,2,51,ITC,neutral,5,right,9,ITC_wait,0,undefined,0,0,430,212798,1275320
35,19,female,Belgium,2,51,ITC,neutral,5,right,9,ITC_collect,1320,k,0,0,430,211475,1276643
35,19,female,Belgium,2,51,ITC,neutral,5,right,9,ITC_outcome,0,undefined,0,0,450,210466,1277652
35,19,female,Belgium,2,52,guess,neutral,5,right,13,guess_start,589,space,0,0,450,209873,1278245
35,19,female,Belgium,2,52,guess,neutral,5,right,13,guess_choice,628,f,0,0,450,209241,1278877
35,19,female,Belgium,2,52,guess,neutral,5,right,13,guess_outcome,0,undefined,0,0,450,207684,1280434
35,19,female,Belgium,2,52,ITC,neutral,5,right,13,ITC_start,649,space,0,0,450,207032,1281086
35,19,female,Belgium,2,52,ITC,neutral,5,right,13,ITC_choice,720,j,0,0,450,206309,1281809
35,19,female,Belgium,2,52,ITC,neutral,5,right,13,ITC_wait,0,undefined,0,0,450,201301,1286817
35,19,female,Belgium,2,52,ITC,neutral,5,right,13,ITC_collect,335,k,0,0,450,200963,1287155
35,19,female,Belgium,2,52,ITC,neutral,5,right,13,ITC_outcome,0,undefined,0,0,470,199955,1288163
35,19,female,Belgium,2,53,guess,neutral,5,left,2,guess_start,372,space,0,0,470,199579,1288539
35,19,female,Belgium,2,53,guess,neutral,5,left,2,guess_choice,705,j,0,0,470,198870,1289248
35,19,female,Belgium,2,53,guess,neutral,5,left,2,guess_outcome,0,undefined,0,0,470,197311,1290807
35,19,female,Belgium,2,53,ITC,neutral,5,left,2,ITC_start,546,space,0,0,470,196763,1291355
35,19,female,Belgium,2,53,ITC,neutral,5,left,2,ITC_choice,639,f,0,0,470,196122,1291996
35,19,female,Belgium,2,53,ITC,neutral,5,left,2,ITC_wait,0,undefined,0,0,470,191117,1297001
35,19,female,Belgium,2,53,ITC,neutral,5,left,2,ITC_collect,753,k,0,0,470,190361,1297757
35,19,female,Belgium,2,53,ITC,neutral,5,left,2,ITC_outcome,0,undefined,0,0,490,189353,1298765
35,19,female,Belgium,2,54,guess,neutral,5,left,11,guess_start,457,space,0,0,490,188893,1299225
35,19,female,Belgium,2,54,guess,neutral,5,left,11,guess_choice,581,j,0,0,490,188308,1299810
35,19,female,Belgium,2,54,guess,neutral,5,left,11,guess_outcome,0,undefined,0,0,490,186752,1301366
35,19,female,Belgium,2,54,ITC,neutral,5,left,11,ITC_start,570,space,0,0,490,186179,1301939
35,19,female,Belgium,2,54,ITC,neutral,5,left,11,ITC_choice,799,f,0,0,490,185378,1302740
35,19,female,Belgium,2,54,ITC,neutral,5,left,11,ITC_wait,0,undefined,0,0,490,180373,1307745
35,19,female,Belgium,2,54,ITC,neutral,5,left,11,ITC_collect,1689,k,0,0,490,178680,1309438
35,19,female,Belgium,2,54,ITC,neutral,5,left,11,ITC_outcome,0,undefined,0,0,510,177672,1310446
35,19,female,Belgium,2,55,guess,neutral,10,right,7,guess_start,362,space,0,0,510,177305,1310813
35,19,female,Belgium,2,55,guess,neutral,10,right,7,guess_choice,605,j,0,0,510,176696,1311422
35,19,female,Belgium,2,55,guess,neutral,10,right,7,guess_outcome,0,undefined,0,0,510,175142,1312976
35,19,female,Belgium,2,55,ITC,neutral,10,right,7,ITC_start,599,space,0,0,510,174540,1313578
35,19,female,Belgium,2,55,ITC,neutral,10,right,7,ITC_choice,739,j,0,0,510,173799,1314319
35,19,female,Belgium,2,55,ITC,neutral,10,right,7,ITC_wait,0,undefined,0,0,510,163791,1324327
35,19,female,Belgium,2,55,ITC,neutral,10,right,7,ITC_collect,762,k,0,0,510,163026,1325092
35,19,female,Belgium,2,55,ITC,neutral,10,right,7,ITC_outcome,0,undefined,0,0,530,162017,1326101
35,19,female,Belgium,2,56,guess,loss,5,left,10,guess_start,445,space,0,0,530,161569,1326549
35,19,female,Belgium,2,56,guess,loss,5,left,10,guess_choice,916,j,0,0,530,160649,1327469
35,19,female,Belgium,2,56,guess,loss,5,left,10,guess_outcome,0,undefined,0,0,515,159090,1329028
35,19,female,Belgium,2,56,ITC,loss,5,left,10,ITC_start,510,space,0,0,515,158576,1329542
35,19,female,Belgium,2,56,ITC,loss,5,left,10,ITC_choice,524,f,0,0,515,158050,1330068
35,19,female,Belgium,2,56,ITC,loss,5,left,10,ITC_wait,0,undefined,0,0,515,153043,1335075
35,19,female,Belgium,2,56,ITC,loss,5,left,10,ITC_collect,419,k,0,0,515,152620,1335498
35,19,female,Belgium,2,56,ITC,loss,5,left,10,ITC_outcome,0,undefined,0,0,535,151613,1336505
35,19,female,Belgium,2,57,guess,neutral,5,right,15,guess_start,505,space,0,0,535,151104,1337014
35,19,female,Belgium,2,57,guess,neutral,5,right,15,guess_choice,688,f,0,0,535,150412,1337706
35,19,female,Belgium,2,57,guess,neutral,5,right,15,guess_outcome,0,undefined,0,0,535,148853,1339265
35,19,female,Belgium,2,57,ITC,neutral,5,right,15,ITC_start,1412,space,0,0,535,147438,1340680
35,19,female,Belgium,2,57,ITC,neutral,5,right,15,ITC_choice,648,j,0,0,535,146787,1341331
35,19,female,Belgium,2,57,ITC,neutral,5,right,15,ITC_wait,0,undefined,0,0,535,141777,1346341
35,19,female,Belgium,2,57,ITC,neutral,5,right,15,ITC_collect,797,k,0,0,535,140977,1347141
35,19,female,Belgium,2,57,ITC,neutral,5,right,15,ITC_outcome,0,undefined,0,0,555,139969,1348149
35,19,female,Belgium,2,58,guess,neutral,5,right,6,guess_start,1734,space,0,0,555,138232,1349886
35,19,female,Belgium,2,58,guess,neutral,5,right,6,guess_choice,702,f,0,0,555,137525,1350593
35,19,female,Belgium,2,58,guess,neutral,5,right,6,guess_outcome,0,undefined,0,0,555,135966,1352152
35,19,female,Belgium,2,58,ITC,neutral,5,right,6,ITC_start,1145,space,0,0,555,134819,1353299
35,19,female,Belgium,2,58,ITC,neutral,5,right,6,ITC_choice,612,j,0,0,555,134204,1353914
35,19,female,Belgium,2,58,ITC,neutral,5,right,6,ITC_wait,0,undefined,0,0,555,129196,1358922
35,19,female,Belgium,2,58,ITC,neutral,5,right,6,ITC_collect,1028,k,0,0,555,128165,1359953
35,19,female,Belgium,2,58,ITC,neutral,5,right,6,ITC_outcome,0,undefined,0,0,575,127159,1360959
35,19,female,Belgium,2,59,guess,loss,10,right,5,guess_start,824,space,0,0,575,126332,1361786
35,19,female,Belgium,2,59,guess,loss,10,right,5,guess_choice,1004,f,0,0,575,125324,1362794
35,19,female,Belgium,2,59,guess,loss,10,right,5,guess_outcome,0,undefined,0,0,560,123764,1364354
35,19,female,Belgium,2,59,ITC,loss,10,right,5,ITC_start,55,space,0,0,560,123706,1364412
35,19,female,Belgium,2,59,ITC,loss,10,right,5,ITC_choice,721,j,0,0,560,122983,1365135
35,19,female,Belgium,2,59,ITC,loss,10,right,5,ITC_wait,0,undefined,0,0,560,112975,1375143
35,19,female,Belgium,2,59,ITC,loss,10,right,5,ITC_collect,551,k,0,0,560,112421,1375697
35,19,female,Belgium,2,59,ITC,loss,10,right,5,ITC_outcome,0,undefined,0,0,580,111417,1376701
35,19,female,Belgium,2,60,guess,loss,10,left,4,guess_start,1721,space,0,0,580,109693,1378425
35,19,female,Belgium,2,60,guess,loss,10,left,4,guess_choice,1103,f,0,0,580,108586,1379532
35,19,female,Belgium,2,60,guess,loss,10,left,4,guess_outcome,0,undefined,0,0,565,107025,1381093
35,19,female,Belgium,2,60,ITC,loss,10,left,4,ITC_start,917,space,0,0,565,106104,1382014
35,19,female,Belgium,2,60,ITC,loss,10,left,4,ITC_choice,704,f,0,0,565,105397,1382721
35,19,female,Belgium,2,60,ITC,loss,10,left,4,ITC_wait,0,undefined,0,0,565,95390,1392728
35,19,female,Belgium,2,60,ITC,loss,10,left,4,ITC_collect,539,k,0,0,565,94847,1393271
35,19,female,Belgium,2,60,ITC,loss,10,left,4,ITC_outcome,0,undefined,0,0,585,93839,1394279
35,19,female,Belgium,2,61,guess,loss,10,left,7,guess_start,733,space,0,0,585,93102,1395016
35,19,female,Belgium,2,61,guess,loss,10,left,7,guess_choice,1539,f,0,0,585,91559,1396559
35,19,female,Belgium,2,61,guess,loss,10,left,7,guess_outcome,0,undefined,0,0,570,89999,1398119
35,19,female,Belgium,2,61,ITC,loss,10,left,7,ITC_start,438,space,0,0,570,89558,1398560
35,19,female,Belgium,2,61,ITC,loss,10,left,7,ITC_choice,626,f,0,0,570,88930,1399188
35,19,female,Belgium,2,61,ITC,loss,10,left,7,ITC_wait,0,undefined,0,0,570,78922,1409196
35,19,female,Belgium,2,61,ITC,loss,10,left,7,ITC_collect,585,k,0,0,570,78334,1409784
35,19,female,Belgium,2,61,ITC,loss,10,left,7,ITC_outcome,0,undefined,0,0,590,77329,1410789
35,19,female,Belgium,2,62,guess,loss,5,left,11,guess_start,655,space,0,0,590,76670,1411448
35,19,female,Belgium,2,62,guess,loss,5,left,11,guess_choice,914,j,0,0,590,75751,1412367
35,19,female,Belgium,2,62,guess,loss,5,left,11,guess_outcome,0,undefined,0,0,575,74191,1413927
35,19,female,Belgium,2,62,ITC,loss,5,left,11,ITC_start,813,space,0,0,575,73376,1414742
35,19,female,Belgium,2,62,ITC,loss,5,left,11,ITC_choice,1200,f,0,0,575,72173,1415945
35,19,female,Belgium,2,62,ITC,loss,5,left,11,ITC_wait,0,undefined,0,0,575,67165,1420953
35,19,female,Belgium,2,62,ITC,loss,5,left,11,ITC_collect,4279,k,0,0,575,62882,1425236
35,19,female,Belgium,2,62,ITC,loss,5,left,11,ITC_outcome,0,undefined,0,0,595,61872,1426246
35,19,female,Belgium,2,63,guess,win,5,right,15,guess_start,594,space,0,0,595,61275,1426843
35,19,female,Belgium,2,63,guess,win,5,right,15,guess_choice,975,f,0,0,595,60296,1427822
35,19,female,Belgium,2,63,guess,win,5,right,15,guess_outcome,0,undefined,0,0,615,58736,1429382
35,19,female,Belgium,2,63,ITC,win,5,right,15,ITC_start,604,space,0,0,615,58129,1429989
35,19,female,Belgium,2,63,ITC,win,5,right,15,ITC_choice,608,j,0,0,615,57517,1430601
35,19,female,Belgium,2,63,ITC,win,5,right,15,ITC_wait,0,undefined,0,0,615,52510,1435608
35,19,female,Belgium,2,63,ITC,win,5,right,15,ITC_collect,1609,k,0,0,615,50897,1437221
35,19,female,Belgium,2,63,ITC,win,5,right,15,ITC_outcome,0,undefined,0,0,635,49889,1438229
35,19,female,Belgium,2,64,guess,win,10,right,5,guess_start,520,space,0,0,635,49365,1438753
35,19,female,Belgium,2,64,guess,win,10,right,5,guess_choice,1001,f,0,0,635,48360,1439758
35,19,female,Belgium,2,64,guess,win,10,right,5,guess_outcome,0,undefined,0,0,655,46801,1441317
35,19,female,Belgium,2,64,ITC,win,10,right,5,ITC_start,474,space,0,0,655,46324,1441794
35,19,female,Belgium,2,64,ITC,win,10,right,5,ITC_choice,504,j,0,0,655,45817,1442301
35,19,female,Belgium,2,64,ITC,win,10,right,5,ITC_wait,0,undefined,0,0,655,35810,1452308
35,19,female,Belgium,2,64,ITC,win,10,right,5,ITC_collect,366,k,0,0,655,35440,1452678
35,19,female,Belgium,2,64,ITC,win,10,right,5,ITC_outcome,0,undefined,0,0,675,34431,1453687
35,19,female,Belgium,2,65,guess,neutral,10,left,2,guess_start,307,space,0,0,675,34120,1453998
35,19,female,Belgium,2,65,guess,neutral,10,left,2,guess_choice,605,j,0,0,675,33511,1454607
35,19,female,Belgium,2,65,guess,neutral,10,left,2,guess_outcome,0,undefined,0,0,675,31953,1456165
35,19,female,Belgium,2,65,ITC,neutral,10,left,2,ITC_start,884,space,0,0,675,31065,1457053
35,19,female,Belgium,2,65,ITC,neutral,10,left,2,ITC_choice,826,f,0,0,675,30237,1457881
35,19,female,Belgium,2,65,ITC,neutral,10,left,2,ITC_wait,0,undefined,0,0,675,20229,1467889
35,19,female,Belgium,2,65,ITC,neutral,10,left,2,ITC_collect,369,k,0,0,675,19857,1468261
35,19,female,Belgium,2,65,ITC,neutral,10,left,2,ITC_outcome,0,undefined,0,0,695,18851,1469267
35,19,female,Belgium,2,66,guess,loss,5,left,16,guess_start,429,space,0,0,695,18419,1469699
35,19,female,Belgium,2,66,guess,loss,5,left,16,guess_choice,642,j,0,0,695,17772,1470346
35,19,female,Belgium,2,66,guess,loss,5,left,16,guess_outcome,0,undefined,0,0,680,16216,1471902
35,19,female,Belgium,2,66,ITC,loss,5,left,16,ITC_start,458,space,0,0,680,15755,1472363
35,19,female,Belgium,2,66,ITC,loss,5,left,16,ITC_choice,546,f,0,0,680,15207,1472911
35,19,female,Belgium,2,66,ITC,loss,5,left,16,ITC_wait,0,undefined,0,0,680,10204,1477914
35,19,female,Belgium,2,66,ITC,loss,5,left,16,ITC_collect,377,k,0,0,680,9824,1478294
35,19,female,Belgium,2,66,ITC,loss,5,left,16,ITC_outcome,0,undefined,0,0,700,8815,1479303
35,19,female,Belgium,2,67,guess,neutral,5,right,16,guess_start,634,space,0,0,700,8178,1479940
35,19,female,Belgium,2,67,guess,neutral,5,right,16,guess_choice,681,f,0,0,700,7492,1480626
35,19,female,Belgium,2,67,guess,neutral,5,right,16,guess_outcome,0,undefined,0,0,700,5933,1482185
35,19,female,Belgium,2,67,ITC,neutral,5,right,16,ITC_start,537,space,0,0,700,5393,1482725
35,19,female,Belgium,2,67,ITC,neutral,5,right,16,ITC_choice,515,j,0,0,700,4876,1483242
35,19,female,Belgium,2,67,ITC,neutral,5,right,16,ITC_wait,0,undefined,0,0,700,-6,1488124
35,19,female,Belgium,3,68,guess,win,5,left,2,guess_start,2300,space,0,0,0,477698,1500150
35,19,female,Belgium,3,68,guess,win,5,left,2,guess_choice,887,f,0,0,0,476806,1501042
35,19,female,Belgium,3,68,guess,win,5,left,2,guess_outcome,0,undefined,0,0,20,475247,1502601
35,19,female,Belgium,3,68,ITC,win,5,left,2,ITC_start,379,space,0,0,20,474865,1502983
35,19,female,Belgium,3,68,ITC,win,5,left,2,ITC_choice,594,f,0,0,20,474268,1503580
35,19,female,Belgium,3,68,ITC,win,5,left,2,ITC_wait,0,undefined,0,0,20,469261,1508587
35,19,female,Belgium,3,68,ITC,win,5,left,2,ITC_collect,984,k,0,0,20,468274,1509574
35,19,female,Belgium,3,68,ITC,win,5,left,2,ITC_outcome,0,undefined,0,0,40,467266,1510582
35,19,female,Belgium,3,69,guess,loss,5,left,7,guess_start,365,space,0,0,40,466897,1510951
35,19,female,Belgium,3,69,guess,loss,5,left,7,guess_choice,438,j,0,0,40,466455,1511393
35,19,female,Belgium,3,69,guess,loss,5,left,7,guess_outcome,0,undefined,0,0,25,464899,1512949
35,19,female,Belgium,3,69,ITC,loss,5,left,7,ITC_start,407,space,0,0,25,464489,1513359
35,19,female,Belgium,3,69,ITC,loss,5,left,7,ITC_choice,525,f,0,0,25,463962,1513886
35,19,female,Belgium,3,69,ITC,loss,5,left,7,ITC_wait,0,undefined,0,0,25,458954,1518894
35,19,female,Belgium,3,69,ITC,loss,5,left,7,ITC_collect,1641,k,0,0,25,457310,1520538
35,19,female,Belgium,3,69,ITC,loss,5,left,7,ITC_outcome,0,undefined,0,0,45,456302,1521546
35,19,female,Belgium,3,70,guess,win,5,right,11,guess_start,422,space,0,0,45,455876,1521972
35,19,female,Belgium,3,70,guess,win,5,right,11,guess_choice,583,j,0,0,45,455289,1522559
35,19,female,Belgium,3,70,guess,win,5,right,11,guess_outcome,0,undefined,0,0,65,453734,1524114
35,19,female,Belgium,3,70,ITC,win,5,right,11,ITC_start,400,space,0,0,65,453331,1524517
35,19,female,Belgium,3,70,ITC,win,5,right,11,ITC_choice,709,j,0,0,65,452619,1525229
35,19,female,Belgium,3,70,ITC,win,5,right,11,ITC_wait,0,undefined,0,0,65,447616,1530232
35,19,female,Belgium,3,70,ITC,win,5,right,11,ITC_collect,793,k,0,0,65,446820,1531028
35,19,female,Belgium,3,70,ITC,win,5,right,11,ITC_outcome,0,undefined,0,0,85,445815,1532033
35,19,female,Belgium,3,71,guess,loss,5,left,5,guess_start,288,space,0,0,85,445523,1532325
35,19,female,Belgium,3,71,guess,loss,5,left,5,guess_choice,400,f,0,0,85,445119,1532729
35,19,female,Belgium,3,71,guess,loss,5,left,5,guess_outcome,0,undefined,0,0,70,443560,1534288
35,19,female,Belgium,3,71,ITC,loss,5,left,5,ITC_start,503,space,0,0,70,443054,1534794
35,19,female,Belgium,3,71,ITC,loss,5,left,5,ITC_choice,864,f,0,0,70,442187,1535661
35,19,female,Belgium,3,71,ITC,loss,5,left,5,ITC_wait,0,undefined,0,0,70,437178,1540670
35,19,female,Belgium,3,71,ITC,loss,5,left,5,ITC_collect,632,k,0,0,70,436543,1541305
35,19,female,Belgium,3,71,ITC,loss,5,left,5,ITC_outcome,0,undefined,0,0,90,435534,1542314
35,19,female,Belgium,3,72,guess,loss,5,right,14,guess_start,464,space,0,0,90,435067,1542781
35,19,female,Belgium,3,72,guess,loss,5,right,14,guess_choice,637,j,0,0,90,434425,1543423
35,19,female,Belgium,3,72,guess,loss,5,right,14,guess_outcome,0,undefined,0,0,75,432866,1544982
35,19,female,Belgium,3,72,ITC,loss,5,right,14,ITC_start,338,space,0,0,75,432525,1545323
35,19,female,Belgium,3,72,ITC,loss,5,right,14,ITC_choice,902,f,0,0,75,431621,1546227
35,19,female,Belgium,3,72,ITC,loss,5,right,14,ITC_wait,0,undefined,0,0,75,431617,1546231
35,19,female,Belgium,3,72,ITC,loss,5,right,14,ITC_collect,1547,k,0,0,75,430069,1547779
35,19,female,Belgium,3,72,ITC,loss,5,right,14,ITC_outcome,0,undefined,0,0,89,429063,1548785
35,19,female,Belgium,3,73,guess,neutral,5,left,14,guess_start,416,space,0,0,89,428644,1549204
35,19,female,Belgium,3,73,guess,neutral,5,left,14,guess_choice,811,f,0,0,89,427828,1550020
35,19,female,Belgium,3,73,guess,neutral,5,left,14,guess_outcome,0,undefined,0,0,89,426268,1551580
35,19,female,Belgium,3,73,ITC,neutral,5,left,14,ITC_start,409,space,0,0,89,425856,1551992
35,19,female,Belgium,3,73,ITC,neutral,5,left,14,ITC_choice,763,j,0,0,89,425091,1552757
35,19,female,Belgium,3,73,ITC,neutral,5,left,14,ITC_wait,0,undefined,0,0,89,425087,1552761
35,19,female,Belgium,3,73,ITC,neutral,5,left,14,ITC_collect,1084,k,0,0,89,424001,1553847
35,19,female,Belgium,3,73,ITC,neutral,5,left,14,ITC_outcome,0,undefined,0,0,103,422993,1554855
35,19,female,Belgium,3,74,guess,win,5,left,9,guess_start,429,space,0,0,103,422561,1555287
35,19,female,Belgium,3,74,guess,win,5,left,9,guess_choice,992,f,0,0,103,421564,1556284
35,19,female,Belgium,3,74,guess,win,5,left,9,guess_outcome,0,undefined,0,0,123,420004,1557844
35,19,female,Belgium,3,74,ITC,win,5,left,9,ITC_start,283,space,0,0,123,419719,1558129
35,19,female,Belgium,3,74,ITC,win,5,left,9,ITC_choice,767,f,0,0,123,418948,1558900
35,19,female,Belgium,3,74,ITC,win,5,left,9,ITC_wait,0,undefined,0,0,123,413941,1563907
35,19,female,Belgium,3,74,ITC,win,5,left,9,ITC_collect,369,k,0,0,123,413569,1564279
35,19,female,Belgium,3,74,ITC,win,5,left,9,ITC_outcome,0,undefined,0,0,143,412560,1565288
35,19,female,Belgium,3,75,guess,loss,10,left,4,guess_start,296,space,0,0,143,412261,1565587
35,19,female,Belgium,3,75,guess,loss,10,left,4,guess_choice,752,j,0,0,143,411505,1566343
35,19,female,Belgium,3,75,guess,loss,10,left,4,guess_outcome,0,undefined,0,0,128,409946,1567902
35,19,female,Belgium,3,75,ITC,loss,10,left,4,ITC_start,350,space,0,0,128,409592,1568256
35,19,female,Belgium,3,75,ITC,loss,10,left,4,ITC_choice,645,f,0,0,128,408945,1568903
35,19,female,Belgium,3,75,ITC,loss,10,left,4,ITC_wait,0,undefined,0,0,128,398942,1578906
35,19,female,Belgium,3,75,ITC,loss,10,left,4,ITC_collect,521,k,0,0,128,398417,1579431
35,19,female,Belgium,3,75,ITC,loss,10,left,4,ITC_outcome,0,undefined,0,0,148,397412,1580436
35,19,female,Belgium,3,76,guess,neutral,5,left,9,guess_start,268,space,0,0,148,397141,1580707
35,19,female,Belgium,3,76,guess,neutral,5,left,9,guess_choice,628,j,0,0,148,396508,1581340
35,19,female,Belgium,3,76,guess,neutral,5,left,9,guess_outcome,0,undefined,0,0,148,394951,1582897
35,19,female,Belgium,3,76,ITC,neutral,5,left,9,ITC_start,571,space,0,0,148,394377,1583471
35,19,female,Belgium,3,76,ITC,neutral,5,left,9,ITC_choice,783,j,0,0,148,393590,1584258
35,19,female,Belgium,3,76,ITC,neutral,5,left,9,ITC_wait,0,undefined,0,0,148,393586,1584262
35,19,female,Belgium,3,76,ITC,neutral,5,left,9,ITC_collect,897,k,0,0,148,392687,1585161
35,19,female,Belgium,3,76,ITC,neutral,5,left,9,ITC_outcome,0,undefined,0,0,157,391679,1586169
35,19,female,Belgium,3,77,guess,neutral,5,left,10,guess_start,414,space,0,0,157,391262,1586586
35,19,female,Belgium,3,77,guess,neutral,5,left,10,guess_choice,536,f,0,0,157,390721,1587127
35,19,female,Belgium,3,77,guess,neutral,5,left,10,guess_outcome,0,undefined,0,0,157,389162,1588686
35,19,female,Belgium,3,77,ITC,neutral,5,left,10,ITC_start,291,space,0,0,157,388867,1588981
35,19,female,Belgium,3,77,ITC,neutral,5,left,10,ITC_choice,681,j,0,0,157,388184,1589664
35,19,female,Belgium,3,77,ITC,neutral,5,left,10,ITC_wait,0,undefined,0,0,157,388181,1589667
35,19,female,Belgium,3,77,ITC,neutral,5,left,10,ITC_collect,830,k,0,0,157,387349,1590499
35,19,female,Belgium,3,77,ITC,neutral,5,left,10,ITC_outcome,0,undefined,0,0,167,386341,1591507
35,19,female,Belgium,3,78,guess,neutral,10,right,6,guess_start,395,space,0,0,167,385942,1591906
35,19,female,Belgium,3,78,guess,neutral,10,right,6,guess_choice,615,j,0,0,167,385323,1592525
35,19,female,Belgium,3,78,guess,neutral,10,right,6,guess_outcome,0,undefined,0,0,167,383764,1594084
35,19,female,Belgium,3,78,ITC,neutral,10,right,6,ITC_start,1247,space,0,0,167,382513,1595335
35,19,female,Belgium,3,78,ITC,neutral,10,right,6,ITC_choice,1503,j,0,0,167,381008,1596840
35,19,female,Belgium,3,78,ITC,neutral,10,right,6,ITC_wait,0,undefined,0,0,167,371000,1606848
35,19,female,Belgium,3,78,ITC,neutral,10,right,6,ITC_collect,328,k,0,0,167,370668,1607180
35,19,female,Belgium,3,78,ITC,neutral,10,right,6,ITC_outcome,0,undefined,0,0,187,369663,1608185
35,19,female,Belgium,3,79,guess,win,5,left,1,guess_start,336,space,0,0,187,369324,1608524
35,19,female,Belgium,3,79,guess,win,5,left,1,guess_choice,637,f,0,0,187,368681,1609167
35,19,female,Belgium,3,79,guess,win,5,left,1,guess_outcome,0,undefined,0,0,207,367125,1610723
35,19,female,Belgium,3,79,ITC,win,5,left,1,ITC_start,659,space,0,0,207,366464,1611384
35,19,female,Belgium,3,79,ITC,win,5,left,1,ITC_choice,592,f,0,0,207,365869,1611979
35,19,female,Belgium,3,79,ITC,win,5,left,1,ITC_wait,0,undefined,0,0,207,360861,1616987
35,19,female,Belgium,3,79,ITC,win,5,left,1,ITC_collect,682,k,0,0,207,360175,1617673
35,19,female,Belgium,3,79,ITC,win,5,left,1,ITC_outcome,0,undefined,0,0,227,359167,1618681
35,19,female,Belgium,3,80,guess,loss,10,right,5,guess_start,390,space,0,0,227,358774,1619074
35,19,female,Belgium,3,80,guess,loss,10,right,5,guess_choice,635,j,0,0,227,358135,1619713
35,19,female,Belgium,3,80,guess,loss,10,right,5,guess_outcome,0,undefined,0,0,212,356575,1621273
35,19,female,Belgium,3,80,ITC,loss,10,right,5,ITC_start,577,space,0,0,212,355995,1621853
35,19,female,Belgium,3,80,ITC,loss,10,right,5,ITC_choice,1270,j,0,0,212,354722,1623126
35,19,female,Belgium,3,80,ITC,loss,10,right,5,ITC_wait,0,undefined,0,0,212,344714,1633134
35,19,female,Belgium,3,80,ITC,loss,10,right,5,ITC_collect,634,k,0,0,212,344077,1633771
35,19,female,Belgium,3,80,ITC,loss,10,right,5,ITC_outcome,0,undefined,0,0,232,343068,1634780
35,19,female,Belgium,3,81,guess,win,5,left,8,guess_start,252,space,0,0,232,342813,1635035
35,19,female,Belgium,3,81,guess,win,5,left,8,guess_choice,842,f,0,0,232,341966,1635882
35,19,female,Belgium,3,81,guess,win,5,left,8,guess_outcome,0,undefined,0,0,252,340410,1637438
35,19,female,Belgium,3,81,ITC,win,5,left,8,ITC_start,730,space,0,0,252,339678,1638170
35,19,female,Belgium,3,81,ITC,win,5,left,8,ITC_choice,861,j,0,0,252,338815,1639033
35,19,female,Belgium,3,81,ITC,win,5,left,8,ITC_wait,0,undefined,0,0,252,338811,1639037
35,19,female,Belgium,3,81,ITC,win,5,left,8,ITC_collect,711,k,0,0,252,338099,1639749
35,19,female,Belgium,3,81,ITC,win,5,left,8,ITC_outcome,0,undefined,0,0,260,337091,1640757
35,19,female,Belgium,3,82,guess,win,10,right,7,guess_start,876,space,0,0,260,336211,1641637
35,19,female,Belgium,3,82,guess,win,10,right,7,guess_choice,571,j,0,0,260,335636,1642212
35,19,female,Belgium,3,82,guess,win,10,right,7,guess_outcome,0,undefined,0,0,280,334081,1643767
35,19,female,Belgium,3,82,ITC,win,10,right,7,ITC_start,362,space,0,0,280,333716,1644132
35,19,female,Belgium,3,82,ITC,win,10,right,7,ITC_choice,1325,f,0,0,280,332388,1645460
35,19,female,Belgium,3,82,ITC,win,10,right,7,ITC_wait,0,undefined,0,0,280,332384,1645464
35,19,female,Belgium,3,82,ITC,win,10,right,7,ITC_collect,798,k,0,0,280,331585,1646263
35,19,female,Belgium,3,82,ITC,win,10,right,7,ITC_outcome,0,undefined,0,0,287,330576,1647272
35,19,female,Belgium,3,83,guess,loss,10,right,8,guess_start,428,space,0,0,287,330146,1647702
35,19,female,Belgium,3,83,guess,loss,10,right,8,guess_choice,624,j,0,0,287,329518,1648330
35,19,female,Belgium,3,83,guess,loss,10,right,8,guess_outcome,0,undefined,0,0,272,327960,1649888
35,19,female,Belgium,3,83,ITC,loss,10,right,8,ITC_start,328,space,0,0,272,327629,1650219
35,19,female,Belgium,3,83,ITC,loss,10,right,8,ITC_wait,0,undefined,0,0,272,326390,1651458
35,19,female,Belgium,3,83,ITC,loss,10,right,8,ITC_choice,1232,f,0,0,272,326394,1651454
35,19,female,Belgium,3,83,ITC,loss,10,right,8,ITC_collect,832,k,0,0,272,325556,1652292
35,19,female,Belgium,3,83,ITC,loss,10,right,8,ITC_outcome,0,undefined,0,0,280,324551,1653297
35,19,female,Belgium,3,84,guess,loss,5,right,14,guess_start,974,space,0,0,280,323573,1654275
35,19,female,Belgium,3,84,guess,loss,5,right,14,guess_choice,782,f,0,0,280,322787,1655061
35,19,female,Belgium,3,84,guess,loss,5,right,14,guess_outcome,0,undefined,0,0,265,321229,1656619
35,19,female,Belgium,3,84,ITC,loss,5,right,14,ITC_start,361,space,0,0,265,320865,1656983
35,19,female,Belgium,3,84,ITC,loss,5,right,14,ITC_choice,1157,f,0,0,265,319706,1658142
35,19,female,Belgium,3,84,ITC,loss,5,right,14,ITC_wait,0,undefined,0,0,265,319702,1658146
35,19,female,Belgium,3,84,ITC,loss,5,right,14,ITC_collect,632,k,0,0,265,319069,1658779
35,19,female,Belgium,3,84,ITC,loss,5,right,14,ITC_outcome,0,undefined,0,0,279,318061,1659787
35,19,female,Belgium,3,85,guess,neutral,10,left,8,guess_start,429,space,0,0,279,317628,1660220
35,19,female,Belgium,3,85,guess,neutral,10,left,8,guess_choice,731,j,0,0,279,316893,1660955
35,19,female,Belgium,3,85,guess,neutral,10,left,8,guess_outcome,0,undefined,0,0,279,315338,1662510
35,19,female,Belgium,3,85,ITC,neutral,10,left,8,ITC_start,741,space,0,0,279,314594,1663254
35,19,female,Belgium,3,85,ITC,neutral,10,left,8,ITC_choice,807,f,0,0,279,313784,1664064
35,19,female,Belgium,3,85,ITC,neutral,10,left,8,ITC_wait,0,undefined,0,0,279,303778,1674070
35,19,female,Belgium,3,85,ITC,neutral,10,left,8,ITC_collect,379,k,0,0,279,303395,1674453
35,19,female,Belgium,3,85,ITC,neutral,10,left,8,ITC_outcome,0,undefined,0,0,299,302386,1675462
35,19,female,Belgium,3,86,guess,neutral,10,left,7,guess_start,318,space,0,0,299,302064,1675784
35,19,female,Belgium,3,86,guess,neutral,10,left,7,guess_choice,724,f,0,0,299,301336,1676512
35,19,female,Belgium,3,86,guess,neutral,10,left,7,guess_outcome,0,undefined,0,0,299,299778,1678070
35,19,female,Belgium,3,86,ITC,neutral,10,left,7,ITC_start,761,space,0,0,299,299014,1678834
35,19,female,Belgium,3,86,ITC,neutral,10,left,7,ITC_choice,795,j,0,0,299,298216,1679632
35,19,female,Belgium,3,86,ITC,neutral,10,left,7,ITC_wait,0,undefined,0,0,299,298212,1679636
35,19,female,Belgium,3,86,ITC,neutral,10,left,7,ITC_collect,584,k,0,0,299,297626,1680222
35,19,female,Belgium,3,86,ITC,neutral,10,left,7,ITC_outcome,0,undefined,0,0,306,296618,1681230
35,19,female,Belgium,3,87,guess,win,10,left,6,guess_start,566,space,0,0,306,296048,1681800
35,19,female,Belgium,3,87,guess,win,10,left,6,guess_choice,736,f,0,0,306,295308,1682540
35,19,female,Belgium,3,87,guess,win,10,left,6,guess_outcome,0,undefined,0,0,326,293753,1684095
35,19,female,Belgium,3,87,ITC,win,10,left,6,ITC_start,514,space,0,0,326,293237,1684611
35,19,female,Belgium,3,87,ITC,win,10,left,6,ITC_choice,806,j,0,0,326,292428,1685420
35,19,female,Belgium,3,87,ITC,win,10,left,6,ITC_wait,0,undefined,0,0,326,292425,1685423
35,19,female,Belgium,3,87,ITC,win,10,left,6,ITC_collect,607,k,0,0,326,291817,1686031
35,19,female,Belgium,3,87,ITC,win,10,left,6,ITC_outcome,0,undefined,0,0,332,290813,1687035
35,19,female,Belgium,3,88,guess,neutral,5,right,5,guess_start,382,space,0,0,332,290428,1687420
35,19,female,Belgium,3,88,guess,neutral,5,right,5,guess_choice,1107,f,0,0,332,289316,1688532
35,19,female,Belgium,3,88,guess,neutral,5,right,5,guess_outcome,0,undefined,0,0,332,287759,1690089
35,19,female,Belgium,3,88,ITC,neutral,5,right,5,ITC_start,729,space,0,0,332,287027,1690821
35,19,female,Belgium,3,88,ITC,neutral,5,right,5,ITC_choice,1078,f,0,0,332,285947,1691901
35,19,female,Belgium,3,88,ITC,neutral,5,right,5,ITC_wait,0,undefined,0,0,332,285943,1691905
35,19,female,Belgium,3,88,ITC,neutral,5,right,5,ITC_collect,490,k,0,0,332,285452,1692396
35,19,female,Belgium,3,88,ITC,neutral,5,right,5,ITC_outcome,0,undefined,0,0,337,284444,1693404
35,19,female,Belgium,3,89,guess,win,5,left,12,guess_start,414,space,0,0,337,284026,1693822
35,19,female,Belgium,3,89,guess,win,5,left,12,guess_choice,513,j,0,0,337,283509,1694339
35,19,female,Belgium,3,89,guess,win,5,left,12,guess_outcome,0,undefined,0,0,357,281952,1695896
35,19,female,Belgium,3,89,ITC,win,5,left,12,ITC_start,797,space,0,0,357,281152,1696696
35,19,female,Belgium,3,89,ITC,win,5,left,12,ITC_choice,736,j,0,0,357,280413,1697435
35,19,female,Belgium,3,89,ITC,win,5,left,12,ITC_wait,0,undefined,0,0,357,280409,1697439
35,19,female,Belgium,3,89,ITC,win,5,left,12,ITC_collect,299,k,0,0,357,280108,1697740
35,19,female,Belgium,3,89,ITC,win,5,left,12,ITC_outcome,0,undefined,0,0,369,279099,1698749
35,19,female,Belgium,3,90,guess,loss,5,right,10,guess_start,408,space,0,0,369,278688,1699160
35,19,female,Belgium,3,90,guess,loss,5,right,10,guess_choice,484,f,0,0,369,278199,1699649
35,19,female,Belgium,3,90,guess,loss,5,right,10,guess_outcome,0,undefined,0,0,354,276645,1701203
35,19,female,Belgium,3,90,ITC,loss,5,right,10,ITC_start,466,space,0,0,354,276176,1701672
35,19,female,Belgium,3,90,ITC,loss,5,right,10,ITC_choice,936,j,0,0,354,275237,1702611
35,19,female,Belgium,3,90,ITC,loss,5,right,10,ITC_wait,0,undefined,0,0,354,270229,1707619
35,19,female,Belgium,3,90,ITC,loss,5,right,10,ITC_collect,369,k,0,0,354,269857,1707991
35,19,female,Belgium,3,90,ITC,loss,5,right,10,ITC_outcome,0,undefined,0,0,374,268848,1709000
35,19,female,Belgium,3,91,guess,win,5,right,16,guess_start,273,space,0,0,374,268571,1709277
35,19,female,Belgium,3,91,guess,win,5,right,16,guess_choice,553,j,0,0,374,268014,1709834
35,19,female,Belgium,3,91,guess,win,5,right,16,guess_outcome,0,undefined,0,0,394,266454,1711394
35,19,female,Belgium,3,91,ITC,win,5,right,16,ITC_start,365,space,0,0,394,266086,1711762
35,19,female,Belgium,3,91,ITC,win,5,right,16,ITC_choice,808,j,0,0,394,265275,1712573
35,19,female,Belgium,3,91,ITC,win,5,right,16,ITC_wait,0,undefined,0,0,394,260269,1717579
35,19,female,Belgium,3,91,ITC,win,5,right,16,ITC_collect,407,k,0,0,394,259858,1717990
35,19,female,Belgium,3,91,ITC,win,5,right,16,ITC_outcome,0,undefined,0,0,414,258854,1718994
35,19,female,Belgium,3,92,guess,neutral,10,right,3,guess_start,307,space,0,0,414,258543,1719305
35,19,female,Belgium,3,92,guess,neutral,10,right,3,guess_choice,510,f,0,0,414,258029,1719819
35,19,female,Belgium,3,92,guess,neutral,10,right,3,guess_outcome,0,undefined,0,0,414,256470,1721378
35,19,female,Belgium,3,92,ITC,neutral,10,right,3,ITC_start,649,space,0,0,414,255818,1722030
35,19,female,Belgium,3,92,ITC,neutral,10,right,3,ITC_choice,1092,j,0,0,414,254723,1723125
35,19,female,Belgium,3,92,ITC,neutral,10,right,3,ITC_wait,0,undefined,0,0,414,244715,1733133
35,19,female,Belgium,3,92,ITC,neutral,10,right,3,ITC_collect,790,k,0,0,414,243922,1733926
35,19,female,Belgium,3,92,ITC,neutral,10,right,3,ITC_outcome,0,undefined,0,0,434,242916,1734932
35,19,female,Belgium,3,93,guess,win,5,right,2,guess_start,239,space,0,0,434,242674,1735174
35,19,female,Belgium,3,93,guess,win,5,right,2,guess_choice,510,f,0,0,434,242159,1735689
35,19,female,Belgium,3,93,guess,win,5,right,2,guess_outcome,0,undefined,0,0,454,240602,1737246
35,19,female,Belgium,3,93,ITC,win,5,right,2,ITC_start,394,space,0,0,454,240205,1737643
35,19,female,Belgium,3,93,ITC,win,5,right,2,ITC_choice,965,j,0,0,454,239237,1738611
35,19,female,Belgium,3,93,ITC,win,5,right,2,ITC_wait,0,undefined,0,0,454,234230,1743618
35,19,female,Belgium,3,93,ITC,win,5,right,2,ITC_collect,320,k,0,0,454,233906,1743942
35,19,female,Belgium,3,93,ITC,win,5,right,2,ITC_outcome,0,undefined,0,0,474,232902,1744946
35,19,female,Belgium,3,94,guess,neutral,5,left,6,guess_start,93,space,0,0,474,232805,1745043
35,19,female,Belgium,3,94,guess,neutral,5,left,6,guess_choice,538,j,0,0,474,232263,1745585
35,19,female,Belgium,3,94,guess,neutral,5,left,6,guess_outcome,0,undefined,0,0,474,230703,1747145
35,19,female,Belgium,3,94,ITC,neutral,5,left,6,ITC_start,795,space,0,0,474,229906,1747942
35,19,female,Belgium,3,94,ITC,neutral,5,left,6,ITC_choice,842,f,0,0,474,229061,1748787
35,19,female,Belgium,3,94,ITC,neutral,5,left,6,ITC_wait,0,undefined,0,0,474,224055,1753793
35,19,female,Belgium,3,94,ITC,neutral,5,left,6,ITC_collect,357,k,0,0,474,223695,1754153
35,19,female,Belgium,3,94,ITC,neutral,5,left,6,ITC_outcome,0,undefined,0,0,494,222691,1755157
35,19,female,Belgium,3,95,guess,loss,10,left,6,guess_start,291,space,0,0,494,222397,1755451
35,19,female,Belgium,3,95,guess,loss,10,left,6,guess_choice,737,j,0,0,494,221656,1756192
35,19,female,Belgium,3,95,guess,loss,10,left,6,guess_outcome,0,undefined,0,0,479,220097,1757751
35,19,female,Belgium,3,95,ITC,loss,10,left,6,ITC_start,232,space,0,0,479,219861,1757987
35,19,female,Belgium,3,95,ITC,loss,10,left,6,ITC_choice,755,f,0,0,479,219103,1758745
35,19,female,Belgium,3,95,ITC,loss,10,left,6,ITC_wait,0,undefined,0,0,479,209095,1768753
35,19,female,Belgium,3,95,ITC,loss,10,left,6,ITC_collect,1489,k,0,0,479,207603,1770245
35,19,female,Belgium,3,95,ITC,loss,10,left,6,ITC_outcome,0,undefined,0,0,499,206594,1771254
35,19,female,Belgium,3,96,guess,loss,5,right,13,guess_start,301,space,0,0,499,206289,1771559
35,19,female,Belgium,3,96,guess,loss,5,right,13,guess_choice,574,j,0,0,499,205712,1772136
35,19,female,Belgium,3,96,guess,loss,5,right,13,guess_outcome,0,undefined,0,0,484,204153,1773695
35,19,female,Belgium,3,96,ITC,loss,5,right,13,ITC_start,962,space,0,0,484,203188,1774660
35,19,female,Belgium,3,96,ITC,loss,5,right,13,ITC_choice,658,f,0,0,484,202527,1775321
35,19,female,Belgium,3,96,ITC,loss,5,right,13,ITC_wait,0,undefined,0,0,484,202523,1775325
35,19,female,Belgium,3,96,ITC,loss,5,right,13,ITC_collect,837,k,0,0,484,201684,1776164
35,19,female,Belgium,3,96,ITC,loss,5,right,13,ITC_outcome,0,undefined,0,0,497,200676,1777172
35,19,female,Belgium,3,97,guess,loss,5,right,5,guess_start,269,space,0,0,497,200404,1777444
35,19,female,Belgium,3,97,guess,loss,5,right,5,guess_choice,469,f,0,0,497,199931,1777917
35,19,female,Belgium,3,97,guess,loss,5,right,5,guess_outcome,0,undefined,0,0,482,198372,1779476
35,19,female,Belgium,3,97,ITC,loss,5,right,5,ITC_start,406,space,0,0,482,197963,1779885
35,19,female,Belgium,3,97,ITC,loss,5,right,5,ITC_choice,1557,j,0,0,482,196404,1781444
35,19,female,Belgium,3,97,ITC,loss,5,right,5,ITC_wait,0,undefined,0,0,482,191399,1786449
35,19,female,Belgium,3,97,ITC,loss,5,right,5,ITC_collect,473,k,0,0,482,190923,1786925
35,19,female,Belgium,3,97,ITC,loss,5,right,5,ITC_outcome,0,undefined,0,0,502,189914,1787934
35,19,female,Belgium,3,98,guess,win,10,left,1,guess_start,264,space,0,0,502,189646,1788202
35,19,female,Belgium,3,98,guess,win,10,left,1,guess_choice,634,f,0,0,502,189008,1788840
35,19,female,Belgium,3,98,guess,win,10,left,1,guess_outcome,0,undefined,0,0,522,187449,1790399
35,19,female,Belgium,3,98,ITC,win,10,left,1,ITC_start,348,space,0,0,522,187098,1790750
35,19,female,Belgium,3,98,ITC,win,10,left,1,ITC_choice,697,f,0,0,522,186398,1791450
35,19,female,Belgium,3,98,ITC,win,10,left,1,ITC_wait,0,undefined,0,0,522,176390,1801458
35,19,female,Belgium,3,98,ITC,win,10,left,1,ITC_collect,371,k,0,0,522,176016,1801832
35,19,female,Belgium,3,98,ITC,win,10,left,1,ITC_outcome,0,undefined,0,0,542,175008,1802840
35,19,female,Belgium,3,99,guess,neutral,5,left,13,guess_start,242,space,0,0,542,174763,1803085
35,19,female,Belgium,3,99,guess,neutral,5,left,13,guess_choice,631,f,0,0,542,174127,1803721
35,19,female,Belgium,3,99,guess,neutral,5,left,13,guess_outcome,0,undefined,0,0,542,172568,1805280
35,19,female,Belgium,3,99,ITC,neutral,5,left,13,ITC_start,711,space,0,0,542,171854,1805994
35,19,female,Belgium,3,99,ITC,neutral,5,left,13,ITC_choice,716,j,0,0,542,171135,1806713
35,19,female,Belgium,3,99,ITC,neutral,5,left,13,ITC_wait,0,undefined,0,0,542,171131,1806717
35,19,female,Belgium,3,99,ITC,neutral,5,left,13,ITC_collect,551,k,0,0,542,170578,1807270
35,19,female,Belgium,3,99,ITC,neutral,5,left,13,ITC_outcome,0,undefined,0,0,555,169570,1808278
35,19,female,Belgium,3,100,guess,win,10,right,3,guess_start,337,space,0,0,555,169229,1808619
35,19,female,Belgium,3,100,guess,win,10,right,3,guess_choice,584,j,0,0,555,168640,1809208
35,19,female,Belgium,3,100,guess,win,10,right,3,guess_outcome,0,undefined,0,0,575,167080,1810768
35,19,female,Belgium,3,100,ITC,win,10,right,3,ITC_start,362,space,0,0,575,166715,1811133
35,19,female,Belgium,3,100,ITC,win,10,right,3,ITC_choice,987,j,0,0,575,165726,1812122
35,19,female,Belgium,3,100,ITC,win,10,right,3,ITC_wait,0,undefined,0,0,575,155718,1822130
35,19,female,Belgium,3,100,ITC,win,10,right,3,ITC_collect,1049,k,0,0,575,154666,1823182
35,19,female,Belgium,3,100,ITC,win,10,right,3,ITC_outcome,0,undefined,0,0,595,153660,1824188
35,19,female,Belgium,3,101,guess,loss,5,left,2,guess_start,380,space,0,0,595,153276,1824572
35,19,female,Belgium,3,101,guess,loss,5,left,2,guess_choice,711,f,0,0,595,152561,1825287
35,19,female,Belgium,3,101,guess,loss,5,left,2,guess_outcome,0,undefined,0,0,580,151001,1826847
35,19,female,Belgium,3,101,ITC,loss,5,left,2,ITC_start,587,space,0,0,580,150411,1827437
35,19,female,Belgium,3,101,ITC,loss,5,left,2,ITC_choice,660,f,0,0,580,149748,1828100
35,19,female,Belgium,3,101,ITC,loss,5,left,2,ITC_wait,0,undefined,0,0,580,144741,1833107
35,19,female,Belgium,3,101,ITC,loss,5,left,2,ITC_collect,665,k,0,0,580,144072,1833776
35,19,female,Belgium,3,101,ITC,loss,5,left,2,ITC_outcome,0,undefined,0,0,600,143064,1834784
35,19,female,Belgium,3,102,guess,neutral,5,left,2,guess_start,433,space,0,0,600,142627,1835221
35,19,female,Belgium,3,102,guess,neutral,5,left,2,guess_choice,499,j,0,0,600,142124,1835724
35,19,female,Belgium,3,102,guess,neutral,5,left,2,guess_outcome,0,undefined,0,0,600,140564,1837284
35,19,female,Belgium,3,102,ITC,neutral,5,left,2,ITC_start,661,space,0,0,600,139900,1837948
35,19,female,Belgium,3,102,ITC,neutral,5,left,2,ITC_choice,679,f,0,0,600,139218,1838630
35,19,female,Belgium,3,102,ITC,neutral,5,left,2,ITC_wait,0,undefined,0,0,600,134212,1843636
35,19,female,Belgium,3,102,ITC,neutral,5,left,2,ITC_collect,441,k,0,0,600,133767,1844081
35,19,female,Belgium,3,102,ITC,neutral,5,left,2,ITC_outcome,0,undefined,0,0,620,132762,1845086
35,19,female,Belgium,3,103,guess,win,5,left,11,guess_start,289,space,0,0,620,132469,1845379
35,19,female,Belgium,3,103,guess,win,5,left,11,guess_choice,691,f,0,0,620,131774,1846074
35,19,female,Belgium,3,103,guess,win,5,left,11,guess_outcome,0,undefined,0,0,640,130217,1847631
35,19,female,Belgium,3,103,ITC,win,5,left,11,ITC_start,313,space,0,0,640,129901,1847947
35,19,female,Belgium,3,103,ITC,win,5,left,11,ITC_choice,798,j,0,0,640,129099,1848749
35,19,female,Belgium,3,103,ITC,win,5,left,11,ITC_wait,0,undefined,0,0,640,129096,1848752
35,19,female,Belgium,3,103,ITC,win,5,left,11,ITC_collect,492,k,0,0,640,128602,1849246
35,19,female,Belgium,3,103,ITC,win,5,left,11,ITC_outcome,0,undefined,0,0,651,127594,1850254
35,19,female,Belgium,3,104,guess,win,5,right,4,guess_start,381,space,0,0,651,127209,1850639
35,19,female,Belgium,3,104,guess,win,5,right,4,guess_choice,507,j,0,0,651,126698,1851150
35,19,female,Belgium,3,104,guess,win,5,right,4,guess_outcome,0,undefined,0,0,671,125138,1852710
35,19,female,Belgium,3,104,ITC,win,5,right,4,ITC_start,413,space,0,0,671,124722,1853126
35,19,female,Belgium,3,104,ITC,win,5,right,4,ITC_choice,916,j,0,0,671,123801,1854047
35,19,female,Belgium,3,104,ITC,win,5,right,4,ITC_wait,0,undefined,0,0,671,118793,1859055
35,19,female,Belgium,3,104,ITC,win,5,right,4,ITC_collect,376,k,0,0,671,118414,1859434
35,19,female,Belgium,3,104,ITC,win,5,right,4,ITC_outcome,0,undefined,0,0,691,117405,1860443
35,19,female,Belgium,3,105,guess,neutral,5,right,1,guess_start,345,space,0,0,691,117056,1860792
35,19,female,Belgium,3,105,guess,neutral,5,right,1,guess_choice,378,f,0,0,691,116674,1861174
35,19,female,Belgium,3,105,guess,neutral,5,right,1,guess_outcome,0,undefined,0,0,691,115114,1862734
35,19,female,Belgium,3,105,ITC,neutral,5,right,1,ITC_start,641,space,0,0,691,114470,1863378
35,19,female,Belgium,3,105,ITC,neutral,5,right,1,ITC_choice,670,j,0,0,691,113797,1864051
35,19,female,Belgium,3,105,ITC,neutral,5,right,1,ITC_wait,0,undefined,0,0,691,108789,1869059
35,19,female,Belgium,3,105,ITC,neutral,5,right,1,ITC_collect,415,k,0,0,691,108370,1869478
35,19,female,Belgium,3,105,ITC,neutral,5,right,1,ITC_outcome,0,undefined,0,0,711,107362,1870486
35,19,female,Belgium,3,106,guess,neutral,5,right,4,guess_start,284,space,0,0,711,107074,1870774
35,19,female,Belgium,3,106,guess,neutral,5,right,4,guess_choice,631,f,0,0,711,106438,1871410
35,19,female,Belgium,3,106,guess,neutral,5,right,4,guess_outcome,0,undefined,0,0,711,104878,1872970
35,19,female,Belgium,3,106,ITC,neutral,5,right,4,ITC_start,475,space,0,0,711,104400,1873448
35,19,female,Belgium,3,106,ITC,neutral,5,right,4,ITC_choice,690,j,0,0,711,103707,1874141
35,19,female,Belgium,3,106,ITC,neutral,5,right,4,ITC_wait,0,undefined,0,0,711,98699,1879149
35,19,female,Belgium,3,106,ITC,neutral,5,right,4,ITC_collect,377,k,0,0,711,98318,1879530
35,19,female,Belgium,3,106,ITC,neutral,5,right,4,ITC_outcome,0,undefined,0,0,731,97310,1880538
35,19,female,Belgium,3,107,guess,neutral,10,right,4,guess_start,309,space,0,0,731,96997,1880851
35,19,female,Belgium,3,107,guess,neutral,10,right,4,guess_choice,491,j,0,0,731,96502,1881346
35,19,female,Belgium,3,107,guess,neutral,10,right,4,guess_outcome,0,undefined,0,0,731,94942,1882906
35,19,female,Belgium,3,107,ITC,neutral,10,right,4,ITC_start,496,space,0,0,731,94443,1883405
35,19,female,Belgium,3,107,ITC,neutral,10,right,4,ITC_choice,715,j,0,0,731,93725,1884123
35,19,female,Belgium,3,107,ITC,neutral,10,right,4,ITC_wait,0,undefined,0,0,731,83717,1894131
35,19,female,Belgium,3,107,ITC,neutral,10,right,4,ITC_collect,470,k,0,0,731,83244,1894604
35,19,female,Belgium,3,107,ITC,neutral,10,right,4,ITC_outcome,0,undefined,0,0,751,82235,1895613
35,19,female,Belgium,3,108,guess,loss,5,right,15,guess_start,240,space,0,0,751,81991,1895857
35,19,female,Belgium,3,108,guess,loss,5,right,15,guess_choice,635,f,0,0,751,81351,1896497
35,19,female,Belgium,3,108,guess,loss,5,right,15,guess_outcome,0,undefined,0,0,736,79795,1898053
35,19,female,Belgium,3,108,ITC,loss,5,right,15,ITC_start,548,space,0,0,736,79243,1898605
35,19,female,Belgium,3,108,ITC,loss,5,right,15,ITC_choice,554,j,0,0,736,78687,1899161
35,19,female,Belgium,3,108,ITC,loss,5,right,15,ITC_wait,0,undefined,0,0,736,73681,1904167
35,19,female,Belgium,3,108,ITC,loss,5,right,15,ITC_collect,921,k,0,0,736,72756,1905092
35,19,female,Belgium,3,108,ITC,loss,5,right,15,ITC_outcome,0,undefined,0,0,756,71748,1906100
35,19,female,Belgium,3,109,guess,loss,5,right,12,guess_start,306,space,0,0,756,71439,1906409
35,19,female,Belgium,3,109,guess,loss,5,right,12,guess_choice,510,f,0,0,756,70924,1906924
35,19,female,Belgium,3,109,guess,loss,5,right,12,guess_outcome,0,undefined,0,0,741,69370,1908478
35,19,female,Belgium,3,109,ITC,loss,5,right,12,ITC_start,584,space,0,0,741,68782,1909066
35,19,female,Belgium,3,109,ITC,loss,5,right,12,ITC_choice,865,f,0,0,741,67914,1909934
35,19,female,Belgium,3,109,ITC,loss,5,right,12,ITC_wait,0,undefined,0,0,741,67910,1909938
35,19,female,Belgium,3,109,ITC,loss,5,right,12,ITC_collect,472,k,0,0,741,67437,1910411
35,19,female,Belgium,3,109,ITC,loss,5,right,12,ITC_outcome,0,undefined,0,0,753,66429,1911419
35,19,female,Belgium,3,110,guess,loss,10,left,2,guess_start,269,space,0,0,753,66156,1911692
35,19,female,Belgium,3,110,guess,loss,10,left,2,guess_choice,507,j,0,0,753,65645,1912203
35,19,female,Belgium,3,110,guess,loss,10,left,2,guess_outcome,0,undefined,0,0,738,64088,1913760
35,19,female,Belgium,3,110,ITC,loss,10,left,2,ITC_start,353,space,0,0,738,63732,1914116
35,19,female,Belgium,3,110,ITC,loss,10,left,2,ITC_choice,704,f,0,0,738,63024,1914824
35,19,female,Belgium,3,110,ITC,loss,10,left,2,ITC_wait,0,undefined,0,0,738,53017,1924831
35,19,female,Belgium,3,110,ITC,loss,10,left,2,ITC_collect,650,k,0,0,738,52363,1925485
35,19,female,Belgium,3,110,ITC,loss,10,left,2,ITC_outcome,0,undefined,0,0,758,51355,1926493
35,19,female,Belgium,3,111,guess,win,5,right,3,guess_start,507,space,0,0,758,50844,1927004
35,19,female,Belgium,3,111,guess,win,5,right,3,guess_choice,510,j,0,0,758,50329,1927519
35,19,female,Belgium,3,111,guess,win,5,right,3,guess_outcome,0,undefined,0,0,778,48775,1929073
35,19,female,Belgium,3,111,ITC,win,5,right,3,ITC_start,75,space,0,0,778,48697,1929151
35,19,female,Belgium,3,111,ITC,win,5,right,3,ITC_choice,1784,j,0,0,778,46909,1930939
35,19,female,Belgium,3,111,ITC,win,5,right,3,ITC_wait,0,undefined,0,0,778,41901,1935947
35,19,female,Belgium,3,111,ITC,win,5,right,3,ITC_collect,530,k,0,0,778,41368,1936480
35,19,female,Belgium,3,111,ITC,win,5,right,3,ITC_outcome,0,undefined,0,0,798,40359,1937489
35,19,female,Belgium,3,112,guess,loss,10,left,1,guess_start,265,space,0,0,798,40090,1937758
35,19,female,Belgium,3,112,guess,loss,10,left,1,guess_choice,413,f,0,0,798,39672,1938176
35,19,female,Belgium,3,112,guess,loss,10,left,1,guess_outcome,0,undefined,0,0,783,38112,1939736
35,19,female,Belgium,3,112,ITC,loss,10,left,1,ITC_start,881,space,0,0,783,37228,1940620
35,19,female,Belgium,3,112,ITC,loss,10,left,1,ITC_choice,765,f,0,0,783,36460,1941388
35,19,female,Belgium,3,112,ITC,loss,10,left,1,ITC_wait,0,undefined,0,0,783,26453,1951395
35,19,female,Belgium,3,112,ITC,loss,10,left,1,ITC_collect,338,k,0,0,783,26111,1951737
35,19,female,Belgium,3,112,ITC,loss,10,left,1,ITC_outcome,0,undefined,0,0,803,25102,1952746
35,19,female,Belgium,3,113,guess,loss,10,right,7,guess_start,318,space,0,0,803,24781,1953067
35,19,female,Belgium,3,113,guess,loss,10,right,7,guess_choice,530,j,0,0,803,24246,1953602
35,19,female,Belgium,3,113,guess,loss,10,right,7,guess_outcome,0,undefined,0,0,788,22689,1955159
35,19,female,Belgium,3,113,ITC,loss,10,right,7,ITC_start,533,space,0,0,788,22152,1955696
35,19,female,Belgium,3,113,ITC,loss,10,right,7,ITC_choice,983,f,0,0,788,21167,1956681
35,19,female,Belgium,3,113,ITC,loss,10,right,7,ITC_wait,0,undefined,0,0,788,21163,1956685
35,19,female,Belgium,3,113,ITC,loss,10,right,7,ITC_collect,476,k,0,0,788,20685,1957163
35,19,female,Belgium,3,113,ITC,loss,10,right,7,ITC_outcome,0,undefined,0,0,795,19676,1958172
35,19,female,Belgium,3,114,guess,loss,5,right,3,guess_start,261,space,0,0,795,19411,1958437
35,19,female,Belgium,3,114,guess,loss,5,right,3,guess_choice,399,f,0,0,795,19008,1958840
35,19,female,Belgium,3,114,guess,loss,5,right,3,guess_outcome,0,undefined,0,0,780,17449,1960399
35,19,female,Belgium,3,114,ITC,loss,5,right,3,ITC_start,322,space,0,0,780,17124,1960724
35,19,female,Belgium,3,114,ITC,loss,5,right,3,ITC_choice,717,f,0,0,780,16405,1961443
35,19,female,Belgium,3,114,ITC,loss,5,right,3,ITC_wait,0,undefined,0,0,780,16400,1961448
35,19,female,Belgium,3,114,ITC,loss,5,right,3,ITC_collect,608,k,0,0,780,15790,1962058
35,19,female,Belgium,3,114,ITC,loss,5,right,3,ITC_outcome,0,undefined,0,0,783,14782,1963066
35,19,female,Belgium,3,115,guess,loss,5,left,8,guess_start,285,space,0,0,783,14493,1963355
35,19,female,Belgium,3,115,guess,loss,5,left,8,guess_choice,775,f,0,0,783,13713,1964135
35,19,female,Belgium,3,115,guess,loss,5,left,8,guess_outcome,0,undefined,0,0,768,12154,1965694
35,19,female,Belgium,3,115,ITC,loss,5,left,8,ITC_start,403,space,0,0,768,11748,1966100
35,19,female,Belgium,3,115,ITC,loss,5,left,8,ITC_choice,1312,f,0,0,768,10433,1967415
35,19,female,Belgium,3,115,ITC,loss,5,left,8,ITC_wait,0,undefined,0,0,768,5428,1972420
35,19,female,Belgium,3,115,ITC,loss,5,left,8,ITC_collect,779,k,0,0,768,4645,1973203
35,19,female,Belgium,3,115,ITC,loss,5,left,8,ITC_outcome,0,undefined,0,0,788,3639,1974209
35,19,female,Belgium,3,116,guess,neutral,5,left,16,guess_start,294,space,0,0,788,3341,1974507
35,19,female,Belgium,3,116,guess,neutral,5,left,16,guess_choice,539,f,0,0,788,2798,1975050
35,19,female,Belgium,3,116,guess,neutral,5,left,16,guess_outcome,0,undefined,0,0,788,1241,1976607
35,19,female,Belgium,3,116,ITC,neutral,5,left,16,ITC_start,765,space,0,0,788,473,1977375
35,19,female,Belgium,3,116,ITC,neutral,5,left,16,ITC_choice,0,undefined,0,0,788,-7,1977855
35,19,female,Belgium,4,117,guess,neutral,5,left,12,guess_start,923,space,0,0,0,479076,2114138
35,19,female,Belgium,4,117,guess,neutral,5,left,12,guess_choice,541,f,0,0,0,478530,2114684
35,19,female,Belgium,4,117,guess,neutral,5,left,12,guess_outcome,0,undefined,0,0,0,476975,2116239
35,19,female,Belgium,4,117,ITC,neutral,5,left,12,ITC_start,583,space,0,0,0,476389,2116825
35,19,female,Belgium,4,117,ITC,neutral,5,left,12,ITC_choice,681,j,0,0,0,475705,2117509
35,19,female,Belgium,4,117,ITC,neutral,5,left,12,ITC_wait,0,undefined,0,0,0,475701,2117513
35,19,female,Belgium,4,117,ITC,neutral,5,left,12,ITC_collect,305,k,0,0,0,475394,2117820
35,19,female,Belgium,4,117,ITC,neutral,5,left,12,ITC_outcome,0,undefined,0,0,12,474386,2118828
35,19,female,Belgium,4,118,guess,loss,5,right,16,guess_start,255,space,0,0,12,474128,2119086
35,19,female,Belgium,4,118,guess,loss,5,right,16,guess_choice,527,j,0,0,12,473596,2119618
35,19,female,Belgium,4,118,guess,loss,5,right,16,guess_outcome,0,undefined,0,0,-3,472041,2121173
35,19,female,Belgium,4,118,ITC,loss,5,right,16,ITC_start,475,space,0,0,-3,471563,2121651
35,19,female,Belgium,4,118,ITC,loss,5,right,16,ITC_choice,762,f,0,0,-3,470799,2122415
35,19,female,Belgium,4,118,ITC,loss,5,right,16,ITC_wait,0,undefined,0,0,-3,470795,2122419
35,19,female,Belgium,4,118,ITC,loss,5,right,16,ITC_collect,586,k,0,0,-3,470207,2123007
35,19,female,Belgium,4,118,ITC,loss,5,right,16,ITC_outcome,0,undefined,0,0,13,469199,2124015
35,19,female,Belgium,4,119,guess,win,10,left,5,guess_start,359,space,0,0,13,468836,2124378
35,19,female,Belgium,4,119,guess,win,10,left,5,guess_choice,659,f,0,0,13,468172,2125042
35,19,female,Belgium,4,119,guess,win,10,left,5,guess_outcome,0,undefined,0,0,33,466613,2126601
35,19,female,Belgium,4,119,ITC,win,10,left,5,ITC_start,362,space,0,0,33,466247,2126967
35,19,female,Belgium,4,119,ITC,win,10,left,5,ITC_choice,807,f,0,0,33,465438,2127776
35,19,female,Belgium,4,119,ITC,win,10,left,5,ITC_wait,0,undefined,0,0,33,455434,2137780
35,19,female,Belgium,4,119,ITC,win,10,left,5,ITC_collect,607,k,0,0,33,454823,2138391
35,19,female,Belgium,4,119,ITC,win,10,left,5,ITC_outcome,0,undefined,0,0,53,453815,2139399
35,19,female,Belgium,4,120,guess,loss,5,right,9,guess_start,332,space,0,0,53,453479,2139735
35,19,female,Belgium,4,120,guess,loss,5,right,9,guess_choice,419,j,0,0,53,453056,2140158
35,19,female,Belgium,4,120,guess,loss,5,right,9,guess_outcome,0,undefined,0,0,38,451496,2141718
35,19,female,Belgium,4,120,ITC,loss,5,right,9,ITC_start,355,space,0,0,38,451138,2142076
35,19,female,Belgium,4,120,ITC,loss,5,right,9,ITC_choice,708,j,0,0,38,450427,2142787
35,19,female,Belgium,4,120,ITC,loss,5,right,9,ITC_wait,0,undefined,0,0,38,445419,2147795
35,19,female,Belgium,4,120,ITC,loss,5,right,9,ITC_collect,510,k,0,0,38,444905,2148309
35,19,female,Belgium,4,120,ITC,loss,5,right,9,ITC_outcome,0,undefined,0,0,58,443897,2149317
35,19,female,Belgium,4,121,guess,win,10,left,2,guess_start,285,space,0,0,58,443609,2149605
35,19,female,Belgium,4,121,guess,win,10,left,2,guess_choice,472,f,0,0,58,443132,2150082
35,19,female,Belgium,4,121,guess,win,10,left,2,guess_outcome,0,undefined,0,0,78,441577,2151637
35,19,female,Belgium,4,121,ITC,win,10,left,2,ITC_start,361,space,0,0,78,441214,2152000
35,19,female,Belgium,4,121,ITC,win,10,left,2,ITC_choice,876,f,0,0,78,440335,2152879
35,19,female,Belgium,4,121,ITC,win,10,left,2,ITC_wait,0,undefined,0,0,78,430327,2162887
35,19,female,Belgium,4,121,ITC,win,10,left,2,ITC_collect,831,k,0,0,78,429493,2163721
35,19,female,Belgium,4,121,ITC,win,10,left,2,ITC_outcome,0,undefined,0,0,98,428484,2164730
35,19,female,Belgium,4,122,guess,neutral,10,right,2,guess_start,410,space,0,0,98,428070,2165144
35,19,female,Belgium,4,122,guess,neutral,10,right,2,guess_choice,515,j,0,0,98,427550,2165664
35,19,female,Belgium,4,122,guess,neutral,10,right,2,guess_outcome,0,undefined,0,0,98,425995,2167219
35,19,female,Belgium,4,122,ITC,neutral,10,right,2,ITC_start,530,space,0,0,98,425462,2167752
35,19,female,Belgium,4,122,ITC,neutral,10,right,2,ITC_choice,1895,f,0,0,98,423564,2169650
35,19,female,Belgium,4,122,ITC,neutral,10,right,2,ITC_wait,0,undefined,0,0,98,423560,2169654
35,19,female,Belgium,4,122,ITC,neutral,10,right,2,ITC_collect,232,k,0,0,98,423327,2169887
35,19,female,Belgium,4,122,ITC,neutral,10,right,2,ITC_outcome,0,undefined,0,0,100,422319,2170895
35,19,female,Belgium,4,123,guess,loss,10,left,3,guess_start,209,space,0,0,100,422107,2171107
35,19,female,Belgium,4,123,guess,loss,10,left,3,guess_choice,507,j,0,0,100,421595,2171619
35,19,female,Belgium,4,123,guess,loss,10,left,3,guess_outcome,0,undefined,0,0,85,420037,2173177
35,19,female,Belgium,4,123,ITC,loss,10,left,3,ITC_start,517,space,0,0,85,419517,2173697
35,19,female,Belgium,4,123,ITC,loss,10,left,3,ITC_choice,740,f,0,0,85,418774,2174440
35,19,female,Belgium,4,123,ITC,loss,10,left,3,ITC_wait,0,undefined,0,0,85,408767,2184447
35,19,female,Belgium,4,123,ITC,loss,10,left,3,ITC_collect,521,k,0,0,85,408242,2184972
35,19,female,Belgium,4,123,ITC,loss,10,left,3,ITC_outcome,0,undefined,0,0,105,407232,2185982
35,19,female,Belgium,4,124,guess,neutral,5,left,3,guess_start,272,space,0,0,105,406956,2186258
35,19,female,Belgium,4,124,guess,neutral,5,left,3,guess_choice,588,f,0,0,105,406363,2186851
35,19,female,Belgium,4,124,guess,neutral,5,left,3,guess_outcome,0,undefined,0,0,105,404806,2188408
35,19,female,Belgium,4,124,ITC,neutral,5,left,3,ITC_start,911,space,0,0,105,403892,2189322
35,19,female,Belgium,4,124,ITC,neutral,5,left,3,ITC_choice,948,f,0,0,105,402940,2190274
35,19,female,Belgium,4,124,ITC,neutral,5,left,3,ITC_wait,0,undefined,0,0,105,397933,2195281
35,19,female,Belgium,4,124,ITC,neutral,5,left,3,ITC_collect,604,k,0,0,105,397325,2195889
35,19,female,Belgium,4,124,ITC,neutral,5,left,3,ITC_outcome,0,undefined,0,0,125,396317,2196897
35,19,female,Belgium,4,125,guess,win,5,right,7,guess_start,308,space,0,0,125,396005,2197209
35,19,female,Belgium,4,125,guess,win,5,right,7,guess_choice,543,j,0,0,125,395458,2197756
35,19,female,Belgium,4,125,guess,win,5,right,7,guess_outcome,0,undefined,0,0,145,393901,2199313
35,19,female,Belgium,4,125,ITC,win,5,right,7,ITC_start,314,space,0,0,145,393584,2199630
35,19,female,Belgium,4,125,ITC,win,5,right,7,ITC_choice,530,j,0,0,145,393052,2200162
35,19,female,Belgium,4,125,ITC,win,5,right,7,ITC_wait,0,undefined,0,0,145,388047,2205167
35,19,female,Belgium,4,125,ITC,win,5,right,7,ITC_collect,851,k,0,0,145,387192,2206022
35,19,female,Belgium,4,125,ITC,win,5,right,7,ITC_outcome,0,undefined,0,0,165,386184,2207030
35,19,female,Belgium,4,126,guess,loss,5,right,6,guess_start,291,space,0,0,165,385889,2207325
35,19,female,Belgium,4,126,guess,loss,5,right,6,guess_choice,544,f,0,0,165,385341,2207873
35,19,female,Belgium,4,126,guess,loss,5,right,6,guess_outcome,0,undefined,0,0,150,383785,2209429
35,19,female,Belgium,4,126,ITC,loss,5,right,6,ITC_start,320,space,0,0,150,383462,2209752
35,19,female,Belgium,4,126,ITC,loss,5,right,6,ITC_choice,577,j,0,0,150,382882,2210332
35,19,female,Belgium,4,126,ITC,loss,5,right,6,ITC_wait,0,undefined,0,0,150,377874,2215340
35,19,female,Belgium,4,126,ITC,loss,5,right,6,ITC_collect,408,k,0,0,150,377462,2215752
35,19,female,Belgium,4,126,ITC,loss,5,right,6,ITC_outcome,0,undefined,0,0,170,376453,2216761
35,19,female,Belgium,4,127,guess,win,5,left,10,guess_start,298,space,0,0,170,376152,2217062
35,19,female,Belgium,4,127,guess,win,5,left,10,guess_choice,460,f,0,0,170,375687,2217527
35,19,female,Belgium,4,127,guess,win,5,left,10,guess_outcome,0,undefined,0,0,190,374131,2219083
35,19,female,Belgium,4,127,ITC,win,5,left,10,ITC_start,442,space,0,0,190,373686,2219528
35,19,female,Belgium,4,127,ITC,win,5,left,10,ITC_choice,796,j,0,0,190,372887,2220327
35,19,female,Belgium,4,127,ITC,win,5,left,10,ITC_wait,0,undefined,0,0,190,372881,2220333
35,19,female,Belgium,4,127,ITC,win,5,left,10,ITC_collect,347,k,0,0,190,372533,2220681
35,19,female,Belgium,4,127,ITC,win,5,left,10,ITC_outcome,0,undefined,0,0,200,371527,2221687
35,19,female,Belgium,4,128,guess,win,5,left,14,guess_start,171,space,0,0,200,371353,2221861
35,19,female,Belgium,4,128,guess,win,5,left,14,guess_choice,484,j,0,0,200,370865,2222349
35,19,female,Belgium,4,128,guess,win,5,left,14,guess_outcome,0,undefined,0,0,220,369305,2223909
35,19,female,Belgium,4,128,ITC,win,5,left,14,ITC_start,436,space,0,0,220,368866,2224348
35,19,female,Belgium,4,128,ITC,win,5,left,14,ITC_wait,0,undefined,0,0,220,368277,2224937
35,19,female,Belgium,4,128,ITC,win,5,left,14,ITC_choice,582,j,0,0,220,368281,2224933
35,19,female,Belgium,4,128,ITC,win,5,left,14,ITC_collect,233,k,0,0,220,368042,2225172
35,19,female,Belgium,4,128,ITC,win,5,left,14,ITC_outcome,0,undefined,0,0,234,367034,2226180
35,19,female,Belgium,4,129,guess,win,5,left,6,guess_start,119,space,0,0,234,366912,2226302
35,19,female,Belgium,4,129,guess,win,5,left,6,guess_choice,421,f,0,0,234,366486,2226728
35,19,female,Belgium,4,129,guess,win,5,left,6,guess_outcome,0,undefined,0,0,254,364927,2228287
35,19,female,Belgium,4,129,ITC,win,5,left,6,ITC_start,166,space,0,0,254,364758,2228456
35,19,female,Belgium,4,129,ITC,win,5,left,6,ITC_choice,1027,f,0,0,254,363728,2229486
35,19,female,Belgium,4,129,ITC,win,5,left,6,ITC_wait,0,undefined,0,0,254,358721,2234493
35,19,female,Belgium,4,129,ITC,win,5,left,6,ITC_collect,347,k,0,0,254,358370,2234844
35,19,female,Belgium,4,129,ITC,win,5,left,6,ITC_outcome,0,undefined,0,0,274,357361,2235853
35,19,female,Belgium,4,130,guess,loss,5,left,1,guess_start,272,space,0,0,274,357086,2236128
35,19,female,Belgium,4,130,guess,loss,5,left,1,guess_choice,404,j,0,0,274,356678,2236536
35,19,female,Belgium,4,130,guess,loss,5,left,1,guess_outcome,0,undefined,0,0,259,355119,2238095
35,19,female,Belgium,4,130,ITC,loss,5,left,1,ITC_start,440,space,0,0,259,354675,2238539
35,19,female,Belgium,4,130,ITC,loss,5,left,1,ITC_choice,450,j,0,0,259,354222,2238992
35,19,female,Belgium,4,130,ITC,loss,5,left,1,ITC_wait,0,undefined,0,0,259,354218,2238996
35,19,female,Belgium,4,130,ITC,loss,5,left,1,ITC_collect,154,k,0,0,259,354062,2239152
35,19,female,Belgium,4,130,ITC,loss,5,left,1,ITC_outcome,0,undefined,0,0,260,353058,2240156
35,19,female,Belgium,4,131,guess,loss,5,left,7,guess_start,287,space,0,0,260,352768,2240446
35,19,female,Belgium,4,131,guess,loss,5,left,7,guess_choice,475,f,0,0,260,352288,2240926
35,19,female,Belgium,4,131,guess,loss,5,left,7,guess_outcome,0,undefined,0,0,245,350733,2242481
35,19,female,Belgium,4,131,ITC,loss,5,left,7,ITC_start,319,space,0,0,245,350411,2242803
35,19,female,Belgium,4,131,ITC,loss,5,left,7,ITC_wait,0,undefined,0,0,245,349680,2243534
35,19,female,Belgium,4,131,ITC,loss,5,left,7,ITC_choice,724,j,0,0,245,349684,2243530
35,19,female,Belgium,4,131,ITC,loss,5,left,7,ITC_collect,139,k,0,0,245,349540,2243674
35,19,female,Belgium,4,131,ITC,loss,5,left,7,ITC_outcome,0,undefined,0,0,252,348533,2244681
35,19,female,Belgium,4,132,guess,neutral,10,right,1,guess_start,276,space,0,0,252,348252,2244962
35,19,female,Belgium,4,132,guess,neutral,10,right,1,guess_choice,563,j,0,0,252,347685,2245529
35,19,female,Belgium,4,132,guess,neutral,10,right,1,guess_outcome,0,undefined,0,0,252,346126,2247088
35,19,female,Belgium,4,132,ITC,neutral,10,right,1,ITC_start,473,space,0,0,252,345650,2247564
35,19,female,Belgium,4,132,ITC,neutral,10,right,1,ITC_choice,1257,j,0,0,252,344391,2248823
35,19,female,Belgium,4,132,ITC,neutral,10,right,1,ITC_wait,0,undefined,0,0,252,334382,2258832
35,19,female,Belgium,4,132,ITC,neutral,10,right,1,ITC_collect,714,k,0,0,252,333665,2259549
35,19,female,Belgium,4,132,ITC,neutral,10,right,1,ITC_outcome,0,undefined,0,0,272,332657,2260557
35,19,female,Belgium,4,133,guess,neutral,5,right,8,guess_start,345,space,0,0,272,332308,2260906
35,19,female,Belgium,4,133,guess,neutral,5,right,8,guess_choice,567,f,0,0,272,331737,2261477
35,19,female,Belgium,4,133,guess,neutral,5,right,8,guess_outcome,0,undefined,0,0,272,330182,2263032
35,19,female,Belgium,4,133,ITC,neutral,5,right,8,ITC_start,469,space,0,0,272,329709,2263505
35,19,female,Belgium,4,133,ITC,neutral,5,right,8,ITC_choice,1245,f,0,0,272,328461,2264753
35,19,female,Belgium,4,133,ITC,neutral,5,right,8,ITC_wait,0,undefined,0,0,272,328457,2264757
35,19,female,Belgium,4,133,ITC,neutral,5,right,8,ITC_collect,202,k,0,0,272,328254,2264960
35,19,female,Belgium,4,133,ITC,neutral,5,right,8,ITC_outcome,0,undefined,0,0,280,327248,2265966
35,19,female,Belgium,4,134,guess,loss,5,right,4,guess_start,313,space,0,0,280,326931,2266283
35,19,female,Belgium,4,134,guess,loss,5,right,4,guess_choice,493,j,0,0,280,326434,2266780
35,19,female,Belgium,4,134,guess,loss,5,right,4,guess_outcome,0,undefined,0,0,265,324874,2268340
35,19,female,Belgium,4,134,ITC,loss,5,right,4,ITC_start,402,space,0,0,265,324468,2268746
35,19,female,Belgium,4,134,ITC,loss,5,right,4,ITC_choice,657,j,0,0,265,323807,2269407
35,19,female,Belgium,4,134,ITC,loss,5,right,4,ITC_wait,0,undefined,0,0,265,318799,2274415
35,19,female,Belgium,4,134,ITC,loss,5,right,4,ITC_collect,348,k,0,0,265,318447,2274767
35,19,female,Belgium,4,134,ITC,loss,5,right,4,ITC_outcome,0,undefined,0,0,285,317439,2275775
35,19,female,Belgium,4,135,guess,win,5,left,5,guess_start,294,space,0,0,285,317141,2276073
35,19,female,Belgium,4,135,guess,win,5,left,5,guess_choice,550,f,0,0,285,316586,2276628
35,19,female,Belgium,4,135,guess,win,5,left,5,guess_outcome,0,undefined,0,0,305,315028,2278186
35,19,female,Belgium,4,135,ITC,win,5,left,5,ITC_start,296,space,0,0,305,314728,2278486
35,19,female,Belgium,4,135,ITC,win,5,left,5,ITC_wait,0,undefined,0,0,305,314003,2279211
35,19,female,Belgium,4,135,ITC,win,5,left,5,ITC_choice,718,j,0,0,305,314007,2279207
35,19,female,Belgium,4,135,ITC,win,5,left,5,ITC_collect,91,k,0,0,305,313911,2279303
35,19,female,Belgium,4,135,ITC,win,5,left,5,ITC_outcome,0,undefined,0,0,310,312905,2280309
35,19,female,Belgium,4,136,guess,neutral,5,left,7,guess_start,297,space,0,0,310,312605,2280609
35,19,female,Belgium,4,136,guess,neutral,5,left,7,guess_choice,981,f,0,0,310,311619,2281595
35,19,female,Belgium,4,136,guess,neutral,5,left,7,guess_outcome,0,undefined,0,0,310,310059,2283155
35,19,female,Belgium,4,136,ITC,neutral,5,left,7,ITC_start,980,space,0,0,310,309075,2284139
35,19,female,Belgium,4,136,ITC,neutral,5,left,7,ITC_choice,1407,f,0,0,310,307666,2285548
35,19,female,Belgium,4,136,ITC,neutral,5,left,7,ITC_wait,0,undefined,0,0,310,302658,2290556
35,19,female,Belgium,4,136,ITC,neutral,5,left,7,ITC_collect,439,k,0,0,310,302215,2290999
35,19,female,Belgium,4,136,ITC,neutral,5,left,7,ITC_outcome,0,undefined,0,0,330,301210,2292004
35,19,female,Belgium,4,137,guess,neutral,5,left,11,guess_start,236,space,0,0,330,300970,2292244
35,19,female,Belgium,4,137,guess,neutral,5,left,11,guess_choice,720,f,0,0,330,300246,2292968
35,19,female,Belgium,4,137,guess,neutral,5,left,11,guess_outcome,0,undefined,0,0,330,298688,2294526
35,19,female,Belgium,4,137,ITC,neutral,5,left,11,ITC_start,335,space,0,0,330,298349,2294865
35,19,female,Belgium,4,137,ITC,neutral,5,left,11,ITC_choice,1016,f,0,0,330,297331,2295883
35,19,female,Belgium,4,137,ITC,neutral,5,left,11,ITC_wait,0,undefined,0,0,330,292323,2300891
35,19,female,Belgium,4,137,ITC,neutral,5,left,11,ITC_collect,925,k,0,0,330,291394,2301820
35,19,female,Belgium,4,137,ITC,neutral,5,left,11,ITC_outcome,0,undefined,0,0,350,290387,2302827
35,19,female,Belgium,4,138,guess,win,5,right,15,guess_start,99,space,0,0,350,290284,2302930
35,19,female,Belgium,4,138,guess,win,5,right,15,guess_choice,551,j,0,0,350,289728,2303486
35,19,female,Belgium,4,138,guess,win,5,right,15,guess_outcome,0,undefined,0,0,370,288169,2305045
35,19,female,Belgium,4,138,ITC,win,5,right,15,ITC_start,279,space,0,0,370,287887,2305327
35,19,female,Belgium,4,138,ITC,win,5,right,15,ITC_choice,678,j,0,0,370,287206,2306008
35,19,female,Belgium,4,138,ITC,win,5,right,15,ITC_wait,0,undefined,0,0,370,282198,2311016
35,19,female,Belgium,4,138,ITC,win,5,right,15,ITC_collect,502,k,0,0,370,281692,2311522
35,19,female,Belgium,4,138,ITC,win,5,right,15,ITC_outcome,0,undefined,0,0,390,280684,2312530
35,19,female,Belgium,4,139,guess,win,5,left,13,guess_start,151,space,0,0,390,280529,2312685
35,19,female,Belgium,4,139,guess,win,5,left,13,guess_choice,493,f,0,0,390,280032,2313182
35,19,female,Belgium,4,139,guess,win,5,left,13,guess_outcome,0,undefined,0,0,410,278472,2314742
35,19,female,Belgium,4,139,ITC,win,5,left,13,ITC_start,319,space,0,0,410,278150,2315064
35,19,female,Belgium,4,139,ITC,win,5,left,13,ITC_choice,667,j,0,0,410,277481,2315733
35,19,female,Belgium,4,139,ITC,win,5,left,13,ITC_wait,0,undefined,0,0,410,277477,2315737
35,19,female,Belgium,4,139,ITC,win,5,left,13,ITC_collect,54,k,0,0,410,277421,2315793
35,19,female,Belgium,4,139,ITC,win,5,left,13,ITC_outcome,0,undefined,0,0,423,276412,2316802
35,19,female,Belgium,4,140,guess,win,10,left,8,guess_start,252,space,0,0,423,276156,2317058
35,19,female,Belgium,4,140,guess,win,10,left,8,guess_choice,413,j,0,0,423,275738,2317476
35,19,female,Belgium,4,140,guess,win,10,left,8,guess_outcome,0,undefined,0,0,443,274183,2319031
35,19,female,Belgium,4,140,ITC,win,10,left,8,ITC_start,322,space,0,0,443,273858,2319356
35,19,female,Belgium,4,140,ITC,win,10,left,8,ITC_choice,649,j,0,0,443,273206,2320008
35,19,female,Belgium,4,140,ITC,win,10,left,8,ITC_wait,0,undefined,0,0,443,273202,2320012
35,19,female,Belgium,4,140,ITC,win,10,left,8,ITC_collect,66,k,0,0,443,273134,2320080
