subjectID,age,gender,nationality,block_number,trial_number,trial_type,guess_outcome,delay_time,delay_pos,immediate_amount,stage,respRT,respKey,blur_count,focus_count,total_points,remaining_duration,time_elapsed
29,19,female,Belgium,1,1,guess,loss,5,left,10,guess_start,1799,space,0,0,0,478198,329575
29,19,female,Belgium,1,1,guess,loss,5,left,10,guess_choice,1630,j,0,0,0,476563,331210
29,19,female,Belgium,1,1,guess,loss,5,left,10,guess_outcome,0,undefined,0,0,-15,475004,332769
29,19,female,Belgium,1,1,ITC,loss,5,left,10,ITC_start,2139,space,0,0,-15,472862,334911
29,19,female,Belgium,1,1,ITC,loss,5,left,10,ITC_choice,1768,f,0,0,-15,471090,336683
29,19,female,Belgium,1,1,ITC,loss,5,left,10,ITC_wait,0,undefined,0,0,-15,466086,341687
29,19,female,Belgium,1,1,ITC,loss,5,left,10,ITC_collect,1445,k,0,0,-15,464636,343137
29,19,female,Belgium,1,1,ITC,loss,5,left,10,ITC_outcome,0,undefined,0,0,5,463621,344152
29,19,female,Belgium,1,2,guess,neutral,5,left,2,guess_start,3918,space,0,0,5,459697,348076
29,19,female,Belgium,1,2,guess,neutral,5,left,2,guess_choice,1573,f,0,0,5,458117,349656
29,19,female,Belgium,1,2,guess,neutral,5,left,2,guess_outcome,0,undefined,0,0,5,456551,351222
29,19,female,Belgium,1,2,ITC,neutral,5,left,2,ITC_start,1020,space,0,0,5,455526,352247
29,19,female,Belgium,1,2,ITC,neutral,5,left,2,ITC_choice,1113,f,0,0,5,454410,353363
29,19,female,Belgium,1,2,ITC,neutral,5,left,2,ITC_wait,0,undefined,0,0,5,449401,358372
29,19,female,Belgium,1,2,ITC,neutral,5,left,2,ITC_collect,1907,k,0,0,5,447490,360283
29,19,female,Belgium,1,2,ITC,neutral,5,left,2,ITC_outcome,0,undefined,0,0,25,446480,361293
29,19,female,Belgium,1,3,guess,neutral,5,left,11,guess_start,1058,space,0,0,25,445418,362355
29,19,female,Belgium,1,3,guess,neutral,5,left,11,guess_choice,1520,j,0,0,25,443891,363882
29,19,female,Belgium,1,3,guess,neutral,5,left,11,guess_outcome,0,undefined,0,0,25,442325,365448
29,19,female,Belgium,1,3,ITC,neutral,5,left,11,ITC_start,1342,space,0,0,25,440980,366793
29,19,female,Belgium,1,3,ITC,neutral,5,left,11,ITC_choice,980,f,0,0,25,439997,367776
29,19,female,Belgium,1,3,ITC,neutral,5,left,11,ITC_wait,0,undefined,0,0,25,434981,372792
29,19,female,Belgium,1,3,ITC,neutral,5,left,11,ITC_collect,573,k,0,0,25,434403,373370
29,19,female,Belgium,1,3,ITC,neutral,5,left,11,ITC_outcome,0,undefined,0,0,45,433393,374380
29,19,female,Belgium,1,4,guess,loss,5,right,16,guess_start,854,space,0,0,45,432535,375238
29,19,female,Belgium,1,4,guess,loss,5,right,16,guess_choice,1150,f,0,0,45,431377,376396
29,19,female,Belgium,1,4,guess,loss,5,right,16,guess_outcome,0,undefined,0,0,30,429811,377962
29,19,female,Belgium,1,4,ITC,loss,5,right,16,ITC_start,1171,space,0,0,30,428636,379137
29,19,female,Belgium,1,4,ITC,loss,5,right,16,ITC_choice,1715,j,0,0,30,426917,380856
29,19,female,Belgium,1,4,ITC,loss,5,right,16,ITC_wait,0,undefined,0,0,30,421912,385861
29,19,female,Belgium,1,4,ITC,loss,5,right,16,ITC_collect,779,k,0,0,30,421129,386644
29,19,female,Belgium,1,4,ITC,loss,5,right,16,ITC_outcome,0,undefined,0,0,50,420119,387654
29,19,female,Belgium,1,5,guess,neutral,10,right,4,guess_start,782,space,0,0,50,419330,388443
29,19,female,Belgium,1,5,guess,neutral,10,right,4,guess_choice,1043,f,0,0,50,418281,389492
29,19,female,Belgium,1,5,guess,neutral,10,right,4,guess_outcome,0,undefined,0,0,50,416719,391054
29,19,female,Belgium,1,5,ITC,neutral,10,right,4,ITC_start,861,space,0,0,50,415855,391918
29,19,female,Belgium,1,5,ITC,neutral,10,right,4,ITC_choice,1140,j,0,0,50,414709,393064
29,19,female,Belgium,1,5,ITC,neutral,10,right,4,ITC_wait,0,undefined,0,0,50,404702,403071
29,19,female,Belgium,1,5,ITC,neutral,10,right,4,ITC_collect,1076,k,0,0,50,403616,404157
29,19,female,Belgium,1,5,ITC,neutral,10,right,4,ITC_outcome,0,undefined,0,0,70,402604,405169
29,19,female,Belgium,1,6,guess,win,5,left,8,guess_start,607,space,0,0,70,401993,405780
29,19,female,Belgium,1,6,guess,win,5,left,8,guess_choice,1006,j,0,0,70,400983,406790
29,19,female,Belgium,1,6,guess,win,5,left,8,guess_outcome,0,undefined,0,0,90,399425,408348
29,19,female,Belgium,1,6,ITC,win,5,left,8,ITC_start,1000,space,0,0,90,398419,409354
29,19,female,Belgium,1,6,ITC,win,5,left,8,ITC_choice,1580,f,0,0,90,396836,410937
29,19,female,Belgium,1,6,ITC,win,5,left,8,ITC_wait,0,undefined,0,0,90,391824,415949
29,19,female,Belgium,1,6,ITC,win,5,left,8,ITC_collect,6308,k,0,0,90,385509,422264
29,19,female,Belgium,1,6,ITC,win,5,left,8,ITC_outcome,0,undefined,0,0,110,384496,423277
29,19,female,Belgium,1,7,guess,win,5,left,15,guess_start,602,space,0,0,110,383889,423884
29,19,female,Belgium,1,7,guess,win,5,left,15,guess_choice,1112,f,0,0,110,382771,425002
29,19,female,Belgium,1,7,guess,win,5,left,15,guess_outcome,0,undefined,0,0,130,381205,426568
29,19,female,Belgium,1,7,ITC,win,5,left,15,ITC_start,738,space,0,0,130,380465,427308
29,19,female,Belgium,1,7,ITC,win,5,left,15,ITC_choice,1120,f,0,0,130,379342,428431
29,19,female,Belgium,1,7,ITC,win,5,left,15,ITC_wait,0,undefined,0,0,130,374315,433458
29,19,female,Belgium,1,7,ITC,win,5,left,15,ITC_collect,597,k,0,0,130,373714,434059
29,19,female,Belgium,1,7,ITC,win,5,left,15,ITC_outcome,0,undefined,0,0,150,372707,435066
29,19,female,Belgium,1,8,guess,neutral,5,right,8,guess_start,696,space,0,0,150,372005,435768
29,19,female,Belgium,1,8,guess,neutral,5,right,8,guess_choice,679,j,0,0,150,371319,436454
29,19,female,Belgium,1,8,guess,neutral,5,right,8,guess_outcome,0,undefined,0,0,150,369755,438018
29,19,female,Belgium,1,8,ITC,neutral,5,right,8,ITC_start,979,space,0,0,150,368772,439001
29,19,female,Belgium,1,8,ITC,neutral,5,right,8,ITC_choice,1415,j,0,0,150,367354,440419
29,19,female,Belgium,1,8,ITC,neutral,5,right,8,ITC_wait,0,undefined,0,0,150,362345,445428
29,19,female,Belgium,1,8,ITC,neutral,5,right,8,ITC_collect,572,k,0,0,150,361770,446003
29,19,female,Belgium,1,8,ITC,neutral,5,right,8,ITC_outcome,0,undefined,0,0,170,360755,447018
29,19,female,Belgium,1,9,guess,neutral,5,right,7,guess_start,481,space,0,0,170,360270,447503
29,19,female,Belgium,1,9,guess,neutral,5,right,7,guess_choice,839,f,0,0,170,359423,448350
29,19,female,Belgium,1,9,guess,neutral,5,right,7,guess_outcome,0,undefined,0,0,170,357856,449917
29,19,female,Belgium,1,9,ITC,neutral,5,right,7,ITC_start,805,space,0,0,170,357047,450726
29,19,female,Belgium,1,9,ITC,neutral,5,right,7,ITC_choice,1285,j,0,0,170,355758,452015
29,19,female,Belgium,1,9,ITC,neutral,5,right,7,ITC_wait,0,undefined,0,0,170,350736,457037
29,19,female,Belgium,1,9,ITC,neutral,5,right,7,ITC_collect,747,k,0,0,170,349985,457788
29,19,female,Belgium,1,9,ITC,neutral,5,right,7,ITC_outcome,0,undefined,0,0,190,348956,458817
29,19,female,Belgium,1,10,guess,loss,10,right,1,guess_start,626,space,0,0,190,348323,459450
29,19,female,Belgium,1,10,guess,loss,10,right,1,guess_choice,948,f,0,0,190,347370,460403
29,19,female,Belgium,1,10,guess,loss,10,right,1,guess_outcome,0,undefined,0,0,175,345806,461967
29,19,female,Belgium,1,10,ITC,loss,10,right,1,ITC_start,563,space,0,0,175,345240,462533
29,19,female,Belgium,1,10,ITC,loss,10,right,1,ITC_choice,1307,j,0,0,175,343928,463845
29,19,female,Belgium,1,10,ITC,loss,10,right,1,ITC_wait,0,undefined,0,0,175,333918,473855
29,19,female,Belgium,1,10,ITC,loss,10,right,1,ITC_collect,297,k,0,0,175,333616,474157
29,19,female,Belgium,1,10,ITC,loss,10,right,1,ITC_outcome,0,undefined,0,0,195,332610,475163
29,19,female,Belgium,1,11,guess,loss,5,left,1,guess_start,575,space,0,0,195,332031,475742
29,19,female,Belgium,1,11,guess,loss,5,left,1,guess_choice,901,j,0,0,195,331124,476649
29,19,female,Belgium,1,11,guess,loss,5,left,1,guess_outcome,0,undefined,0,0,180,329560,478213
29,19,female,Belgium,1,11,ITC,loss,5,left,1,ITC_start,547,space,0,0,180,329007,478766
29,19,female,Belgium,1,11,ITC,loss,5,left,1,ITC_choice,1300,f,0,0,180,327704,480069
29,19,female,Belgium,1,11,ITC,loss,5,left,1,ITC_wait,0,undefined,0,0,180,322690,485083
29,19,female,Belgium,1,11,ITC,loss,5,left,1,ITC_collect,1270,k,0,0,180,321416,486357
29,19,female,Belgium,1,11,ITC,loss,5,left,1,ITC_outcome,0,undefined,0,0,200,320401,487372
29,19,female,Belgium,1,12,guess,loss,5,left,14,guess_start,687,space,0,0,200,319709,488064
29,19,female,Belgium,1,12,guess,loss,5,left,14,guess_choice,1175,f,0,0,200,318529,489244
29,19,female,Belgium,1,12,guess,loss,5,left,14,guess_outcome,0,undefined,0,0,185,316970,490803
29,19,female,Belgium,1,12,ITC,loss,5,left,14,ITC_start,599,space,0,0,185,316368,491405
29,19,female,Belgium,1,12,ITC,loss,5,left,14,ITC_choice,1477,j,0,0,185,314886,492887
29,19,female,Belgium,1,12,ITC,loss,5,left,14,ITC_wait,0,undefined,0,0,185,314878,492895
29,19,female,Belgium,1,12,ITC,loss,5,left,14,ITC_collect,1559,k,0,0,185,313317,494456
29,19,female,Belgium,1,12,ITC,loss,5,left,14,ITC_outcome,0,undefined,0,0,199,312310,495463
29,19,female,Belgium,1,13,guess,neutral,5,right,15,guess_start,608,space,0,0,199,311698,496075
29,19,female,Belgium,1,13,guess,neutral,5,right,15,guess_choice,765,f,0,0,199,310928,496845
29,19,female,Belgium,1,13,guess,neutral,5,right,15,guess_outcome,0,undefined,0,0,199,309370,498403
29,19,female,Belgium,1,13,ITC,neutral,5,right,15,ITC_start,638,space,0,0,199,308728,499045
29,19,female,Belgium,1,13,ITC,neutral,5,right,15,ITC_choice,2690,f,0,0,199,306035,501738
29,19,female,Belgium,1,13,ITC,neutral,5,right,15,ITC_wait,0,undefined,0,0,199,306030,501743
29,19,female,Belgium,1,13,ITC,neutral,5,right,15,ITC_collect,1636,k,0,0,199,304387,503386
29,19,female,Belgium,1,13,ITC,neutral,5,right,15,ITC_outcome,0,undefined,0,0,214,303371,504402
29,19,female,Belgium,1,14,guess,win,10,left,8,guess_start,490,space,0,0,214,302877,504896
29,19,female,Belgium,1,14,guess,win,10,left,8,guess_choice,807,j,0,0,214,302061,505712
29,19,female,Belgium,1,14,guess,win,10,left,8,guess_outcome,0,undefined,0,0,234,300500,507273
29,19,female,Belgium,1,14,ITC,win,10,left,8,ITC_start,600,space,0,0,234,299897,507876
29,19,female,Belgium,1,14,ITC,win,10,left,8,ITC_choice,2208,f,0,0,234,297684,510089
29,19,female,Belgium,1,14,ITC,win,10,left,8,ITC_wait,0,undefined,0,0,234,287670,520103
29,19,female,Belgium,1,14,ITC,win,10,left,8,ITC_collect,385,k,0,0,234,287282,520491
29,19,female,Belgium,1,14,ITC,win,10,left,8,ITC_outcome,0,undefined,0,0,254,286273,521500
29,19,female,Belgium,1,15,guess,loss,10,right,8,guess_start,768,space,0,0,254,285501,522272
29,19,female,Belgium,1,15,guess,loss,10,right,8,guess_choice,979,f,0,0,254,284517,523256
29,19,female,Belgium,1,15,guess,loss,10,right,8,guess_outcome,0,undefined,0,0,239,282955,524818
29,19,female,Belgium,1,15,ITC,loss,10,right,8,ITC_start,705,space,0,0,239,282245,525528
29,19,female,Belgium,1,15,ITC,loss,10,right,8,ITC_choice,1092,j,0,0,239,281150,526623
29,19,female,Belgium,1,15,ITC,loss,10,right,8,ITC_wait,0,undefined,0,0,239,271142,536631
29,19,female,Belgium,1,15,ITC,loss,10,right,8,ITC_collect,444,k,0,0,239,270691,537082
29,19,female,Belgium,1,15,ITC,loss,10,right,8,ITC_outcome,0,undefined,0,0,259,269681,538092
29,19,female,Belgium,1,16,guess,win,5,left,1,guess_start,426,space,0,0,259,269249,538524
29,19,female,Belgium,1,16,guess,win,5,left,1,guess_choice,954,f,0,0,259,268290,539483
29,19,female,Belgium,1,16,guess,win,5,left,1,guess_outcome,0,undefined,0,0,279,266730,541043
29,19,female,Belgium,1,16,ITC,win,5,left,1,ITC_start,1400,space,0,0,279,265327,542446
29,19,female,Belgium,1,16,ITC,win,5,left,1,ITC_choice,839,f,0,0,279,264484,543289
29,19,female,Belgium,1,16,ITC,win,5,left,1,ITC_wait,0,undefined,0,0,279,259478,548295
29,19,female,Belgium,1,16,ITC,win,5,left,1,ITC_collect,981,k,0,0,279,258494,549279
29,19,female,Belgium,1,16,ITC,win,5,left,1,ITC_outcome,0,undefined,0,0,299,257489,550284
29,19,female,Belgium,1,17,guess,win,5,left,7,guess_start,355,space,0,0,299,257131,550642
29,19,female,Belgium,1,17,guess,win,5,left,7,guess_choice,794,j,0,0,299,256331,551442
29,19,female,Belgium,1,17,guess,win,5,left,7,guess_outcome,0,undefined,0,0,319,254769,553004
29,19,female,Belgium,1,17,ITC,win,5,left,7,ITC_start,719,space,0,0,319,254046,553727
29,19,female,Belgium,1,17,ITC,win,5,left,7,ITC_choice,1346,f,0,0,319,252695,555078
29,19,female,Belgium,1,17,ITC,win,5,left,7,ITC_wait,0,undefined,0,0,319,247689,560084
29,19,female,Belgium,1,17,ITC,win,5,left,7,ITC_collect,753,k,0,0,319,246933,560840
29,19,female,Belgium,1,17,ITC,win,5,left,7,ITC_outcome,0,undefined,0,0,339,245919,561854
29,19,female,Belgium,1,18,guess,loss,5,left,7,guess_start,369,space,0,0,339,245545,562228
29,19,female,Belgium,1,18,guess,loss,5,left,7,guess_choice,804,j,0,0,339,244736,563037
29,19,female,Belgium,1,18,guess,loss,5,left,7,guess_outcome,0,undefined,0,0,324,243180,564593
29,19,female,Belgium,1,18,ITC,loss,5,left,7,ITC_start,579,space,0,0,324,242597,565176
29,19,female,Belgium,1,18,ITC,loss,5,left,7,ITC_choice,1059,f,0,0,324,241533,566240
29,19,female,Belgium,1,18,ITC,loss,5,left,7,ITC_wait,0,undefined,0,0,324,236527,571246
29,19,female,Belgium,1,18,ITC,loss,5,left,7,ITC_collect,413,k,0,0,324,236103,571670
29,19,female,Belgium,1,18,ITC,loss,5,left,7,ITC_outcome,0,undefined,0,0,344,235088,572685
29,19,female,Belgium,1,19,guess,win,10,right,2,guess_start,357,space,0,0,344,234728,573045
29,19,female,Belgium,1,19,guess,win,10,right,2,guess_choice,1091,f,0,0,344,233631,574142
29,19,female,Belgium,1,19,guess,win,10,right,2,guess_outcome,0,undefined,0,0,364,232069,575704
29,19,female,Belgium,1,19,ITC,win,10,right,2,ITC_start,548,space,0,0,364,231517,576256
29,19,female,Belgium,1,19,ITC,win,10,right,2,ITC_choice,2921,j,0,0,364,228592,579181
29,19,female,Belgium,1,19,ITC,win,10,right,2,ITC_wait,0,undefined,0,0,364,218575,589198
29,19,female,Belgium,1,19,ITC,win,10,right,2,ITC_collect,944,k,0,0,364,217626,590147
29,19,female,Belgium,1,19,ITC,win,10,right,2,ITC_outcome,0,undefined,0,0,384,216607,591166
29,19,female,Belgium,1,20,guess,win,10,left,3,guess_start,589,space,0,0,384,216012,591761
29,19,female,Belgium,1,20,guess,win,10,left,3,guess_choice,933,j,0,0,384,215073,592700
29,19,female,Belgium,1,20,guess,win,10,left,3,guess_outcome,0,undefined,0,0,404,213507,594266
29,19,female,Belgium,1,20,ITC,win,10,left,3,ITC_start,611,space,0,0,404,212892,594881
29,19,female,Belgium,1,20,ITC,win,10,left,3,ITC_choice,887,f,0,0,404,212000,595773
29,19,female,Belgium,1,21,guess,win,5,left,2,guess_outcome,0,undefined,0,0,444,197107,610666
29,19,female,Belgium,1,21,guess,win,5,left,2,guess_choice,820,f,0,0,424,198664,609109
29,19,female,Belgium,1,21,guess,win,5,left,2,guess_start,511,space,0,0,424,199491,608282
29,19,female,Belgium,1,20,ITC,win,10,left,3,ITC_outcome,0,undefined,0,0,424,200006,607767
29,19,female,Belgium,1,20,ITC,win,10,left,3,ITC_collect,970,k,0,0,404,201016,606757
29,19,female,Belgium,1,20,ITC,win,10,left,3,ITC_wait,0,undefined,0,0,404,201994,605779
29,19,female,Belgium,1,21,ITC,win,5,left,2,ITC_start,936,space,0,0,444,196167,611606
29,19,female,Belgium,1,21,ITC,win,5,left,2,ITC_choice,837,j,0,0,444,195327,612446
29,19,female,Belgium,1,21,ITC,win,5,left,2,ITC_wait,0,undefined,0,0,444,195320,612453
29,19,female,Belgium,1,21,ITC,win,5,left,2,ITC_outcome,0,undefined,0,0,446,193425,614348
29,19,female,Belgium,1,21,ITC,win,5,left,2,ITC_collect,882,k,0,0,444,194434,613339
29,19,female,Belgium,1,22,guess,neutral,5,right,16,guess_start,481,space,0,0,446,192940,614833
29,19,female,Belgium,1,22,guess,neutral,5,right,16,guess_choice,1197,j,0,0,446,191737,616036
29,19,female,Belgium,1,22,guess,neutral,5,right,16,guess_outcome,0,undefined,0,0,446,190178,617595
29,19,female,Belgium,1,22,ITC,neutral,5,right,16,ITC_start,597,space,0,0,446,189577,618196
29,19,female,Belgium,1,22,ITC,neutral,5,right,16,ITC_choice,2843,f,0,0,446,186729,621044
29,19,female,Belgium,1,22,ITC,neutral,5,right,16,ITC_wait,0,undefined,0,0,446,186725,621048
29,19,female,Belgium,1,22,ITC,neutral,5,right,16,ITC_collect,898,k,0,0,446,185821,621952
29,19,female,Belgium,1,22,ITC,neutral,5,right,16,ITC_outcome,0,undefined,0,0,462,184805,622968
29,19,female,Belgium,1,23,guess,neutral,5,left,6,guess_start,368,space,0,0,462,184433,623340
29,19,female,Belgium,1,23,guess,neutral,5,left,6,guess_choice,848,f,0,0,462,183580,624193
29,19,female,Belgium,1,23,guess,neutral,5,left,6,guess_outcome,0,undefined,0,0,462,182016,625757
29,19,female,Belgium,1,23,ITC,neutral,5,left,6,ITC_start,324,space,0,0,462,181688,626085
29,19,female,Belgium,1,23,ITC,neutral,5,left,6,ITC_choice,2146,f,0,0,462,179538,628235
29,19,female,Belgium,1,23,ITC,neutral,5,left,6,ITC_wait,0,undefined,0,0,462,174526,633247
29,19,female,Belgium,1,23,ITC,neutral,5,left,6,ITC_collect,709,k,0,0,462,173814,633959
29,19,female,Belgium,1,23,ITC,neutral,5,left,6,ITC_outcome,0,undefined,0,0,482,172805,634968
29,19,female,Belgium,1,24,guess,win,5,left,5,guess_start,581,space,0,0,482,172221,635552
29,19,female,Belgium,1,24,guess,win,5,left,5,guess_choice,894,j,0,0,482,171322,636451
29,19,female,Belgium,1,24,guess,win,5,left,5,guess_outcome,0,undefined,0,0,502,169766,638007
29,19,female,Belgium,1,24,ITC,win,5,left,5,ITC_start,618,space,0,0,502,169144,638629
29,19,female,Belgium,1,24,ITC,win,5,left,5,ITC_choice,1567,f,0,0,502,167573,640200
29,19,female,Belgium,1,24,ITC,win,5,left,5,ITC_wait,0,undefined,0,0,502,162567,645206
29,19,female,Belgium,1,24,ITC,win,5,left,5,ITC_collect,1356,k,0,0,502,161207,646566
29,19,female,Belgium,1,24,ITC,win,5,left,5,ITC_outcome,0,undefined,0,0,522,160196,647577
29,19,female,Belgium,1,25,guess,win,5,left,13,guess_start,689,space,0,0,522,159504,648269
29,19,female,Belgium,1,25,guess,win,5,left,13,guess_choice,864,f,0,0,522,158636,649137
29,19,female,Belgium,1,25,guess,win,5,left,13,guess_outcome,0,undefined,0,0,542,157078,650695
29,19,female,Belgium,1,25,ITC,win,5,left,13,ITC_start,567,space,0,0,542,156505,651268
29,19,female,Belgium,1,25,ITC,win,5,left,13,ITC_choice,838,f,0,0,542,155664,652109
29,19,female,Belgium,1,25,ITC,win,5,left,13,ITC_wait,0,undefined,0,0,542,150657,657116
29,19,female,Belgium,1,25,ITC,win,5,left,13,ITC_collect,774,k,0,0,542,149880,657893
29,19,female,Belgium,1,25,ITC,win,5,left,13,ITC_outcome,0,undefined,0,0,562,148865,658908
29,19,female,Belgium,1,26,guess,loss,5,left,15,guess_start,1098,space,0,0,562,147760,660013
29,19,female,Belgium,1,26,guess,loss,5,left,15,guess_choice,713,j,0,0,562,147039,660734
29,19,female,Belgium,1,26,guess,loss,5,left,15,guess_outcome,0,undefined,0,0,547,145478,662295
29,19,female,Belgium,1,26,ITC,loss,5,left,15,ITC_start,868,space,0,0,547,144605,663168
29,19,female,Belgium,1,26,ITC,loss,5,left,15,ITC_choice,1479,j,0,0,547,143122,664651
29,19,female,Belgium,1,26,ITC,loss,5,left,15,ITC_wait,0,undefined,0,0,547,143115,664658
29,19,female,Belgium,1,26,ITC,loss,5,left,15,ITC_collect,1002,k,0,0,547,142104,665669
29,19,female,Belgium,1,26,ITC,loss,5,left,15,ITC_outcome,0,undefined,0,0,562,141097,666676
29,19,female,Belgium,1,27,guess,loss,5,right,6,guess_start,459,space,0,0,562,140633,667140
29,19,female,Belgium,1,27,guess,loss,5,right,6,guess_choice,660,f,0,0,562,139964,667809
29,19,female,Belgium,1,27,guess,loss,5,right,6,guess_outcome,0,undefined,0,0,547,138398,669375
29,19,female,Belgium,1,27,ITC,loss,5,right,6,ITC_start,366,space,0,0,547,138029,669744
29,19,female,Belgium,1,27,ITC,loss,5,right,6,ITC_choice,2051,j,0,0,547,135974,671799
29,19,female,Belgium,1,27,ITC,loss,5,right,6,ITC_wait,0,undefined,0,0,547,130957,676816
29,19,female,Belgium,1,27,ITC,loss,5,right,6,ITC_collect,404,k,0,0,547,130549,677224
29,19,female,Belgium,1,27,ITC,loss,5,right,6,ITC_outcome,0,undefined,0,0,567,129536,678237
29,19,female,Belgium,1,28,guess,loss,5,left,12,guess_start,384,space,0,0,567,129148,678625
29,19,female,Belgium,1,28,guess,loss,5,left,12,guess_choice,866,f,0,0,567,128276,679497
29,19,female,Belgium,1,28,guess,loss,5,left,12,guess_outcome,0,undefined,0,0,552,126717,681056
29,19,female,Belgium,1,28,ITC,loss,5,left,12,ITC_start,407,space,0,0,552,126306,681467
29,19,female,Belgium,1,28,ITC,loss,5,left,12,ITC_choice,2016,j,0,0,552,124285,683488
29,19,female,Belgium,1,28,ITC,loss,5,left,12,ITC_wait,0,undefined,0,0,552,124280,683493
29,19,female,Belgium,1,28,ITC,loss,5,left,12,ITC_collect,711,k,0,0,552,123562,684211
29,19,female,Belgium,1,28,ITC,loss,5,left,12,ITC_outcome,0,undefined,0,0,564,122547,685226
29,19,female,Belgium,1,29,guess,loss,10,left,2,guess_start,442,space,0,0,564,122101,685672
29,19,female,Belgium,1,29,guess,loss,10,left,2,guess_choice,1079,f,0,0,564,121014,686759
29,19,female,Belgium,1,29,guess,loss,10,left,2,guess_outcome,0,undefined,0,0,549,119444,688329
29,19,female,Belgium,1,29,ITC,loss,10,left,2,ITC_start,508,space,0,0,549,118933,688840
29,19,female,Belgium,1,29,ITC,loss,10,left,2,ITC_choice,1599,f,0,0,549,117330,690443
29,19,female,Belgium,1,29,ITC,loss,10,left,2,ITC_wait,0,undefined,0,0,549,107320,700453
29,19,female,Belgium,1,29,ITC,loss,10,left,2,ITC_collect,369,k,0,0,549,106944,700829
29,19,female,Belgium,1,29,ITC,loss,10,left,2,ITC_outcome,0,undefined,0,0,569,105931,701842
29,19,female,Belgium,1,30,guess,loss,5,right,3,guess_start,329,space,0,0,569,105597,702176
29,19,female,Belgium,1,30,guess,loss,5,right,3,guess_choice,830,f,0,0,569,104761,703012
29,19,female,Belgium,1,30,guess,loss,5,right,3,guess_outcome,0,undefined,0,0,554,103199,704574
29,19,female,Belgium,1,30,ITC,loss,5,right,3,ITC_start,434,space,0,0,554,102758,705015
29,19,female,Belgium,1,30,ITC,loss,5,right,3,ITC_choice,1606,j,0,0,554,101149,706624
29,19,female,Belgium,1,30,ITC,loss,5,right,3,ITC_wait,0,undefined,0,0,554,96140,711633
29,19,female,Belgium,1,30,ITC,loss,5,right,3,ITC_collect,885,k,0,0,554,95252,712521
29,19,female,Belgium,1,30,ITC,loss,5,right,3,ITC_outcome,0,undefined,0,0,574,94239,713534
29,19,female,Belgium,1,31,guess,win,10,right,5,guess_start,331,space,0,0,574,93897,713876
29,19,female,Belgium,1,31,guess,win,10,right,5,guess_choice,721,f,0,0,574,93168,714605
29,19,female,Belgium,1,31,guess,win,10,right,5,guess_outcome,0,undefined,0,0,594,91609,716164
29,19,female,Belgium,1,31,ITC,win,10,right,5,ITC_start,890,space,0,0,594,90716,717057
29,19,female,Belgium,1,31,ITC,win,10,right,5,ITC_choice,1069,j,0,0,594,89644,718129
29,19,female,Belgium,1,31,ITC,win,10,right,5,ITC_wait,0,undefined,0,0,594,79635,728138
29,19,female,Belgium,1,31,ITC,win,10,right,5,ITC_collect,442,k,0,0,594,79190,728583
29,19,female,Belgium,1,31,ITC,win,10,right,5,ITC_outcome,0,undefined,0,0,614,78172,729601
29,19,female,Belgium,1,32,guess,win,5,left,12,guess_start,427,space,0,0,614,77741,730032
29,19,female,Belgium,1,32,guess,win,5,left,12,guess_choice,859,j,0,0,614,76877,730896
29,19,female,Belgium,1,32,guess,win,5,left,12,guess_outcome,0,undefined,0,0,634,75311,732462
29,19,female,Belgium,1,32,ITC,win,5,left,12,ITC_start,892,space,0,0,634,74416,733357
29,19,female,Belgium,1,32,ITC,win,5,left,12,ITC_choice,1580,j,0,0,634,72833,734940
29,19,female,Belgium,1,32,ITC,win,5,left,12,ITC_wait,0,undefined,0,0,634,72826,734947
29,19,female,Belgium,1,32,ITC,win,5,left,12,ITC_collect,1082,k,0,0,634,71741,736032
29,19,female,Belgium,1,32,ITC,win,5,left,12,ITC_outcome,0,undefined,0,0,646,70731,737042
29,19,female,Belgium,1,33,guess,neutral,5,left,9,guess_start,301,space,0,0,646,70428,737345
29,19,female,Belgium,1,33,guess,neutral,5,left,9,guess_choice,1151,j,0,0,646,69271,738502
29,19,female,Belgium,1,33,guess,neutral,5,left,9,guess_outcome,0,undefined,0,0,646,67712,740061
29,19,female,Belgium,1,33,ITC,neutral,5,left,9,ITC_start,464,space,0,0,646,67246,740527
29,19,female,Belgium,1,33,ITC,neutral,5,left,9,ITC_choice,1576,f,0,0,646,65666,742107
29,19,female,Belgium,1,33,ITC,neutral,5,left,9,ITC_wait,0,undefined,0,0,646,60657,747116
29,19,female,Belgium,1,33,ITC,neutral,5,left,9,ITC_collect,1000,k,0,0,646,59654,748119
29,19,female,Belgium,1,33,ITC,neutral,5,left,9,ITC_outcome,0,undefined,0,0,666,58642,749131
29,19,female,Belgium,1,34,guess,loss,5,right,8,guess_start,343,space,0,0,666,58296,749477
29,19,female,Belgium,1,34,guess,loss,5,right,8,guess_choice,961,f,0,0,666,57329,750444
29,19,female,Belgium,1,34,guess,loss,5,right,8,guess_outcome,0,undefined,0,0,651,55772,752001
29,19,female,Belgium,1,34,ITC,loss,5,right,8,ITC_start,470,space,0,0,651,55299,752474
29,19,female,Belgium,1,34,ITC,loss,5,right,8,ITC_choice,1960,j,0,0,651,53335,754438
29,19,female,Belgium,1,34,ITC,loss,5,right,8,ITC_wait,0,undefined,0,0,651,48320,759453
29,19,female,Belgium,1,34,ITC,loss,5,right,8,ITC_collect,725,k,0,0,651,47583,760190
29,19,female,Belgium,1,34,ITC,loss,5,right,8,ITC_outcome,0,undefined,0,0,671,46572,761201
29,19,female,Belgium,1,35,guess,win,5,right,10,guess_start,931,space,0,0,671,45638,762135
29,19,female,Belgium,1,35,guess,win,5,right,10,guess_choice,1313,f,0,0,671,44320,763453
29,19,female,Belgium,1,35,guess,win,5,right,10,guess_outcome,0,undefined,0,0,691,42763,765010
29,19,female,Belgium,1,35,ITC,win,5,right,10,ITC_start,1496,space,0,0,691,41261,766512
29,19,female,Belgium,1,35,ITC,win,5,right,10,ITC_choice,1880,f,0,0,691,39377,768396
29,19,female,Belgium,1,35,ITC,win,5,right,10,ITC_wait,0,undefined,0,0,691,39370,768403
29,19,female,Belgium,1,35,ITC,win,5,right,10,ITC_collect,1158,k,0,0,691,38208,769565
29,19,female,Belgium,1,35,ITC,win,5,right,10,ITC_outcome,0,undefined,0,0,701,37196,770577
29,19,female,Belgium,1,36,guess,loss,10,right,4,guess_start,560,space,0,0,701,36631,771142
29,19,female,Belgium,1,36,guess,loss,10,right,4,guess_choice,1329,j,0,0,701,35297,772476
29,19,female,Belgium,1,36,guess,loss,10,right,4,guess_outcome,0,undefined,0,0,686,33733,774040
29,19,female,Belgium,1,36,ITC,loss,10,right,4,ITC_start,532,space,0,0,686,33197,774576
29,19,female,Belgium,1,36,ITC,loss,10,right,4,ITC_choice,1533,j,0,0,686,31660,776113
29,19,female,Belgium,1,36,ITC,loss,10,right,4,ITC_wait,0,undefined,0,0,686,21649,786124
29,19,female,Belgium,1,36,ITC,loss,10,right,4,ITC_collect,297,k,0,0,686,21348,786425
29,19,female,Belgium,1,36,ITC,loss,10,right,4,ITC_outcome,0,undefined,0,0,706,20339,787434
29,19,female,Belgium,1,37,guess,neutral,5,left,10,guess_start,398,space,0,0,706,19938,787835
29,19,female,Belgium,1,37,guess,neutral,5,left,10,guess_choice,1106,j,0,0,706,18826,788947
29,19,female,Belgium,1,37,guess,neutral,5,left,10,guess_outcome,0,undefined,0,0,706,17264,790509
29,19,female,Belgium,1,37,ITC,neutral,5,left,10,ITC_start,746,space,0,0,706,16516,791257
29,19,female,Belgium,1,37,ITC,neutral,5,left,10,ITC_choice,1955,j,0,0,706,14558,793215
29,19,female,Belgium,1,37,ITC,neutral,5,left,10,ITC_wait,0,undefined,0,0,706,14552,793221
29,19,female,Belgium,1,37,ITC,neutral,5,left,10,ITC_collect,942,k,0,0,706,13603,794170
29,19,female,Belgium,1,37,ITC,neutral,5,left,10,ITC_outcome,0,undefined,0,0,716,12588,795185
29,19,female,Belgium,1,38,guess,loss,5,right,13,guess_start,425,space,0,0,716,12160,795613
29,19,female,Belgium,1,38,guess,loss,5,right,13,guess_choice,1029,f,0,0,716,11125,796648
29,19,female,Belgium,1,38,guess,loss,5,right,13,guess_outcome,0,undefined,0,0,701,9561,798212
29,19,female,Belgium,1,38,ITC,loss,5,right,13,ITC_start,579,space,0,0,701,8978,798795
29,19,female,Belgium,1,38,ITC,loss,5,right,13,ITC_choice,1520,f,0,0,701,7455,800318
29,19,female,Belgium,1,38,ITC,loss,5,right,13,ITC_wait,0,undefined,0,0,701,7443,800330
29,19,female,Belgium,1,38,ITC,loss,5,right,13,ITC_collect,1169,k,0,0,701,6271,801502
29,19,female,Belgium,1,38,ITC,loss,5,right,13,ITC_outcome,0,undefined,0,0,714,5259,802514
29,19,female,Belgium,1,39,guess,loss,10,left,3,guess_start,325,space,0,0,714,4931,802842
29,19,female,Belgium,1,39,guess,loss,10,left,3,guess_choice,971,f,0,0,714,3953,803820
29,19,female,Belgium,1,39,guess,loss,10,left,3,guess_outcome,0,undefined,0,0,699,2380,805393
29,19,female,Belgium,1,39,ITC,loss,10,left,3,ITC_start,688,space,0,0,699,1686,806087
29,19,female,Belgium,1,39,ITC,loss,10,left,3,ITC_choice,1206,f,0,0,699,477,807296
29,19,female,Belgium,1,39,ITC,loss,10,left,3,ITC_wait,0,undefined,0,0,699,-10,807783
29,19,female,Belgium,2,40,guess,neutral,10,right,1,guess_start,1904,space,0,0,0,478094,818927
29,19,female,Belgium,2,40,guess,neutral,10,right,1,guess_choice,1065,f,0,0,0,477023,819998
29,19,female,Belgium,2,40,guess,neutral,10,right,1,guess_outcome,0,undefined,0,0,0,475460,821561
29,19,female,Belgium,2,40,ITC,neutral,10,right,1,ITC_start,1411,space,0,0,0,474046,822975
29,19,female,Belgium,2,40,ITC,neutral,10,right,1,ITC_choice,1185,j,0,0,0,472857,824164
29,19,female,Belgium,2,40,ITC,neutral,10,right,1,ITC_wait,0,undefined,0,0,0,462846,834175
29,19,female,Belgium,2,40,ITC,neutral,10,right,1,ITC_collect,362,k,0,0,0,462479,834542
29,19,female,Belgium,2,40,ITC,neutral,10,right,1,ITC_outcome,0,undefined,0,0,20,461471,835550
29,19,female,Belgium,2,41,guess,win,5,right,6,guess_start,599,space,0,0,20,460867,836154
29,19,female,Belgium,2,41,guess,win,5,right,6,guess_choice,807,f,0,0,20,460051,836970
29,19,female,Belgium,2,41,guess,win,5,right,6,guess_outcome,0,undefined,0,0,40,458492,838529
29,19,female,Belgium,2,41,ITC,win,5,right,6,ITC_start,593,space,0,0,40,457896,839125
29,19,female,Belgium,2,41,ITC,win,5,right,6,ITC_choice,1429,j,0,0,40,456463,840558
29,19,female,Belgium,2,41,ITC,win,5,right,6,ITC_wait,0,undefined,0,0,40,451452,845569
29,19,female,Belgium,2,41,ITC,win,5,right,6,ITC_collect,897,k,0,0,40,450549,846472
29,19,female,Belgium,2,41,ITC,win,5,right,6,ITC_outcome,0,undefined,0,0,60,449542,847479
29,19,female,Belgium,2,42,guess,win,10,left,7,guess_start,185,space,0,0,60,449354,847667
29,19,female,Belgium,2,42,guess,win,10,left,7,guess_choice,961,f,0,0,60,448388,848633
29,19,female,Belgium,2,42,guess,win,10,left,7,guess_outcome,0,undefined,0,0,80,446822,850199
29,19,female,Belgium,2,42,ITC,win,10,left,7,ITC_start,600,space,0,0,80,446218,850803
29,19,female,Belgium,2,42,ITC,win,10,left,7,ITC_choice,986,f,0,0,80,445229,851792
29,19,female,Belgium,2,42,ITC,win,10,left,7,ITC_wait,0,undefined,0,0,80,435221,861800
29,19,female,Belgium,2,42,ITC,win,10,left,7,ITC_collect,374,k,0,0,80,434840,862181
29,19,female,Belgium,2,42,ITC,win,10,left,7,ITC_outcome,0,undefined,0,0,100,433819,863202
29,19,female,Belgium,2,43,guess,neutral,10,left,7,guess_start,334,space,0,0,100,433482,863539
29,19,female,Belgium,2,43,guess,neutral,10,left,7,guess_choice,752,f,0,0,100,432725,864296
29,19,female,Belgium,2,43,guess,neutral,10,left,7,guess_outcome,0,undefined,0,0,100,431160,865861
29,19,female,Belgium,2,43,ITC,neutral,10,left,7,ITC_start,576,space,0,0,100,430580,866441
29,19,female,Belgium,2,43,ITC,neutral,10,left,7,ITC_choice,790,f,0,0,100,429786,867235
29,19,female,Belgium,2,43,ITC,neutral,10,left,7,ITC_wait,0,undefined,0,0,100,419780,877241
29,19,female,Belgium,2,43,ITC,neutral,10,left,7,ITC_collect,305,k,0,0,100,419471,877550
29,19,female,Belgium,2,43,ITC,neutral,10,left,7,ITC_outcome,0,undefined,0,0,120,418465,878556
29,19,female,Belgium,2,44,guess,neutral,5,left,1,guess_start,535,space,0,0,120,417927,879094
29,19,female,Belgium,2,44,guess,neutral,5,left,1,guess_choice,1179,j,0,0,120,416742,880279
29,19,female,Belgium,2,44,guess,neutral,5,left,1,guess_outcome,0,undefined,0,0,120,415177,881844
29,19,female,Belgium,2,44,ITC,neutral,5,left,1,ITC_start,3391,space,0,0,120,411783,885238
29,19,female,Belgium,2,44,ITC,neutral,5,left,1,ITC_choice,1083,f,0,0,120,410695,886326
29,19,female,Belgium,2,44,ITC,neutral,5,left,1,ITC_wait,0,undefined,0,0,120,405676,891345
29,19,female,Belgium,2,44,ITC,neutral,5,left,1,ITC_collect,978,k,0,0,120,404695,892326
29,19,female,Belgium,2,44,ITC,neutral,5,left,1,ITC_outcome,0,undefined,0,0,140,403683,893338
29,19,female,Belgium,2,45,guess,win,5,left,4,guess_start,553,space,0,0,140,403126,893895
29,19,female,Belgium,2,45,guess,win,5,left,4,guess_choice,1010,j,0,0,140,402113,894908
29,19,female,Belgium,2,45,guess,win,5,left,4,guess_outcome,0,undefined,0,0,160,400555,896466
29,19,female,Belgium,2,45,ITC,win,5,left,4,ITC_start,681,space,0,0,160,399870,897151
29,19,female,Belgium,2,45,ITC,win,5,left,4,ITC_choice,976,f,0,0,160,398890,898131
29,19,female,Belgium,2,45,ITC,win,5,left,4,ITC_wait,0,undefined,0,0,160,393885,903136
29,19,female,Belgium,2,45,ITC,win,5,left,4,ITC_collect,351,k,0,0,160,393531,903490
29,19,female,Belgium,2,45,ITC,win,5,left,4,ITC_outcome,0,undefined,0,0,180,392525,904496
29,19,female,Belgium,2,46,guess,neutral,5,left,3,guess_start,275,space,0,0,180,392244,904777
29,19,female,Belgium,2,46,guess,neutral,5,left,3,guess_choice,721,f,0,0,180,391518,905503
29,19,female,Belgium,2,46,guess,neutral,5,left,3,guess_outcome,0,undefined,0,0,180,389950,907071
29,19,female,Belgium,2,46,ITC,neutral,5,left,3,ITC_start,842,space,0,0,180,389103,907918
29,19,female,Belgium,2,46,ITC,neutral,5,left,3,ITC_choice,729,f,0,0,180,388369,908652
29,19,female,Belgium,2,46,ITC,neutral,5,left,3,ITC_wait,0,undefined,0,0,180,383365,913656
29,19,female,Belgium,2,46,ITC,neutral,5,left,3,ITC_collect,811,k,0,0,180,382549,914472
29,19,female,Belgium,2,46,ITC,neutral,5,left,3,ITC_outcome,0,undefined,0,0,200,381534,915487
29,19,female,Belgium,2,47,guess,neutral,5,right,5,guess_start,694,space,0,0,200,380837,916184
29,19,female,Belgium,2,47,guess,neutral,5,right,5,guess_choice,1252,j,0,0,200,379580,917441
29,19,female,Belgium,2,47,guess,neutral,5,right,5,guess_outcome,0,undefined,0,0,200,378015,919006
29,19,female,Belgium,2,47,ITC,neutral,5,right,5,ITC_start,556,space,0,0,200,377455,919566
29,19,female,Belgium,2,47,ITC,neutral,5,right,5,ITC_choice,1990,j,0,0,200,375462,921559
29,19,female,Belgium,2,47,ITC,neutral,5,right,5,ITC_wait,0,undefined,0,0,200,370449,926572
29,19,female,Belgium,2,47,ITC,neutral,5,right,5,ITC_collect,353,k,0,0,200,370093,926928
29,19,female,Belgium,2,47,ITC,neutral,5,right,5,ITC_outcome,0,undefined,0,0,220,369084,927937
29,19,female,Belgium,2,48,guess,neutral,10,left,3,guess_start,501,space,0,0,220,368579,928442
29,19,female,Belgium,2,48,guess,neutral,10,left,3,guess_choice,688,f,0,0,220,367885,929136
29,19,female,Belgium,2,48,guess,neutral,10,left,3,guess_outcome,0,undefined,0,0,220,366325,930696
29,19,female,Belgium,2,48,ITC,neutral,10,left,3,ITC_start,769,space,0,0,220,365551,931470
29,19,female,Belgium,2,48,ITC,neutral,10,left,3,ITC_choice,1052,f,0,0,220,364495,932526
29,19,female,Belgium,2,48,ITC,neutral,10,left,3,ITC_wait,0,undefined,0,0,220,354483,942538
29,19,female,Belgium,2,48,ITC,neutral,10,left,3,ITC_collect,310,k,0,0,220,354171,942850
29,19,female,Belgium,2,48,ITC,neutral,10,left,3,ITC_outcome,0,undefined,0,0,240,353156,943865
29,19,female,Belgium,2,49,guess,win,5,right,14,guess_start,470,space,0,0,240,352682,944339
29,19,female,Belgium,2,49,guess,win,5,right,14,guess_choice,999,f,0,0,240,351675,945346
29,19,female,Belgium,2,49,guess,win,5,right,14,guess_outcome,0,undefined,0,0,260,350106,946915
29,19,female,Belgium,2,49,ITC,win,5,right,14,ITC_start,894,space,0,0,260,349207,947814
29,19,female,Belgium,2,49,ITC,win,5,right,14,ITC_choice,1740,f,0,0,260,347461,949560
29,19,female,Belgium,2,49,ITC,win,5,right,14,ITC_wait,0,undefined,0,0,260,347452,949569
29,19,female,Belgium,2,49,ITC,win,5,right,14,ITC_collect,1167,k,0,0,260,346277,950744
29,19,female,Belgium,2,49,ITC,win,5,right,14,ITC_outcome,0,undefined,0,0,274,345267,951754
29,19,female,Belgium,2,50,guess,loss,5,right,5,guess_start,543,space,0,0,274,344720,952301
29,19,female,Belgium,2,50,guess,loss,5,right,5,guess_choice,898,j,0,0,274,343816,953205
29,19,female,Belgium,2,50,guess,loss,5,right,5,guess_outcome,0,undefined,0,0,259,342256,954765
29,19,female,Belgium,2,50,ITC,loss,5,right,5,ITC_start,817,space,0,0,259,341433,955588
29,19,female,Belgium,2,50,ITC,loss,5,right,5,ITC_choice,1328,j,0,0,259,340100,956921
29,19,female,Belgium,2,50,ITC,loss,5,right,5,ITC_wait,0,undefined,0,0,259,335084,961937
29,19,female,Belgium,2,50,ITC,loss,5,right,5,ITC_collect,680,k,0,0,259,334400,962621
29,19,female,Belgium,2,50,ITC,loss,5,right,5,ITC_outcome,0,undefined,0,0,279,333394,963627
29,19,female,Belgium,2,51,guess,neutral,5,left,12,guess_start,333,space,0,0,279,333058,963963
29,19,female,Belgium,2,51,guess,neutral,5,left,12,guess_choice,835,j,0,0,279,332217,964804
29,19,female,Belgium,2,51,guess,neutral,5,left,12,guess_outcome,0,undefined,0,0,279,330648,966373
29,19,female,Belgium,2,51,ITC,neutral,5,left,12,ITC_start,1218,space,0,0,279,329427,967594
29,19,female,Belgium,2,51,ITC,neutral,5,left,12,ITC_choice,813,f,0,0,279,328608,968413
29,19,female,Belgium,2,51,ITC,neutral,5,left,12,ITC_wait,0,undefined,0,0,279,323605,973416
29,19,female,Belgium,2,51,ITC,neutral,5,left,12,ITC_collect,721,k,0,0,279,322880,974141
29,19,female,Belgium,2,51,ITC,neutral,5,left,12,ITC_outcome,0,undefined,0,0,299,321869,975152
29,19,female,Belgium,2,52,guess,loss,10,right,6,guess_start,372,space,0,0,299,321493,975528
29,19,female,Belgium,2,52,guess,loss,10,right,6,guess_choice,886,f,0,0,299,320603,976418
29,19,female,Belgium,2,52,guess,loss,10,right,6,guess_outcome,0,undefined,0,0,284,319044,977977
29,19,female,Belgium,2,52,ITC,loss,10,right,6,ITC_start,679,space,0,0,284,318362,978659
29,19,female,Belgium,2,52,ITC,loss,10,right,6,ITC_choice,1300,j,0,0,284,317059,979962
29,19,female,Belgium,2,52,ITC,loss,10,right,6,ITC_wait,0,undefined,0,0,284,307054,989967
29,19,female,Belgium,2,52,ITC,loss,10,right,6,ITC_collect,411,k,0,0,284,306639,990382
29,19,female,Belgium,2,52,ITC,loss,10,right,6,ITC_outcome,0,undefined,0,0,304,305623,991398
29,19,female,Belgium,2,53,guess,loss,5,right,9,guess_start,419,space,0,0,304,305185,991836
29,19,female,Belgium,2,53,guess,loss,5,right,9,guess_choice,872,f,0,0,304,304307,992714
29,19,female,Belgium,2,53,guess,loss,5,right,9,guess_outcome,0,undefined,0,0,289,302744,994277
29,19,female,Belgium,2,53,ITC,loss,5,right,9,ITC_start,630,space,0,0,289,302110,994911
29,19,female,Belgium,2,53,ITC,loss,5,right,9,ITC_choice,845,j,0,0,289,301262,995759
29,19,female,Belgium,2,53,ITC,loss,5,right,9,ITC_wait,0,undefined,0,0,289,296254,1000767
29,19,female,Belgium,2,53,ITC,loss,5,right,9,ITC_collect,354,k,0,0,289,295896,1001125
29,19,female,Belgium,2,53,ITC,loss,5,right,9,ITC_outcome,0,undefined,0,0,309,294883,1002138
29,19,female,Belgium,2,54,guess,win,5,right,16,guess_start,347,space,0,0,309,294532,1002489
29,19,female,Belgium,2,54,guess,win,5,right,16,guess_choice,705,f,0,0,309,293821,1003200
29,19,female,Belgium,2,54,guess,win,5,right,16,guess_outcome,0,undefined,0,0,329,292264,1004757
29,19,female,Belgium,2,54,ITC,win,5,right,16,ITC_start,662,space,0,0,329,291598,1005423
29,19,female,Belgium,2,54,ITC,win,5,right,16,ITC_choice,1386,f,0,0,329,290209,1006812
29,19,female,Belgium,2,54,ITC,win,5,right,16,ITC_wait,0,undefined,0,0,329,290200,1006821
29,19,female,Belgium,2,54,ITC,win,5,right,16,ITC_collect,813,k,0,0,329,289382,1007639
29,19,female,Belgium,2,54,ITC,win,5,right,16,ITC_outcome,0,undefined,0,0,345,288375,1008646
29,19,female,Belgium,2,55,guess,neutral,10,right,5,guess_start,515,space,0,0,345,287855,1009166
29,19,female,Belgium,2,55,guess,neutral,10,right,5,guess_choice,786,j,0,0,345,287063,1009958
29,19,female,Belgium,2,55,guess,neutral,10,right,5,guess_outcome,0,undefined,0,0,345,285493,1011528
29,19,female,Belgium,2,55,ITC,neutral,10,right,5,ITC_start,317,space,0,0,345,285170,1011851
29,19,female,Belgium,2,55,ITC,neutral,10,right,5,ITC_choice,1142,j,0,0,345,284021,1013000
29,19,female,Belgium,2,55,ITC,neutral,10,right,5,ITC_wait,0,undefined,0,0,345,274016,1023005
29,19,female,Belgium,2,55,ITC,neutral,10,right,5,ITC_collect,352,k,0,0,345,273658,1023363
29,19,female,Belgium,2,55,ITC,neutral,10,right,5,ITC_outcome,0,undefined,0,0,365,272646,1024375
29,19,female,Belgium,2,56,guess,win,10,right,1,guess_start,480,space,0,0,365,272163,1024858
29,19,female,Belgium,2,56,guess,win,10,right,1,guess_choice,931,j,0,0,365,271227,1025794
29,19,female,Belgium,2,56,guess,win,10,right,1,guess_outcome,0,undefined,0,0,385,269657,1027364
29,19,female,Belgium,2,56,ITC,win,10,right,1,ITC_start,292,space,0,0,385,269359,1027662
29,19,female,Belgium,2,56,ITC,win,10,right,1,ITC_choice,1126,j,0,0,385,268229,1028792
29,19,female,Belgium,2,56,ITC,win,10,right,1,ITC_wait,0,undefined,0,0,385,258220,1038801
29,19,female,Belgium,2,56,ITC,win,10,right,1,ITC_collect,297,k,0,0,385,257920,1039101
29,19,female,Belgium,2,56,ITC,win,10,right,1,ITC_outcome,0,undefined,0,0,405,256915,1040106
29,19,female,Belgium,2,57,guess,win,5,right,9,guess_start,334,space,0,0,405,256575,1040446
29,19,female,Belgium,2,57,guess,win,5,right,9,guess_choice,755,f,0,0,405,255814,1041207
29,19,female,Belgium,2,57,guess,win,5,right,9,guess_outcome,0,undefined,0,0,425,254253,1042768
29,19,female,Belgium,2,57,ITC,win,5,right,9,ITC_start,253,space,0,0,425,253995,1043026
29,19,female,Belgium,2,57,ITC,win,5,right,9,ITC_choice,966,j,0,0,425,253024,1043997
29,19,female,Belgium,2,57,ITC,win,5,right,9,ITC_wait,0,undefined,0,0,425,248012,1049009
29,19,female,Belgium,2,57,ITC,win,5,right,9,ITC_collect,306,k,0,0,425,247700,1049321
29,19,female,Belgium,2,57,ITC,win,5,right,9,ITC_outcome,0,undefined,0,0,445,246683,1050338
29,19,female,Belgium,2,58,guess,win,10,right,4,guess_start,278,space,0,0,445,246401,1050620
29,19,female,Belgium,2,58,guess,win,10,right,4,guess_choice,762,j,0,0,445,245633,1051388
29,19,female,Belgium,2,58,guess,win,10,right,4,guess_outcome,0,undefined,0,0,465,244072,1052949
29,19,female,Belgium,2,58,ITC,win,10,right,4,ITC_start,317,space,0,0,465,243753,1053268
29,19,female,Belgium,2,58,ITC,win,10,right,4,ITC_choice,958,j,0,0,465,242792,1054229
29,19,female,Belgium,2,58,ITC,win,10,right,4,ITC_wait,0,undefined,0,0,465,232784,1064237
29,19,female,Belgium,2,58,ITC,win,10,right,4,ITC_collect,635,k,0,0,465,232146,1064875
29,19,female,Belgium,2,58,ITC,win,10,right,4,ITC_outcome,0,undefined,0,0,485,231135,1065886
29,19,female,Belgium,2,59,guess,neutral,10,right,2,guess_start,1286,space,0,0,485,229844,1067177
29,19,female,Belgium,2,59,guess,neutral,10,right,2,guess_choice,892,f,0,0,485,228946,1068075
29,19,female,Belgium,2,59,guess,neutral,10,right,2,guess_outcome,0,undefined,0,0,485,227388,1069633
29,19,female,Belgium,2,59,ITC,neutral,10,right,2,ITC_start,278,space,0,0,485,227104,1069917
29,19,female,Belgium,2,59,ITC,neutral,10,right,2,ITC_choice,1304,j,0,0,485,225797,1071224
29,19,female,Belgium,2,59,ITC,neutral,10,right,2,ITC_wait,0,undefined,0,0,485,215791,1081230
29,19,female,Belgium,2,59,ITC,neutral,10,right,2,ITC_collect,370,k,0,0,485,215413,1081608
29,19,female,Belgium,2,59,ITC,neutral,10,right,2,ITC_outcome,0,undefined,0,0,505,214407,1082614
29,19,female,Belgium,2,60,guess,neutral,5,right,4,guess_start,404,space,0,0,505,214000,1083021
29,19,female,Belgium,2,60,guess,neutral,5,right,4,guess_choice,702,f,0,0,505,213292,1083729
29,19,female,Belgium,2,60,guess,neutral,5,right,4,guess_outcome,0,undefined,0,0,505,211727,1085294
29,19,female,Belgium,2,60,ITC,neutral,5,right,4,ITC_start,374,space,0,0,505,211350,1085671
29,19,female,Belgium,2,60,ITC,neutral,5,right,4,ITC_choice,832,j,0,0,505,210514,1086507
29,19,female,Belgium,2,60,ITC,neutral,5,right,4,ITC_wait,0,undefined,0,0,505,205505,1091516
29,19,female,Belgium,2,60,ITC,neutral,5,right,4,ITC_collect,308,k,0,0,505,205193,1091828
29,19,female,Belgium,2,60,ITC,neutral,5,right,4,ITC_outcome,0,undefined,0,0,525,204187,1092834
29,19,female,Belgium,2,61,guess,loss,5,left,2,guess_start,309,space,0,0,525,203875,1093146
29,19,female,Belgium,2,61,guess,loss,5,left,2,guess_choice,904,f,0,0,525,202966,1094055
29,19,female,Belgium,2,61,guess,loss,5,left,2,guess_outcome,0,undefined,0,0,510,201407,1095614
29,19,female,Belgium,2,61,ITC,loss,5,left,2,ITC_start,569,space,0,0,510,200835,1096186
29,19,female,Belgium,2,61,ITC,loss,5,left,2,ITC_choice,1658,f,0,0,510,199173,1097848
29,19,female,Belgium,2,61,ITC,loss,5,left,2,ITC_wait,0,undefined,0,0,510,194157,1102864
29,19,female,Belgium,2,61,ITC,loss,5,left,2,ITC_collect,362,k,0,0,510,193791,1103230
29,19,female,Belgium,2,61,ITC,loss,5,left,2,ITC_outcome,0,undefined,0,0,530,192777,1104244
29,19,female,Belgium,2,62,guess,neutral,10,left,6,guess_start,311,space,0,0,530,192461,1104560
29,19,female,Belgium,2,62,guess,neutral,10,left,6,guess_choice,582,f,0,0,530,191874,1105147
29,19,female,Belgium,2,62,guess,neutral,10,left,6,guess_outcome,0,undefined,0,0,530,190318,1106703
29,19,female,Belgium,2,62,ITC,neutral,10,left,6,ITC_start,418,space,0,0,530,189895,1107126
29,19,female,Belgium,2,62,ITC,neutral,10,left,6,ITC_choice,878,f,0,0,530,189013,1108008
29,19,female,Belgium,2,62,ITC,neutral,10,left,6,ITC_wait,0,undefined,0,0,530,179006,1118015
29,19,female,Belgium,2,62,ITC,neutral,10,left,6,ITC_collect,823,k,0,0,530,178179,1118842
29,19,female,Belgium,2,62,ITC,neutral,10,left,6,ITC_outcome,0,undefined,0,0,550,177164,1119857
29,19,female,Belgium,2,63,guess,win,5,right,3,guess_start,302,space,0,0,550,176857,1120164
29,19,female,Belgium,2,63,guess,win,5,right,3,guess_choice,1061,f,0,0,550,175792,1121229
29,19,female,Belgium,2,63,guess,win,5,right,3,guess_outcome,0,undefined,0,0,570,174230,1122791
29,19,female,Belgium,2,63,ITC,win,5,right,3,ITC_start,1668,space,0,0,570,172557,1124464
29,19,female,Belgium,2,63,ITC,win,5,right,3,ITC_choice,1512,j,0,0,570,171042,1125979
29,19,female,Belgium,2,63,ITC,win,5,right,3,ITC_wait,0,undefined,0,0,570,166029,1130992
29,19,female,Belgium,2,63,ITC,win,5,right,3,ITC_collect,958,k,0,0,570,165068,1131953
29,19,female,Belgium,2,63,ITC,win,5,right,3,ITC_outcome,0,undefined,0,0,590,164059,1132962
29,19,female,Belgium,2,64,guess,neutral,5,right,13,guess_start,305,space,0,0,590,163748,1133273
29,19,female,Belgium,2,64,guess,neutral,5,right,13,guess_choice,665,f,0,0,590,163078,1133943
29,19,female,Belgium,2,64,guess,neutral,5,right,13,guess_outcome,0,undefined,0,0,590,161520,1135501
29,19,female,Belgium,2,64,ITC,neutral,5,right,13,ITC_start,303,space,0,0,590,161214,1135807
29,19,female,Belgium,2,64,ITC,neutral,5,right,13,ITC_choice,1024,f,0,0,590,160186,1136835
29,19,female,Belgium,2,64,ITC,neutral,5,right,13,ITC_wait,0,undefined,0,0,590,160176,1136845
29,19,female,Belgium,2,64,ITC,neutral,5,right,13,ITC_collect,906,k,0,0,590,159266,1137755
29,19,female,Belgium,2,64,ITC,neutral,5,right,13,ITC_outcome,0,undefined,0,0,603,158259,1138762
29,19,female,Belgium,2,65,guess,neutral,5,right,14,guess_start,423,space,0,0,603,157833,1139188
29,19,female,Belgium,2,65,guess,neutral,5,right,14,guess_choice,752,j,0,0,603,157076,1139945
29,19,female,Belgium,2,65,guess,neutral,5,right,14,guess_outcome,0,undefined,0,0,603,155510,1141511
29,19,female,Belgium,2,65,ITC,neutral,5,right,14,ITC_start,352,space,0,0,603,155155,1141866
29,19,female,Belgium,2,65,ITC,neutral,5,right,14,ITC_choice,1480,f,0,0,603,153672,1143349
29,19,female,Belgium,2,65,ITC,neutral,5,right,14,ITC_wait,0,undefined,0,0,603,153665,1143356
29,19,female,Belgium,2,65,ITC,neutral,5,right,14,ITC_collect,1023,k,0,0,603,152635,1144386
29,19,female,Belgium,2,65,ITC,neutral,5,right,14,ITC_outcome,0,undefined,0,0,617,151629,1145392
29,19,female,Belgium,2,66,guess,win,10,right,6,guess_start,329,space,0,0,617,151296,1145725
29,19,female,Belgium,2,66,guess,win,10,right,6,guess_choice,904,f,0,0,617,150387,1146634
29,19,female,Belgium,2,66,guess,win,10,right,6,guess_outcome,0,undefined,0,0,637,148821,1148200
29,19,female,Belgium,2,66,ITC,win,10,right,6,ITC_start,544,space,0,0,637,148271,1148750
29,19,female,Belgium,2,66,ITC,win,10,right,6,ITC_choice,1574,j,0,0,637,146693,1150328
29,19,female,Belgium,2,66,ITC,win,10,right,6,ITC_wait,0,undefined,0,0,637,136686,1160335
29,19,female,Belgium,2,66,ITC,win,10,right,6,ITC_collect,360,k,0,0,637,136320,1160701
29,19,female,Belgium,2,66,ITC,win,10,right,6,ITC_outcome,0,undefined,0,0,657,135310,1161711
29,19,female,Belgium,2,67,guess,loss,5,left,11,guess_start,439,space,0,0,657,134867,1162154
29,19,female,Belgium,2,67,guess,loss,5,left,11,guess_choice,918,j,0,0,657,133944,1163077
29,19,female,Belgium,2,67,guess,loss,5,left,11,guess_outcome,0,undefined,0,0,642,132361,1164660
29,19,female,Belgium,2,67,ITC,loss,5,left,11,ITC_start,755,space,0,0,642,131602,1165419
29,19,female,Belgium,2,67,ITC,loss,5,left,11,ITC_choice,1364,j,0,0,642,130233,1166788
29,19,female,Belgium,2,67,ITC,loss,5,left,11,ITC_wait,0,undefined,0,0,642,130229,1166792
29,19,female,Belgium,2,67,ITC,loss,5,left,11,ITC_collect,668,k,0,0,642,129558,1167463
29,19,female,Belgium,2,67,ITC,loss,5,left,11,ITC_outcome,0,undefined,0,0,653,128550,1168471
29,19,female,Belgium,2,68,guess,loss,10,right,7,guess_start,323,space,0,0,653,128224,1168797
29,19,female,Belgium,2,68,guess,loss,10,right,7,guess_choice,634,f,0,0,653,127585,1169436
29,19,female,Belgium,2,68,guess,loss,10,right,7,guess_outcome,0,undefined,0,0,638,126021,1171000
29,19,female,Belgium,2,68,ITC,loss,10,right,7,ITC_start,579,space,0,0,638,125436,1171585
29,19,female,Belgium,2,68,ITC,loss,10,right,7,ITC_choice,1247,j,0,0,638,124185,1172836
29,19,female,Belgium,2,68,ITC,loss,10,right,7,ITC_wait,0,undefined,0,0,638,114162,1182859
29,19,female,Belgium,2,68,ITC,loss,10,right,7,ITC_collect,346,k,0,0,638,113813,1183208
29,19,female,Belgium,2,68,ITC,loss,10,right,7,ITC_outcome,0,undefined,0,0,658,112802,1184219
29,19,female,Belgium,2,69,guess,neutral,10,left,8,guess_start,366,space,0,0,658,112432,1184589
29,19,female,Belgium,2,69,guess,neutral,10,left,8,guess_choice,723,f,0,0,658,111703,1185318
29,19,female,Belgium,2,69,guess,neutral,10,left,8,guess_outcome,0,undefined,0,0,658,110133,1186888
29,19,female,Belgium,2,69,ITC,neutral,10,left,8,ITC_start,344,space,0,0,658,109783,1187238
29,19,female,Belgium,2,69,ITC,neutral,10,left,8,ITC_choice,1544,f,0,0,658,108232,1188789
29,19,female,Belgium,2,69,ITC,neutral,10,left,8,ITC_wait,0,undefined,0,0,658,98223,1198798
29,19,female,Belgium,2,69,ITC,neutral,10,left,8,ITC_collect,363,k,0,0,658,97852,1199169
29,19,female,Belgium,2,69,ITC,neutral,10,left,8,ITC_outcome,0,undefined,0,0,678,96834,1200187
29,19,female,Belgium,2,70,guess,win,5,right,11,guess_start,428,space,0,0,678,96402,1200619
29,19,female,Belgium,2,70,guess,win,5,right,11,guess_choice,1122,f,0,0,678,95274,1201747
29,19,female,Belgium,2,70,guess,win,5,right,11,guess_outcome,0,undefined,0,0,698,93703,1203318
29,19,female,Belgium,2,70,ITC,win,5,right,11,ITC_start,574,space,0,0,698,93122,1203899
29,19,female,Belgium,2,70,ITC,win,5,right,11,ITC_choice,1006,f,0,0,698,92112,1204909
29,19,female,Belgium,2,70,ITC,win,5,right,11,ITC_wait,0,undefined,0,0,698,92103,1204918
29,19,female,Belgium,2,70,ITC,win,5,right,11,ITC_collect,932,k,0,0,698,91166,1205855
29,19,female,Belgium,2,70,ITC,win,5,right,11,ITC_outcome,0,undefined,0,0,709,90155,1206866
29,19,female,Belgium,2,71,guess,loss,10,left,5,guess_start,347,space,0,0,709,89803,1207218
29,19,female,Belgium,2,71,guess,loss,10,left,5,guess_choice,798,j,0,0,709,88998,1208023
29,19,female,Belgium,2,71,guess,loss,10,left,5,guess_outcome,0,undefined,0,0,694,87425,1209596
29,19,female,Belgium,2,71,ITC,loss,10,left,5,ITC_start,767,space,0,0,694,86651,1210370
29,19,female,Belgium,2,71,ITC,loss,10,left,5,ITC_choice,1405,f,0,0,694,85243,1211778
29,19,female,Belgium,2,71,ITC,loss,10,left,5,ITC_wait,0,undefined,0,0,694,75238,1221783
29,19,female,Belgium,2,71,ITC,loss,10,left,5,ITC_collect,409,k,0,0,694,74823,1222198
29,19,female,Belgium,2,72,guess,loss,5,right,4,guess_choice,884,j,0,0,714,72531,1224490
29,19,female,Belgium,2,71,ITC,loss,10,left,5,ITC_outcome,0,undefined,0,0,714,73812,1223209
29,19,female,Belgium,2,72,guess,loss,5,right,4,guess_start,387,space,0,0,714,73421,1223600
29,19,female,Belgium,2,72,guess,loss,5,right,4,guess_outcome,0,undefined,0,0,699,70964,1226057
29,19,female,Belgium,2,72,ITC,loss,5,right,4,ITC_start,524,space,0,0,699,70436,1226585
29,19,female,Belgium,2,72,ITC,loss,5,right,4,ITC_choice,1694,j,0,0,699,68737,1228284
29,19,female,Belgium,2,72,ITC,loss,5,right,4,ITC_wait,0,undefined,0,0,699,63725,1233296
29,19,female,Belgium,2,72,ITC,loss,5,right,4,ITC_collect,332,k,0,0,699,63387,1233634
29,19,female,Belgium,2,72,ITC,loss,5,right,4,ITC_outcome,0,undefined,0,0,719,62363,1234658
29,19,female,Belgium,2,73,guess,loss,10,left,4,guess_start,264,space,0,0,719,62093,1234928
29,19,female,Belgium,2,73,guess,loss,10,left,4,guess_choice,1418,j,0,0,719,60670,1236351
29,19,female,Belgium,2,73,guess,loss,10,left,4,guess_outcome,0,undefined,0,0,704,59104,1237917
29,19,female,Belgium,2,73,ITC,loss,10,left,4,ITC_start,516,space,0,0,704,58583,1238438
29,19,female,Belgium,2,73,ITC,loss,10,left,4,ITC_choice,1168,f,0,0,704,57412,1239609
29,19,female,Belgium,2,73,ITC,loss,10,left,4,ITC_wait,0,undefined,0,0,704,47401,1249620
29,19,female,Belgium,2,73,ITC,loss,10,left,4,ITC_collect,330,k,0,0,704,47068,1249953
29,19,female,Belgium,2,73,ITC,loss,10,left,4,ITC_outcome,0,undefined,0,0,724,46063,1250958
29,19,female,Belgium,2,74,guess,loss,5,left,9,guess_start,447,space,0,0,724,45611,1251410
29,19,female,Belgium,2,74,guess,loss,5,left,9,guess_choice,1093,j,0,0,724,44512,1252509
29,19,female,Belgium,2,74,guess,loss,5,left,9,guess_outcome,0,undefined,0,0,709,42952,1254069
29,19,female,Belgium,2,74,ITC,loss,5,left,9,ITC_start,591,space,0,0,709,42357,1254664
29,19,female,Belgium,2,74,ITC,loss,5,left,9,ITC_choice,1320,j,0,0,709,41033,1255988
29,19,female,Belgium,2,74,ITC,loss,5,left,9,ITC_wait,0,undefined,0,0,709,41025,1255996
29,19,female,Belgium,2,74,ITC,loss,5,left,9,ITC_collect,723,k,0,0,709,40294,1256727
29,19,female,Belgium,2,74,ITC,loss,5,left,9,ITC_outcome,0,undefined,0,0,718,39282,1257739
29,19,female,Belgium,2,75,guess,win,5,left,9,guess_start,415,space,0,0,718,38862,1258159
29,19,female,Belgium,2,75,guess,win,5,left,9,guess_choice,1184,j,0,0,718,37672,1259349
29,19,female,Belgium,2,75,guess,win,5,left,9,guess_outcome,0,undefined,0,0,738,36109,1260912
29,19,female,Belgium,2,75,ITC,win,5,left,9,ITC_start,414,space,0,0,738,35691,1261330
29,19,female,Belgium,2,75,ITC,win,5,left,9,ITC_choice,1291,j,0,0,738,34396,1262625
29,19,female,Belgium,2,75,ITC,win,5,left,9,ITC_wait,0,undefined,0,0,738,34390,1262631
29,19,female,Belgium,2,75,ITC,win,5,left,9,ITC_collect,750,k,0,0,738,33636,1263385
29,19,female,Belgium,2,75,ITC,win,5,left,9,ITC_outcome,0,undefined,0,0,747,32622,1264399
29,19,female,Belgium,2,76,guess,neutral,10,right,2,guess_start,335,space,0,0,747,32274,1264747
29,19,female,Belgium,2,76,guess,neutral,10,right,2,guess_choice,786,f,0,0,747,31478,1265543
29,19,female,Belgium,2,76,guess,neutral,10,right,2,guess_outcome,0,undefined,0,0,747,29912,1267109
29,19,female,Belgium,2,76,ITC,neutral,10,right,2,ITC_start,204,space,0,0,747,29704,1267317
29,19,female,Belgium,2,76,ITC,neutral,10,right,2,ITC_choice,2100,j,0,0,747,27600,1269421
29,19,female,Belgium,2,76,ITC,neutral,10,right,2,ITC_wait,0,undefined,0,0,747,17596,1279425
29,19,female,Belgium,2,76,ITC,neutral,10,right,2,ITC_collect,1218,k,0,0,747,16372,1280649
29,19,female,Belgium,2,76,ITC,neutral,10,right,2,ITC_outcome,0,undefined,0,0,767,15367,1281654
29,19,female,Belgium,2,77,guess,neutral,5,left,5,guess_start,550,space,0,0,767,14812,1282209
29,19,female,Belgium,2,77,guess,neutral,5,left,5,guess_choice,831,j,0,0,767,13976,1283045
29,19,female,Belgium,2,77,guess,neutral,5,left,5,guess_outcome,0,undefined,0,0,767,12418,1284603
29,19,female,Belgium,2,77,ITC,neutral,5,left,5,ITC_start,352,space,0,0,767,12063,1284958
29,19,female,Belgium,2,77,ITC,neutral,5,left,5,ITC_choice,2210,f,0,0,767,9850,1287171
29,19,female,Belgium,2,77,ITC,neutral,5,left,5,ITC_wait,0,undefined,0,0,767,4837,1292184
29,19,female,Belgium,2,77,ITC,neutral,5,left,5,ITC_collect,370,k,0,0,767,4461,1292560
29,19,female,Belgium,2,77,ITC,neutral,5,left,5,ITC_outcome,0,undefined,0,0,787,3447,1293574
29,19,female,Belgium,2,78,guess,neutral,10,left,1,guess_start,296,space,0,0,787,3148,1293873
29,19,female,Belgium,2,78,guess,neutral,10,left,1,guess_choice,743,j,0,0,787,2400,1294621
29,19,female,Belgium,2,78,guess,neutral,10,left,1,guess_outcome,0,undefined,0,0,787,837,1296184
29,19,female,Belgium,2,78,ITC,neutral,10,left,1,ITC_start,292,space,0,0,787,541,1296480
29,19,female,Belgium,2,78,ITC,neutral,10,left,1,ITC_choice,0,undefined,0,0,787,-12,1297033
29,19,female,Belgium,3,79,guess,loss,10,left,8,guess_start,1165,space,0,0,0,478832,1305791
29,19,female,Belgium,3,79,guess,loss,10,left,8,guess_choice,959,j,0,0,0,477867,1306756
29,19,female,Belgium,3,79,guess,loss,10,left,8,guess_outcome,0,undefined,0,0,-15,476299,1308324
29,19,female,Belgium,3,79,ITC,loss,10,left,8,ITC_start,620,space,0,0,-15,475676,1308947
29,19,female,Belgium,3,79,ITC,loss,10,left,8,ITC_choice,827,f,0,0,-15,474845,1309778
29,19,female,Belgium,3,79,ITC,loss,10,left,8,ITC_wait,0,undefined,0,0,-15,464842,1319781
29,19,female,Belgium,3,79,ITC,loss,10,left,8,ITC_collect,365,k,0,0,-15,464473,1320150
29,19,female,Belgium,3,79,ITC,loss,10,left,8,ITC_outcome,0,undefined,0,0,5,463463,1321160
29,19,female,Belgium,3,80,guess,win,5,right,6,guess_start,388,space,0,0,5,463072,1321551
29,19,female,Belgium,3,80,guess,win,5,right,6,guess_choice,793,f,0,0,5,462273,1322350
29,19,female,Belgium,3,80,guess,win,5,right,6,guess_outcome,0,undefined,0,0,25,460703,1323920
29,19,female,Belgium,3,80,ITC,win,5,right,6,ITC_start,466,space,0,0,25,460234,1324389
29,19,female,Belgium,3,80,ITC,win,5,right,6,ITC_choice,1313,f,0,0,25,458917,1325706
29,19,female,Belgium,3,80,ITC,win,5,right,6,ITC_wait,0,undefined,0,0,25,458911,1325712
29,19,female,Belgium,3,80,ITC,win,5,right,6,ITC_collect,1390,k,0,0,25,457517,1327106
29,19,female,Belgium,3,80,ITC,win,5,right,6,ITC_outcome,0,undefined,0,0,31,456502,1328121
29,19,female,Belgium,3,81,guess,win,5,left,2,guess_start,370,space,0,0,31,456129,1328494
29,19,female,Belgium,3,81,guess,win,5,left,2,guess_choice,772,j,0,0,31,455351,1329272
29,19,female,Belgium,3,81,guess,win,5,left,2,guess_outcome,0,undefined,0,0,51,453793,1330830
29,19,female,Belgium,3,81,ITC,win,5,left,2,ITC_start,412,space,0,0,51,453378,1331245
29,19,female,Belgium,3,81,ITC,win,5,left,2,ITC_choice,979,f,0,0,51,452396,1332227
29,19,female,Belgium,3,81,ITC,win,5,left,2,ITC_wait,0,undefined,0,0,51,447384,1337239
29,19,female,Belgium,3,81,ITC,win,5,left,2,ITC_collect,1097,k,0,0,51,446284,1338339
29,19,female,Belgium,3,81,ITC,win,5,left,2,ITC_outcome,0,undefined,0,0,71,445272,1339351
29,19,female,Belgium,3,82,guess,neutral,5,right,14,guess_start,597,space,0,0,71,444672,1339951
29,19,female,Belgium,3,82,guess,neutral,5,right,14,guess_choice,648,f,0,0,71,444019,1340604
29,19,female,Belgium,3,82,guess,neutral,5,right,14,guess_outcome,0,undefined,0,0,71,442453,1342170
29,19,female,Belgium,3,82,ITC,neutral,5,right,14,ITC_start,653,space,0,0,71,441795,1342828
29,19,female,Belgium,3,82,ITC,neutral,5,right,14,ITC_choice,1358,f,0,0,71,440433,1344190
29,19,female,Belgium,3,82,ITC,neutral,5,right,14,ITC_wait,0,undefined,0,0,71,440427,1344196
29,19,female,Belgium,3,82,ITC,neutral,5,right,14,ITC_collect,1082,k,0,0,71,439338,1345285
29,19,female,Belgium,3,82,ITC,neutral,5,right,14,ITC_outcome,0,undefined,0,0,85,438332,1346291
29,19,female,Belgium,3,83,guess,win,5,left,15,guess_start,414,space,0,0,85,437913,1346710
29,19,female,Belgium,3,83,guess,win,5,left,15,guess_choice,812,j,0,0,85,437097,1347526
29,19,female,Belgium,3,83,guess,win,5,left,15,guess_outcome,0,undefined,0,0,105,435533,1349090
29,19,female,Belgium,3,83,ITC,win,5,left,15,ITC_start,199,space,0,0,105,435331,1349292
29,19,female,Belgium,3,83,ITC,win,5,left,15,ITC_choice,1435,j,0,0,105,433892,1350731
29,19,female,Belgium,3,83,ITC,win,5,left,15,ITC_wait,0,undefined,0,0,105,433886,1350737
29,19,female,Belgium,3,83,ITC,win,5,left,15,ITC_collect,616,k,0,0,105,433264,1351359
29,19,female,Belgium,3,83,ITC,win,5,left,15,ITC_outcome,0,undefined,0,0,120,432253,1352370
29,19,female,Belgium,3,84,guess,loss,5,right,1,guess_start,359,space,0,0,120,431891,1352732
29,19,female,Belgium,3,84,guess,loss,5,right,1,guess_choice,674,f,0,0,120,431212,1353411
29,19,female,Belgium,3,84,guess,loss,5,right,1,guess_outcome,0,undefined,0,0,105,429653,1354970
29,19,female,Belgium,3,84,ITC,loss,5,right,1,ITC_start,359,space,0,0,105,429292,1355331
29,19,female,Belgium,3,84,ITC,loss,5,right,1,ITC_choice,1836,j,0,0,105,427451,1357172
29,19,female,Belgium,3,84,ITC,loss,5,right,1,ITC_wait,0,undefined,0,0,105,422444,1362179
29,19,female,Belgium,3,84,ITC,loss,5,right,1,ITC_collect,450,k,0,0,105,421991,1362632
29,19,female,Belgium,3,84,ITC,loss,5,right,1,ITC_outcome,0,undefined,0,0,125,420972,1363651
29,19,female,Belgium,3,85,guess,neutral,5,left,1,guess_start,328,space,0,0,125,420639,1363984
29,19,female,Belgium,3,85,guess,neutral,5,left,1,guess_choice,1000,j,0,0,125,419630,1364993
29,19,female,Belgium,3,85,guess,neutral,5,left,1,guess_outcome,0,undefined,0,0,125,418063,1366560
29,19,female,Belgium,3,85,ITC,neutral,5,left,1,ITC_start,298,space,0,0,125,417762,1366861
29,19,female,Belgium,3,85,ITC,neutral,5,left,1,ITC_choice,1632,f,0,0,125,416127,1368496
29,19,female,Belgium,3,85,ITC,neutral,5,left,1,ITC_wait,0,undefined,0,0,125,411113,1373510
29,19,female,Belgium,3,85,ITC,neutral,5,left,1,ITC_collect,514,k,0,0,125,410596,1374027
29,19,female,Belgium,3,85,ITC,neutral,5,left,1,ITC_outcome,0,undefined,0,0,145,409583,1375040
29,19,female,Belgium,3,86,guess,loss,5,right,11,guess_start,260,space,0,0,145,409319,1375304
29,19,female,Belgium,3,86,guess,loss,5,right,11,guess_choice,844,f,0,0,145,408469,1376154
29,19,female,Belgium,3,86,guess,loss,5,right,11,guess_outcome,0,undefined,0,0,130,406903,1377720
29,19,female,Belgium,3,86,ITC,loss,5,right,11,ITC_start,322,space,0,0,130,406578,1378045
29,19,female,Belgium,3,86,ITC,loss,5,right,11,ITC_choice,1470,f,0,0,130,405105,1379518
29,19,female,Belgium,3,86,ITC,loss,5,right,11,ITC_wait,0,undefined,0,0,130,405098,1379525
29,19,female,Belgium,3,86,ITC,loss,5,right,11,ITC_collect,945,k,0,0,130,404150,1380473
29,19,female,Belgium,3,86,ITC,loss,5,right,11,ITC_outcome,0,undefined,0,0,141,403133,1381490
29,19,female,Belgium,3,87,guess,win,10,right,2,guess_start,281,space,0,0,141,402846,1381777
29,19,female,Belgium,3,87,guess,win,10,right,2,guess_choice,759,j,0,0,141,402081,1382542
29,19,female,Belgium,3,87,guess,win,10,right,2,guess_outcome,0,undefined,0,0,161,400522,1384101
29,19,female,Belgium,3,87,ITC,win,10,right,2,ITC_start,317,space,0,0,161,400195,1384428
29,19,female,Belgium,3,87,ITC,win,10,right,2,ITC_choice,1353,j,0,0,161,398838,1385785
29,19,female,Belgium,3,87,ITC,win,10,right,2,ITC_wait,0,undefined,0,0,161,388831,1395792
29,19,female,Belgium,3,87,ITC,win,10,right,2,ITC_collect,320,k,0,0,161,388508,1396115
29,19,female,Belgium,3,87,ITC,win,10,right,2,ITC_outcome,0,undefined,0,0,181,387501,1397122
29,19,female,Belgium,3,88,guess,neutral,5,right,16,guess_start,505,space,0,0,181,386992,1397631
29,19,female,Belgium,3,88,guess,neutral,5,right,16,guess_choice,809,j,0,0,181,386177,1398446
29,19,female,Belgium,3,88,guess,neutral,5,right,16,guess_outcome,0,undefined,0,0,181,384609,1400014
29,19,female,Belgium,3,88,ITC,neutral,5,right,16,ITC_start,370,space,0,0,181,384231,1400392
29,19,female,Belgium,3,88,ITC,neutral,5,right,16,ITC_choice,884,f,0,0,181,383343,1401280
29,19,female,Belgium,3,88,ITC,neutral,5,right,16,ITC_wait,0,undefined,0,0,181,383336,1401287
29,19,female,Belgium,3,88,ITC,neutral,5,right,16,ITC_collect,716,k,0,0,181,382616,1402007
29,19,female,Belgium,3,88,ITC,neutral,5,right,16,ITC_outcome,0,undefined,0,0,197,381599,1403024
29,19,female,Belgium,3,89,guess,neutral,5,right,2,guess_start,330,space,0,0,197,381266,1403357
29,19,female,Belgium,3,89,guess,neutral,5,right,2,guess_choice,720,j,0,0,197,380539,1404084
29,19,female,Belgium,3,89,guess,neutral,5,right,2,guess_outcome,0,undefined,0,0,197,378978,1405645
29,19,female,Belgium,3,89,ITC,neutral,5,right,2,ITC_start,239,space,0,0,197,378733,1405890
29,19,female,Belgium,3,89,ITC,neutral,5,right,2,ITC_choice,1525,j,0,0,197,377204,1407419
29,19,female,Belgium,3,89,ITC,neutral,5,right,2,ITC_wait,0,undefined,0,0,197,372191,1412432
29,19,female,Belgium,3,89,ITC,neutral,5,right,2,ITC_collect,245,k,0,0,197,371943,1412680
29,19,female,Belgium,3,89,ITC,neutral,5,right,2,ITC_outcome,0,undefined,0,0,217,370932,1413691
29,19,female,Belgium,3,90,guess,win,5,left,1,guess_start,347,space,0,0,217,370579,1414044
29,19,female,Belgium,3,90,guess,win,5,left,1,guess_choice,888,f,0,0,217,369687,1414936
29,19,female,Belgium,3,90,guess,win,5,left,1,guess_outcome,0,undefined,0,0,237,368130,1416493
29,19,female,Belgium,3,90,ITC,win,5,left,1,ITC_start,216,space,0,0,237,367910,1416713
29,19,female,Belgium,3,90,ITC,win,5,left,1,ITC_choice,1142,f,0,0,237,366764,1417859
29,19,female,Belgium,3,90,ITC,win,5,left,1,ITC_wait,0,undefined,0,0,237,361751,1422872
29,19,female,Belgium,3,90,ITC,win,5,left,1,ITC_collect,887,k,0,0,237,360859,1423764
29,19,female,Belgium,3,90,ITC,win,5,left,1,ITC_outcome,0,undefined,0,0,257,359851,1424772
29,19,female,Belgium,3,91,guess,loss,10,right,1,guess_start,441,space,0,0,257,359407,1425216
29,19,female,Belgium,3,91,guess,loss,10,right,1,guess_choice,1265,j,0,0,257,358136,1426487
29,19,female,Belgium,3,91,guess,loss,10,right,1,guess_outcome,0,undefined,0,0,242,356560,1428063
29,19,female,Belgium,3,91,ITC,loss,10,right,1,ITC_start,487,space,0,0,242,356070,1428553
29,19,female,Belgium,3,91,ITC,loss,10,right,1,ITC_choice,1355,j,0,0,242,354712,1429911
29,19,female,Belgium,3,91,ITC,loss,10,right,1,ITC_wait,0,undefined,0,0,242,344703,1439920
29,19,female,Belgium,3,91,ITC,loss,10,right,1,ITC_collect,307,k,0,0,242,344393,1440230
29,19,female,Belgium,3,91,ITC,loss,10,right,1,ITC_outcome,0,undefined,0,0,262,343387,1441236
29,19,female,Belgium,3,92,guess,loss,5,right,16,guess_start,233,space,0,0,262,343149,1441474
29,19,female,Belgium,3,92,guess,loss,5,right,16,guess_choice,584,f,0,0,262,342555,1442068
29,19,female,Belgium,3,92,guess,loss,5,right,16,guess_outcome,0,undefined,0,0,247,341000,1443623
29,19,female,Belgium,3,92,ITC,loss,5,right,16,ITC_start,235,space,0,0,247,340760,1443863
29,19,female,Belgium,3,92,ITC,loss,5,right,16,ITC_choice,1151,f,0,0,247,339605,1445018
29,19,female,Belgium,3,92,ITC,loss,5,right,16,ITC_wait,0,undefined,0,0,247,339601,1445022
29,19,female,Belgium,3,92,ITC,loss,5,right,16,ITC_collect,630,k,0,0,247,338965,1445658
29,19,female,Belgium,3,92,ITC,loss,5,right,16,ITC_outcome,0,undefined,0,0,263,337950,1446673
29,19,female,Belgium,3,93,guess,win,5,left,12,guess_start,470,space,0,0,263,337476,1447147
29,19,female,Belgium,3,93,guess,win,5,left,12,guess_choice,871,f,0,0,263,336600,1448023
29,19,female,Belgium,3,93,guess,win,5,left,12,guess_outcome,0,undefined,0,0,283,335035,1449588
29,19,female,Belgium,3,93,ITC,win,5,left,12,ITC_start,576,space,0,0,283,334455,1450168
29,19,female,Belgium,3,93,ITC,win,5,left,12,ITC_choice,1624,j,0,0,283,332829,1451794
29,19,female,Belgium,3,93,ITC,win,5,left,12,ITC_wait,0,undefined,0,0,283,332822,1451801
29,19,female,Belgium,3,93,ITC,win,5,left,12,ITC_collect,398,k,0,0,283,332419,1452204
29,19,female,Belgium,3,93,ITC,win,5,left,12,ITC_outcome,0,undefined,0,0,295,331409,1453214
29,19,female,Belgium,3,94,guess,win,5,left,7,guess_start,358,space,0,0,295,331045,1453578
29,19,female,Belgium,3,94,guess,win,5,left,7,guess_choice,968,j,0,0,295,330069,1454554
29,19,female,Belgium,3,94,guess,win,5,left,7,guess_outcome,0,undefined,0,0,315,328511,1456112
29,19,female,Belgium,3,94,ITC,win,5,left,7,ITC_start,424,space,0,0,315,328084,1456539
29,19,female,Belgium,3,94,ITC,win,5,left,7,ITC_choice,888,f,0,0,315,327189,1457434
29,19,female,Belgium,3,94,ITC,win,5,left,7,ITC_wait,0,undefined,0,0,315,322182,1462441
29,19,female,Belgium,3,94,ITC,win,5,left,7,ITC_collect,851,k,0,0,315,321324,1463299
29,19,female,Belgium,3,94,ITC,win,5,left,7,ITC_outcome,0,undefined,0,0,335,320312,1464311
29,19,female,Belgium,3,95,guess,loss,10,right,5,guess_start,241,space,0,0,335,320066,1464557
29,19,female,Belgium,3,95,guess,loss,10,right,5,guess_choice,942,f,0,0,335,319121,1465502
29,19,female,Belgium,3,95,guess,loss,10,right,5,guess_outcome,0,undefined,0,0,320,317556,1467067
29,19,female,Belgium,3,95,ITC,loss,10,right,5,ITC_start,361,space,0,0,320,317191,1467432
29,19,female,Belgium,3,95,ITC,loss,10,right,5,ITC_choice,1217,j,0,0,320,315971,1468652
29,19,female,Belgium,3,95,ITC,loss,10,right,5,ITC_wait,0,undefined,0,0,320,305956,1478667
29,19,female,Belgium,3,95,ITC,loss,10,right,5,ITC_collect,637,k,0,0,320,305313,1479310
29,19,female,Belgium,3,95,ITC,loss,10,right,5,ITC_outcome,0,undefined,0,0,340,304308,1480315
29,19,female,Belgium,3,96,guess,neutral,5,left,9,guess_start,1023,space,0,0,340,303281,1481342
29,19,female,Belgium,3,96,guess,neutral,5,left,9,guess_choice,785,f,0,0,340,302490,1482133
29,19,female,Belgium,3,96,guess,neutral,5,left,9,guess_outcome,0,undefined,0,0,340,300924,1483699
29,19,female,Belgium,3,96,ITC,neutral,5,left,9,ITC_start,348,space,0,0,340,300566,1484057
29,19,female,Belgium,3,96,ITC,neutral,5,left,9,ITC_choice,1122,f,0,0,340,299437,1485186
29,19,female,Belgium,3,96,ITC,neutral,5,left,9,ITC_wait,0,undefined,0,0,340,294418,1490205
29,19,female,Belgium,3,96,ITC,neutral,5,left,9,ITC_collect,859,k,0,0,340,293555,1491068
29,19,female,Belgium,3,96,ITC,neutral,5,left,9,ITC_outcome,0,undefined,0,0,360,292546,1492077
29,19,female,Belgium,3,97,guess,loss,5,right,5,guess_start,305,space,0,0,360,292235,1492388
29,19,female,Belgium,3,97,guess,loss,5,right,5,guess_choice,843,j,0,0,360,291387,1493236
29,19,female,Belgium,3,97,guess,loss,5,right,5,guess_outcome,0,undefined,0,0,345,289827,1494796
29,19,female,Belgium,3,97,ITC,loss,5,right,5,ITC_start,333,space,0,0,345,289491,1495132
29,19,female,Belgium,3,97,ITC,loss,5,right,5,ITC_choice,937,j,0,0,345,288549,1496074
29,19,female,Belgium,3,97,ITC,loss,5,right,5,ITC_wait,0,undefined,0,0,345,283538,1501085
29,19,female,Belgium,3,97,ITC,loss,5,right,5,ITC_collect,697,k,0,0,345,282834,1501789
29,19,female,Belgium,3,97,ITC,loss,5,right,5,ITC_outcome,0,undefined,0,0,365,281817,1502806
29,19,female,Belgium,3,98,guess,neutral,5,left,11,guess_start,435,space,0,0,365,281373,1503250
29,19,female,Belgium,3,98,guess,neutral,5,left,11,guess_choice,684,f,0,0,365,280683,1503940
29,19,female,Belgium,3,98,guess,neutral,5,left,11,guess_outcome,0,undefined,0,0,365,279125,1505498
29,19,female,Belgium,3,98,ITC,neutral,5,left,11,ITC_start,538,space,0,0,365,278582,1506041
29,19,female,Belgium,3,98,ITC,neutral,5,left,11,ITC_choice,1155,j,0,0,365,277423,1507200
29,19,female,Belgium,3,98,ITC,neutral,5,left,11,ITC_wait,0,undefined,0,0,365,277416,1507207
29,19,female,Belgium,3,98,ITC,neutral,5,left,11,ITC_collect,468,k,0,0,365,276945,1507678
29,19,female,Belgium,3,98,ITC,neutral,5,left,11,ITC_outcome,0,undefined,0,0,376,275934,1508689
29,19,female,Belgium,3,99,guess,win,5,right,3,guess_start,294,space,0,0,376,275636,1508987
29,19,female,Belgium,3,99,guess,win,5,right,3,guess_choice,748,f,0,0,376,274882,1509741
29,19,female,Belgium,3,99,guess,win,5,right,3,guess_outcome,0,undefined,0,0,396,273325,1511298
29,19,female,Belgium,3,99,ITC,win,5,right,3,ITC_start,496,space,0,0,396,272825,1511798
29,19,female,Belgium,3,99,ITC,win,5,right,3,ITC_choice,1348,j,0,0,396,271473,1513150
29,19,female,Belgium,3,99,ITC,win,5,right,3,ITC_wait,0,undefined,0,0,396,266465,1518158
29,19,female,Belgium,3,99,ITC,win,5,right,3,ITC_collect,473,k,0,0,396,265986,1518637
29,19,female,Belgium,3,99,ITC,win,5,right,3,ITC_outcome,0,undefined,0,0,416,264973,1519650
29,19,female,Belgium,3,100,guess,loss,5,right,15,guess_start,238,space,0,0,416,264730,1519893
29,19,female,Belgium,3,100,guess,loss,5,right,15,guess_choice,934,j,0,0,416,263790,1520833
29,19,female,Belgium,3,100,guess,loss,5,right,15,guess_outcome,0,undefined,0,0,401,262233,1522390
29,19,female,Belgium,3,100,ITC,loss,5,right,15,ITC_start,582,space,0,0,401,261645,1522978
29,19,female,Belgium,3,100,ITC,loss,5,right,15,ITC_choice,861,f,0,0,401,260779,1523844
29,19,female,Belgium,3,100,ITC,loss,5,right,15,ITC_wait,0,undefined,0,0,401,260771,1523852
29,19,female,Belgium,3,100,ITC,loss,5,right,15,ITC_collect,688,k,0,0,401,260080,1524543
29,19,female,Belgium,3,100,ITC,loss,5,right,15,ITC_outcome,0,undefined,0,0,416,259065,1525558
29,19,female,Belgium,3,101,guess,win,10,right,6,guess_start,289,space,0,0,416,258771,1525852
29,19,female,Belgium,3,101,guess,win,10,right,6,guess_choice,1069,j,0,0,416,257693,1526930
29,19,female,Belgium,3,101,guess,win,10,right,6,guess_outcome,0,undefined,0,0,436,256134,1528489
29,19,female,Belgium,3,101,ITC,win,10,right,6,ITC_start,816,space,0,0,436,255315,1529308
29,19,female,Belgium,3,101,ITC,win,10,right,6,ITC_choice,1258,j,0,0,436,254053,1530570
29,19,female,Belgium,3,101,ITC,win,10,right,6,ITC_wait,0,undefined,0,0,436,244041,1540582
29,19,female,Belgium,3,101,ITC,win,10,right,6,ITC_collect,718,k,0,0,436,243321,1541302
29,19,female,Belgium,3,101,ITC,win,10,right,6,ITC_outcome,0,undefined,0,0,456,242314,1542309
29,19,female,Belgium,3,102,guess,neutral,5,right,10,guess_start,345,space,0,0,456,241963,1542660
29,19,female,Belgium,3,102,guess,neutral,5,right,10,guess_choice,894,j,0,0,456,241062,1543561
29,19,female,Belgium,3,102,guess,neutral,5,right,10,guess_outcome,0,undefined,0,0,456,239500,1545123
29,19,female,Belgium,3,102,ITC,neutral,5,right,10,ITC_start,550,space,0,0,456,238946,1545677
29,19,female,Belgium,3,102,ITC,neutral,5,right,10,ITC_wait,0,undefined,0,0,456,237155,1547468
29,19,female,Belgium,3,102,ITC,neutral,5,right,10,ITC_choice,1780,f,0,0,456,237162,1547461
29,19,female,Belgium,3,102,ITC,neutral,5,right,10,ITC_collect,415,k,0,0,456,236736,1547887
29,19,female,Belgium,3,102,ITC,neutral,5,right,10,ITC_outcome,0,undefined,0,0,466,235730,1548893
29,19,female,Belgium,3,103,guess,loss,5,left,2,guess_start,233,space,0,0,466,235491,1549132
29,19,female,Belgium,3,103,guess,loss,5,left,2,guess_choice,725,f,0,0,466,234756,1549867
29,19,female,Belgium,3,103,guess,loss,5,left,2,guess_outcome,0,undefined,0,0,451,233200,1551423
29,19,female,Belgium,3,103,ITC,loss,5,left,2,ITC_start,833,space,0,0,451,232362,1552261
29,19,female,Belgium,3,103,ITC,loss,5,left,2,ITC_choice,1524,f,0,0,451,230833,1553790
29,19,female,Belgium,3,103,ITC,loss,5,left,2,ITC_wait,0,undefined,0,0,451,225820,1558803
29,19,female,Belgium,3,103,ITC,loss,5,left,2,ITC_collect,388,k,0,0,451,225427,1559196
29,19,female,Belgium,3,103,ITC,loss,5,left,2,ITC_outcome,0,undefined,0,0,471,224420,1560203
29,19,female,Belgium,3,104,guess,neutral,5,right,4,guess_start,55,space,0,0,471,224359,1560264
29,19,female,Belgium,3,104,guess,neutral,5,right,4,guess_choice,708,f,0,0,471,223646,1560977
29,19,female,Belgium,3,104,guess,neutral,5,right,4,guess_outcome,0,undefined,0,0,471,222079,1562544
29,19,female,Belgium,3,104,ITC,neutral,5,right,4,ITC_start,255,space,0,0,471,221820,1562803
29,19,female,Belgium,3,104,ITC,neutral,5,right,4,ITC_choice,1224,j,0,0,471,220594,1564029
29,19,female,Belgium,3,104,ITC,neutral,5,right,4,ITC_wait,0,undefined,0,0,471,215580,1569043
29,19,female,Belgium,3,104,ITC,neutral,5,right,4,ITC_collect,328,k,0,0,471,215248,1569375
29,19,female,Belgium,3,104,ITC,neutral,5,right,4,ITC_outcome,0,undefined,0,0,491,214229,1570394
29,19,female,Belgium,3,105,guess,loss,5,right,6,guess_start,256,space,0,0,491,213969,1570654
29,19,female,Belgium,3,105,guess,loss,5,right,6,guess_choice,1594,f,0,0,491,212369,1572254
29,19,female,Belgium,3,105,guess,loss,5,right,6,guess_outcome,0,undefined,0,0,476,210806,1573817
29,19,female,Belgium,3,105,ITC,loss,5,right,6,ITC_start,456,space,0,0,476,210345,1574278
29,19,female,Belgium,3,105,ITC,loss,5,right,6,ITC_choice,1185,j,0,0,476,209157,1575466
29,19,female,Belgium,3,105,ITC,loss,5,right,6,ITC_wait,0,undefined,0,0,476,204152,1580471
29,19,female,Belgium,3,105,ITC,loss,5,right,6,ITC_collect,282,k,0,0,476,203865,1580758
29,19,female,Belgium,3,105,ITC,loss,5,right,6,ITC_outcome,0,undefined,0,0,496,202850,1581773
29,19,female,Belgium,3,106,guess,neutral,5,right,6,guess_start,17,space,0,0,496,202828,1581795
29,19,female,Belgium,3,106,guess,neutral,5,right,6,guess_choice,736,f,0,0,496,202086,1582537
29,19,female,Belgium,3,106,guess,neutral,5,right,6,guess_outcome,0,undefined,0,0,496,200530,1584093
29,19,female,Belgium,3,106,ITC,neutral,5,right,6,ITC_start,618,space,0,0,496,199908,1584715
29,19,female,Belgium,3,106,ITC,neutral,5,right,6,ITC_choice,1093,j,0,0,496,198812,1585811
29,19,female,Belgium,3,106,ITC,neutral,5,right,6,ITC_wait,0,undefined,0,0,496,193800,1590823
29,19,female,Belgium,3,106,ITC,neutral,5,right,6,ITC_collect,355,k,0,0,496,193442,1591181
29,19,female,Belgium,3,106,ITC,neutral,5,right,6,ITC_outcome,0,undefined,0,0,516,192422,1592201
29,19,female,Belgium,3,107,guess,win,10,left,5,guess_start,318,space,0,0,516,192099,1592524
29,19,female,Belgium,3,107,guess,win,10,left,5,guess_choice,1050,j,0,0,516,191043,1593580
29,19,female,Belgium,3,107,guess,win,10,left,5,guess_outcome,0,undefined,0,0,536,189471,1595152
29,19,female,Belgium,3,107,ITC,win,10,left,5,ITC_start,453,space,0,0,536,189013,1595610
29,19,female,Belgium,3,107,ITC,win,10,left,5,ITC_choice,2014,f,0,0,536,186995,1597628
29,19,female,Belgium,3,107,ITC,win,10,left,5,ITC_wait,0,undefined,0,0,536,176985,1607638
29,19,female,Belgium,3,107,ITC,win,10,left,5,ITC_collect,316,k,0,0,536,176662,1607961
29,19,female,Belgium,3,107,ITC,win,10,left,5,ITC_outcome,0,undefined,0,0,556,175640,1608983
29,19,female,Belgium,3,108,guess,neutral,5,left,13,guess_start,276,space,0,0,556,175359,1609264
29,19,female,Belgium,3,108,guess,neutral,5,left,13,guess_choice,802,j,0,0,556,174552,1610071
29,19,female,Belgium,3,108,guess,neutral,5,left,13,guess_outcome,0,undefined,0,0,556,172990,1611633
29,19,female,Belgium,3,108,ITC,neutral,5,left,13,ITC_start,343,space,0,0,556,172642,1611981
29,19,female,Belgium,3,108,ITC,neutral,5,left,13,ITC_choice,1775,j,0,0,556,170864,1613759
29,19,female,Belgium,3,108,ITC,neutral,5,left,13,ITC_wait,0,undefined,0,0,556,170854,1613769
29,19,female,Belgium,3,108,ITC,neutral,5,left,13,ITC_collect,316,k,0,0,556,170534,1614089
29,19,female,Belgium,3,108,ITC,neutral,5,left,13,ITC_outcome,0,undefined,0,0,569,169523,1615100
29,19,female,Belgium,3,109,guess,neutral,5,right,12,guess_start,290,space,0,0,569,169228,1615395
29,19,female,Belgium,3,109,guess,neutral,5,right,12,guess_choice,626,f,0,0,569,168597,1616026
29,19,female,Belgium,3,109,guess,neutral,5,right,12,guess_outcome,0,undefined,0,0,569,167038,1617585
29,19,female,Belgium,3,109,ITC,neutral,5,right,12,ITC_start,237,space,0,0,569,166798,1617825
29,19,female,Belgium,3,109,ITC,neutral,5,right,12,ITC_choice,986,f,0,0,569,165805,1618818
29,19,female,Belgium,3,109,ITC,neutral,5,right,12,ITC_wait,0,undefined,0,0,569,165798,1618825
29,19,female,Belgium,3,109,ITC,neutral,5,right,12,ITC_collect,854,k,0,0,569,164940,1619683
29,19,female,Belgium,3,109,ITC,neutral,5,right,12,ITC_outcome,0,undefined,0,0,581,163925,1620698
29,19,female,Belgium,3,110,guess,loss,5,right,7,guess_start,161,space,0,0,581,163760,1620863
29,19,female,Belgium,3,110,guess,loss,5,right,7,guess_choice,787,j,0,0,581,162967,1621656
29,19,female,Belgium,3,110,guess,loss,5,right,7,guess_outcome,0,undefined,0,0,566,161409,1623214
29,19,female,Belgium,3,110,ITC,loss,5,right,7,ITC_start,556,space,0,0,566,160849,1623774
29,19,female,Belgium,3,110,ITC,loss,5,right,7,ITC_choice,1342,j,0,0,566,159501,1625122
29,19,female,Belgium,3,110,ITC,loss,5,right,7,ITC_wait,0,undefined,0,0,566,154489,1630134
29,19,female,Belgium,3,110,ITC,loss,5,right,7,ITC_collect,682,k,0,0,566,153804,1630819
29,19,female,Belgium,3,110,ITC,loss,5,right,7,ITC_outcome,0,undefined,0,0,586,152798,1631825
29,19,female,Belgium,3,111,guess,loss,5,right,12,guess_start,208,space,0,0,586,152586,1632037
29,19,female,Belgium,3,111,guess,loss,5,right,12,guess_choice,727,f,0,0,586,151853,1632770
29,19,female,Belgium,3,111,guess,loss,5,right,12,guess_outcome,0,undefined,0,0,571,150289,1634334
29,19,female,Belgium,3,111,ITC,loss,5,right,12,ITC_start,367,space,0,0,571,149918,1634705
29,19,female,Belgium,3,111,ITC,loss,5,right,12,ITC_choice,1317,f,0,0,571,148597,1636026
29,19,female,Belgium,3,111,ITC,loss,5,right,12,ITC_wait,0,undefined,0,0,571,148590,1636033
29,19,female,Belgium,3,111,ITC,loss,5,right,12,ITC_collect,291,k,0,0,571,148294,1636329
29,19,female,Belgium,3,111,ITC,loss,5,right,12,ITC_outcome,0,undefined,0,0,583,147282,1637341
29,19,female,Belgium,3,112,guess,loss,5,left,8,guess_start,266,space,0,0,583,147013,1637610
29,19,female,Belgium,3,112,guess,loss,5,left,8,guess_choice,934,j,0,0,583,146073,1638550
29,19,female,Belgium,3,112,guess,loss,5,left,8,guess_outcome,0,undefined,0,0,568,144500,1640123
29,19,female,Belgium,3,112,ITC,loss,5,left,8,ITC_start,354,space,0,0,568,144143,1640480
29,19,female,Belgium,3,112,ITC,loss,5,left,8,ITC_choice,1105,f,0,0,568,143031,1641592
29,19,female,Belgium,3,112,ITC,loss,5,left,8,ITC_wait,0,undefined,0,0,568,138022,1646601
29,19,female,Belgium,3,112,ITC,loss,5,left,8,ITC_collect,662,k,0,0,568,137358,1647265
29,19,female,Belgium,3,112,ITC,loss,5,left,8,ITC_outcome,0,undefined,0,0,588,136348,1648275
29,19,female,Belgium,3,113,guess,win,5,right,8,guess_start,28,space,0,0,588,136315,1648308
29,19,female,Belgium,3,113,guess,win,5,right,8,guess_choice,603,f,0,0,588,135706,1648917
29,19,female,Belgium,3,113,guess,win,5,right,8,guess_outcome,0,undefined,0,0,608,134146,1650477
29,19,female,Belgium,3,113,ITC,win,5,right,8,ITC_start,314,space,0,0,608,133828,1650795
29,19,female,Belgium,3,113,ITC,win,5,right,8,ITC_choice,1489,j,0,0,608,132332,1652291
29,19,female,Belgium,3,113,ITC,win,5,right,8,ITC_wait,0,undefined,0,0,608,127322,1657301
29,19,female,Belgium,3,113,ITC,win,5,right,8,ITC_collect,631,k,0,0,608,126685,1657938
29,19,female,Belgium,3,113,ITC,win,5,right,8,ITC_outcome,0,undefined,0,0,628,125666,1658957
29,19,female,Belgium,3,114,guess,neutral,10,left,8,guess_start,105,space,0,0,628,125555,1659068
29,19,female,Belgium,3,114,guess,neutral,10,left,8,guess_choice,730,j,0,0,628,124820,1659803
29,19,female,Belgium,3,114,guess,neutral,10,left,8,guess_outcome,0,undefined,0,0,628,123259,1661364
29,19,female,Belgium,3,114,ITC,neutral,10,left,8,ITC_start,434,space,0,0,628,122822,1661801
29,19,female,Belgium,3,114,ITC,neutral,10,left,8,ITC_choice,1093,f,0,0,628,121724,1662899
29,19,female,Belgium,3,114,ITC,neutral,10,left,8,ITC_wait,0,undefined,0,0,628,111714,1672909
29,19,female,Belgium,3,114,ITC,neutral,10,left,8,ITC_collect,395,k,0,0,628,111313,1673310
29,19,female,Belgium,3,114,ITC,neutral,10,left,8,ITC_outcome,0,undefined,0,0,648,110302,1674321
29,19,female,Belgium,3,115,guess,loss,5,left,3,guess_start,324,space,0,0,648,109975,1674648
29,19,female,Belgium,3,115,guess,loss,5,left,3,guess_choice,824,j,0,0,648,109144,1675479
29,19,female,Belgium,3,115,guess,loss,5,left,3,guess_outcome,0,undefined,0,0,633,107573,1677050
29,19,female,Belgium,3,115,ITC,loss,5,left,3,ITC_start,317,space,0,0,633,107250,1677373
29,19,female,Belgium,3,115,ITC,loss,5,left,3,ITC_choice,1026,f,0,0,633,106221,1678402
29,19,female,Belgium,3,115,ITC,loss,5,left,3,ITC_wait,0,undefined,0,0,633,101213,1683410
29,19,female,Belgium,3,115,ITC,loss,5,left,3,ITC_collect,284,k,0,0,633,100925,1683698
29,19,female,Belgium,3,115,ITC,loss,5,left,3,ITC_outcome,0,undefined,0,0,653,99912,1684711
29,19,female,Belgium,3,116,guess,win,10,left,8,guess_start,349,space,0,0,653,99559,1685064
29,19,female,Belgium,3,116,guess,win,10,left,8,guess_choice,544,f,0,0,653,99010,1685613
29,19,female,Belgium,3,116,guess,win,10,left,8,guess_outcome,0,undefined,0,0,673,97433,1687190
29,19,female,Belgium,3,116,ITC,win,10,left,8,ITC_start,1573,space,0,0,673,95855,1688768
29,19,female,Belgium,3,116,ITC,win,10,left,8,ITC_choice,987,f,0,0,673,94864,1689759
29,19,female,Belgium,3,116,ITC,win,10,left,8,ITC_wait,0,undefined,0,0,673,84858,1699765
29,19,female,Belgium,3,116,ITC,win,10,left,8,ITC_collect,109,k,0,0,673,84746,1699877
29,19,female,Belgium,3,116,ITC,win,10,left,8,ITC_outcome,0,undefined,0,0,693,83738,1700885
29,19,female,Belgium,3,117,guess,win,5,right,11,guess_start,324,space,0,0,693,83410,1701213
29,19,female,Belgium,3,117,guess,win,5,right,11,guess_choice,729,j,0,0,693,82676,1701947
29,19,female,Belgium,3,117,guess,win,5,right,11,guess_outcome,0,undefined,0,0,713,81118,1703505
29,19,female,Belgium,3,117,ITC,win,5,right,11,ITC_start,431,space,0,0,713,80684,1703939
29,19,female,Belgium,3,117,ITC,win,5,right,11,ITC_choice,1087,f,0,0,713,79593,1705030
29,19,female,Belgium,3,117,ITC,win,5,right,11,ITC_wait,0,undefined,0,0,713,79586,1705037
29,19,female,Belgium,3,117,ITC,win,5,right,11,ITC_collect,721,k,0,0,713,78855,1705768
29,19,female,Belgium,3,117,ITC,win,5,right,11,ITC_outcome,0,undefined,0,0,724,77841,1706782
29,19,female,Belgium,3,118,guess,win,5,left,4,guess_start,293,space,0,0,724,77544,1707079
29,19,female,Belgium,3,118,guess,win,5,left,4,guess_choice,661,f,0,0,724,76878,1707745
29,19,female,Belgium,3,118,guess,win,5,left,4,guess_outcome,0,undefined,0,0,744,75321,1709302
29,19,female,Belgium,3,118,ITC,win,5,left,4,ITC_start,156,space,0,0,744,75162,1709461
29,19,female,Belgium,3,118,ITC,win,5,left,4,ITC_choice,1571,f,0,0,744,73587,1711036
29,19,female,Belgium,3,118,ITC,win,5,left,4,ITC_wait,0,undefined,0,0,744,68581,1716042
29,19,female,Belgium,3,118,ITC,win,5,left,4,ITC_collect,249,k,0,0,744,68329,1716294
29,19,female,Belgium,3,118,ITC,win,5,left,4,ITC_outcome,0,undefined,0,0,764,67311,1717312
29,19,female,Belgium,3,119,guess,loss,5,left,14,guess_start,235,space,0,0,764,67072,1717551
29,19,female,Belgium,3,119,guess,loss,5,left,14,guess_choice,789,j,0,0,764,66278,1718345
29,19,female,Belgium,3,119,guess,loss,5,left,14,guess_outcome,0,undefined,0,0,749,64699,1719924
29,19,female,Belgium,3,119,ITC,loss,5,left,14,ITC_start,451,space,0,0,749,64237,1720386
29,19,female,Belgium,3,119,ITC,loss,5,left,14,ITC_choice,989,j,0,0,749,63244,1721379
29,19,female,Belgium,3,119,ITC,loss,5,left,14,ITC_wait,0,undefined,0,0,749,63237,1721386
29,19,female,Belgium,3,119,ITC,loss,5,left,14,ITC_collect,289,k,0,0,749,62943,1721680
29,19,female,Belgium,3,119,ITC,loss,5,left,14,ITC_outcome,0,undefined,0,0,763,61930,1722693
29,19,female,Belgium,3,120,guess,loss,10,left,2,guess_start,236,space,0,0,763,61690,1722933
29,19,female,Belgium,3,120,guess,loss,10,left,2,guess_choice,600,f,0,0,763,61085,1723538
29,19,female,Belgium,3,120,guess,loss,10,left,2,guess_outcome,0,undefined,0,0,748,59521,1725102
29,19,female,Belgium,3,120,ITC,loss,10,left,2,ITC_start,566,space,0,0,748,58952,1725671
29,19,female,Belgium,3,120,ITC,loss,10,left,2,ITC_choice,685,f,0,0,748,58263,1726360
29,19,female,Belgium,3,120,ITC,loss,10,left,2,ITC_wait,0,undefined,0,0,748,48256,1736367
29,19,female,Belgium,3,120,ITC,loss,10,left,2,ITC_collect,346,k,0,0,748,47905,1736718
29,19,female,Belgium,3,120,ITC,loss,10,left,2,ITC_outcome,0,undefined,0,0,768,46894,1737729
29,19,female,Belgium,3,121,guess,win,10,left,7,guess_start,235,space,0,0,768,46653,1737970
29,19,female,Belgium,3,121,guess,win,10,left,7,guess_choice,575,j,0,0,768,46071,1738552
29,19,female,Belgium,3,121,guess,win,10,left,7,guess_outcome,0,undefined,0,0,788,44513,1740110
29,19,female,Belgium,3,121,ITC,win,10,left,7,ITC_start,452,space,0,0,788,44058,1740565
29,19,female,Belgium,3,121,ITC,win,10,left,7,ITC_choice,755,f,0,0,788,43299,1741324
29,19,female,Belgium,3,121,ITC,win,10,left,7,ITC_wait,0,undefined,0,0,788,33290,1751333
29,19,female,Belgium,3,121,ITC,win,10,left,7,ITC_collect,288,k,0,0,788,32999,1751624
29,19,female,Belgium,3,121,ITC,win,10,left,7,ITC_outcome,0,undefined,0,0,808,31991,1752632
29,19,female,Belgium,3,122,guess,win,10,right,3,guess_start,320,space,0,0,808,31667,1752956
29,19,female,Belgium,3,122,guess,win,10,right,3,guess_choice,670,j,0,0,808,30992,1753631
29,19,female,Belgium,3,122,guess,win,10,right,3,guess_outcome,0,undefined,0,0,828,29431,1755192
29,19,female,Belgium,3,122,ITC,win,10,right,3,ITC_start,545,space,0,0,828,28882,1755741
29,19,female,Belgium,3,122,ITC,win,10,right,3,ITC_choice,1300,j,0,0,828,27578,1757045
29,19,female,Belgium,3,122,ITC,win,10,right,3,ITC_wait,0,undefined,0,0,828,17574,1767049
29,19,female,Belgium,3,122,ITC,win,10,right,3,ITC_collect,681,k,0,0,828,16889,1767734
29,19,female,Belgium,3,122,ITC,win,10,right,3,ITC_outcome,0,undefined,0,0,848,15880,1768743
29,19,female,Belgium,3,123,guess,neutral,5,left,8,guess_start,332,space,0,0,848,15541,1769082
29,19,female,Belgium,3,123,guess,neutral,5,left,8,guess_choice,570,f,0,0,848,14965,1769658
29,19,female,Belgium,3,123,guess,neutral,5,left,8,guess_outcome,0,undefined,0,0,848,13400,1771223
29,19,female,Belgium,3,123,ITC,neutral,5,left,8,ITC_start,485,space,0,0,848,12909,1771714
29,19,female,Belgium,3,123,ITC,neutral,5,left,8,ITC_choice,1738,j,0,0,848,11166,1773457
29,19,female,Belgium,3,123,ITC,neutral,5,left,8,ITC_wait,0,undefined,0,0,848,11157,1773466
29,19,female,Belgium,3,123,ITC,neutral,5,left,8,ITC_collect,346,k,0,0,848,10807,1773816
29,19,female,Belgium,3,123,ITC,neutral,5,left,8,ITC_outcome,0,undefined,0,0,856,9791,1774832
29,19,female,Belgium,3,124,guess,win,5,right,5,guess_start,273,space,0,0,856,9513,1775110
29,19,female,Belgium,3,124,guess,win,5,right,5,guess_choice,583,j,0,0,856,8924,1775699
29,19,female,Belgium,3,124,guess,win,5,right,5,guess_outcome,0,undefined,0,0,876,7361,1777262
29,19,female,Belgium,3,124,ITC,win,5,right,5,ITC_start,373,space,0,0,876,6985,1777638
29,19,female,Belgium,3,124,ITC,win,5,right,5,ITC_choice,1442,j,0,0,876,5538,1779085
29,19,female,Belgium,3,124,ITC,win,5,right,5,ITC_wait,0,undefined,0,0,876,523,1784100
29,19,female,Belgium,3,124,ITC,win,5,right,5,ITC_collect,313,k,0,0,876,206,1784417
29,19,female,Belgium,3,124,ITC,win,5,right,5,ITC_outcome,0,undefined,0,0,896,-11,1784634
29,19,female,Belgium,4,125,guess,win,10,right,4,guess_start,817,space,0,0,0,479181,1793752
29,19,female,Belgium,4,125,guess,win,10,right,4,guess_choice,696,j,0,0,0,478480,1794453
29,19,female,Belgium,4,125,guess,win,10,right,4,guess_outcome,0,undefined,0,0,20,476920,1796013
29,19,female,Belgium,4,125,ITC,win,10,right,4,ITC_start,458,space,0,0,20,476459,1796474
29,19,female,Belgium,4,125,ITC,win,10,right,4,ITC_choice,1184,j,0,0,20,475271,1797662
29,19,female,Belgium,4,125,ITC,win,10,right,4,ITC_wait,0,undefined,0,0,20,465266,1807667
29,19,female,Belgium,4,125,ITC,win,10,right,4,ITC_collect,332,k,0,0,20,464927,1808006
29,19,female,Belgium,4,125,ITC,win,10,right,4,ITC_outcome,0,undefined,0,0,40,463919,1809014
29,19,female,Belgium,4,126,guess,neutral,5,left,3,guess_start,265,space,0,0,40,463650,1809283
29,19,female,Belgium,4,126,guess,neutral,5,left,3,guess_choice,750,j,0,0,40,462894,1810039
29,19,female,Belgium,4,126,guess,neutral,5,left,3,guess_outcome,0,undefined,0,0,40,461330,1811603
29,19,female,Belgium,4,126,ITC,neutral,5,left,3,ITC_start,329,space,0,0,40,460998,1811935
29,19,female,Belgium,4,126,ITC,neutral,5,left,3,ITC_choice,1214,f,0,0,40,459781,1813152
29,19,female,Belgium,4,126,ITC,neutral,5,left,3,ITC_wait,0,undefined,0,0,40,454771,1818162
29,19,female,Belgium,4,126,ITC,neutral,5,left,3,ITC_collect,300,k,0,0,40,454467,1818466
29,19,female,Belgium,4,126,ITC,neutral,5,left,3,ITC_outcome,0,undefined,0,0,60,453458,1819475
29,19,female,Belgium,4,127,guess,neutral,5,right,15,guess_start,284,space,0,0,60,453168,1819765
29,19,female,Belgium,4,127,guess,neutral,5,right,15,guess_choice,574,j,0,0,60,452588,1820345
29,19,female,Belgium,4,127,guess,neutral,5,right,15,guess_outcome,0,undefined,0,0,60,451031,1821902
29,19,female,Belgium,4,127,ITC,neutral,5,right,15,ITC_start,307,space,0,0,60,450721,1822212
29,19,female,Belgium,4,127,ITC,neutral,5,right,15,ITC_choice,1285,f,0,0,60,449433,1823500
29,19,female,Belgium,4,127,ITC,neutral,5,right,15,ITC_wait,0,undefined,0,0,60,449424,1823509
29,19,female,Belgium,4,127,ITC,neutral,5,right,15,ITC_collect,522,k,0,0,60,448895,1824038
29,19,female,Belgium,4,127,ITC,neutral,5,right,15,ITC_outcome,0,undefined,0,0,75,447880,1825053
29,19,female,Belgium,4,128,guess,win,10,left,1,guess_start,348,space,0,0,75,447527,1825406
29,19,female,Belgium,4,128,guess,win,10,left,1,guess_choice,653,j,0,0,75,446866,1826067
29,19,female,Belgium,4,128,guess,win,10,left,1,guess_outcome,0,undefined,0,0,95,445300,1827633
29,19,female,Belgium,4,128,ITC,win,10,left,1,ITC_start,503,space,0,0,95,444792,1828141
29,19,female,Belgium,4,128,ITC,win,10,left,1,ITC_choice,961,f,0,0,95,443827,1829106
29,19,female,Belgium,4,128,ITC,win,10,left,1,ITC_wait,0,undefined,0,0,95,433811,1839122
29,19,female,Belgium,4,128,ITC,win,10,left,1,ITC_collect,407,k,0,0,95,433397,1839536
29,19,female,Belgium,4,129,guess,win,5,right,16,guess_start,307,space,0,0,115,432081,1840852
29,19,female,Belgium,4,128,ITC,win,10,left,1,ITC_outcome,0,undefined,0,0,115,432391,1840542
29,19,female,Belgium,4,129,guess,win,5,right,16,guess_choice,660,f,0,0,115,431414,1841519
29,19,female,Belgium,4,129,guess,win,5,right,16,guess_outcome,0,undefined,0,0,135,429842,1843091
29,19,female,Belgium,4,129,ITC,win,5,right,16,ITC_start,564,space,0,0,135,429275,1843658
29,19,female,Belgium,4,129,ITC,win,5,right,16,ITC_choice,1131,f,0,0,135,428138,1844795
29,19,female,Belgium,4,129,ITC,win,5,right,16,ITC_wait,0,undefined,0,0,135,428132,1844801
29,19,female,Belgium,4,129,ITC,win,5,right,16,ITC_collect,375,k,0,0,135,427753,1845180
29,19,female,Belgium,4,129,ITC,win,5,right,16,ITC_outcome,0,undefined,0,0,151,426742,1846191
29,19,female,Belgium,4,130,guess,loss,10,left,6,guess_start,295,space,0,0,151,426442,1846491
29,19,female,Belgium,4,130,guess,loss,10,left,6,guess_choice,577,j,0,0,151,425861,1847072
29,19,female,Belgium,4,130,guess,loss,10,left,6,guess_outcome,0,undefined,0,0,136,424302,1848631
29,19,female,Belgium,4,130,ITC,loss,10,left,6,ITC_start,868,space,0,0,136,423431,1849502
29,19,female,Belgium,4,130,ITC,loss,10,left,6,ITC_choice,1075,f,0,0,136,422350,1850583
29,19,female,Belgium,4,130,ITC,loss,10,left,6,ITC_wait,0,undefined,0,0,136,412344,1860589
29,19,female,Belgium,4,130,ITC,loss,10,left,6,ITC_collect,526,k,0,0,136,411813,1861120
29,19,female,Belgium,4,130,ITC,loss,10,left,6,ITC_outcome,0,undefined,0,0,156,410799,1862134
29,19,female,Belgium,4,131,guess,loss,5,left,10,guess_start,1168,space,0,0,156,409628,1863305
29,19,female,Belgium,4,131,guess,loss,5,left,10,guess_choice,1006,f,0,0,156,408616,1864317
29,19,female,Belgium,4,131,guess,loss,5,left,10,guess_outcome,0,undefined,0,0,141,407058,1865875
29,19,female,Belgium,4,131,ITC,loss,5,left,10,ITC_start,542,space,0,0,141,406510,1866423
29,19,female,Belgium,4,131,ITC,loss,5,left,10,ITC_choice,1512,f,0,0,141,404994,1867939
29,19,female,Belgium,4,131,ITC,loss,5,left,10,ITC_wait,0,undefined,0,0,141,399989,1872944
29,19,female,Belgium,4,131,ITC,loss,5,left,10,ITC_collect,430,k,0,0,141,399553,1873380
29,19,female,Belgium,4,131,ITC,loss,5,left,10,ITC_outcome,0,undefined,0,0,161,398540,1874393
29,19,female,Belgium,4,132,guess,loss,10,left,7,guess_start,266,space,0,0,161,398269,1874664
29,19,female,Belgium,4,132,guess,loss,10,left,7,guess_choice,757,j,0,0,161,397508,1875425
29,19,female,Belgium,4,132,guess,loss,10,left,7,guess_outcome,0,undefined,0,0,146,395950,1876983
29,19,female,Belgium,4,132,ITC,loss,10,left,7,ITC_start,89,space,0,0,146,395858,1877075
29,19,female,Belgium,4,132,ITC,loss,10,left,7,ITC_choice,938,f,0,0,146,394915,1878018
29,19,female,Belgium,4,132,ITC,loss,10,left,7,ITC_wait,0,undefined,0,0,146,384910,1888023
29,19,female,Belgium,4,132,ITC,loss,10,left,7,ITC_collect,351,k,0,0,146,384556,1888377
29,19,female,Belgium,4,132,ITC,loss,10,left,7,ITC_outcome,0,undefined,0,0,166,383546,1889387
29,19,female,Belgium,4,133,guess,loss,5,left,13,guess_start,380,space,0,0,166,383161,1889772
29,19,female,Belgium,4,133,guess,loss,5,left,13,guess_choice,529,f,0,0,166,382627,1890306
29,19,female,Belgium,4,133,guess,loss,5,left,13,guess_outcome,0,undefined,0,0,151,381055,1891878
29,19,female,Belgium,4,133,ITC,loss,5,left,13,ITC_start,556,space,0,0,151,380497,1892436
29,19,female,Belgium,4,133,ITC,loss,5,left,13,ITC_choice,1143,j,0,0,151,379350,1893583
29,19,female,Belgium,4,133,ITC,loss,5,left,13,ITC_wait,0,undefined,0,0,151,379343,1893590
29,19,female,Belgium,4,133,ITC,loss,5,left,13,ITC_collect,245,k,0,0,151,379093,1893840
29,19,female,Belgium,4,133,ITC,loss,5,left,13,ITC_outcome,0,undefined,0,0,164,378076,1894857
29,19,female,Belgium,4,134,guess,loss,10,left,3,guess_start,227,space,0,0,164,377844,1895089
29,19,female,Belgium,4,134,guess,loss,10,left,3,guess_choice,1007,j,0,0,164,376822,1896111
29,19,female,Belgium,4,134,guess,loss,10,left,3,guess_outcome,0,undefined,0,0,149,375256,1897677
29,19,female,Belgium,4,134,ITC,loss,10,left,3,ITC_start,572,space,0,0,149,374680,1898253
29,19,female,Belgium,4,134,ITC,loss,10,left,3,ITC_choice,1006,f,0,0,149,373667,1899266
29,19,female,Belgium,4,134,ITC,loss,10,left,3,ITC_wait,0,undefined,0,0,149,363656,1909277
29,19,female,Belgium,4,134,ITC,loss,10,left,3,ITC_collect,338,k,0,0,149,363308,1909625
29,19,female,Belgium,4,134,ITC,loss,10,left,3,ITC_outcome,0,undefined,0,0,169,362293,1910640
29,19,female,Belgium,4,135,guess,neutral,10,left,4,guess_start,416,space,0,0,169,361873,1911060
29,19,female,Belgium,4,135,guess,neutral,10,left,4,guess_choice,1087,j,0,0,169,360780,1912153
29,19,female,Belgium,4,135,guess,neutral,10,left,4,guess_outcome,0,undefined,0,0,169,359223,1913710
29,19,female,Belgium,4,135,ITC,neutral,10,left,4,ITC_start,339,space,0,0,169,358881,1914052
29,19,female,Belgium,4,135,ITC,neutral,10,left,4,ITC_choice,995,f,0,0,169,357883,1915050
29,19,female,Belgium,4,135,ITC,neutral,10,left,4,ITC_wait,0,undefined,0,0,169,347872,1925061
29,19,female,Belgium,4,135,ITC,neutral,10,left,4,ITC_collect,317,k,0,0,169,347552,1925381
29,19,female,Belgium,4,135,ITC,neutral,10,left,4,ITC_outcome,0,undefined,0,0,189,346538,1926395
29,19,female,Belgium,4,136,guess,neutral,5,right,7,guess_start,189,space,0,0,189,346344,1926589
29,19,female,Belgium,4,136,guess,neutral,5,right,7,guess_choice,586,f,0,0,189,345750,1927183
29,19,female,Belgium,4,136,guess,neutral,5,right,7,guess_outcome,0,undefined,0,0,189,344178,1928755
29,19,female,Belgium,4,136,ITC,neutral,5,right,7,ITC_start,365,space,0,0,189,343809,1929124
29,19,female,Belgium,4,136,ITC,neutral,5,right,7,ITC_choice,1414,j,0,0,189,342391,1930542
29,19,female,Belgium,4,136,ITC,neutral,5,right,7,ITC_wait,0,undefined,0,0,189,337378,1935555
29,19,female,Belgium,4,136,ITC,neutral,5,right,7,ITC_collect,370,k,0,0,189,337004,1935929
29,19,female,Belgium,4,136,ITC,neutral,5,right,7,ITC_outcome,0,undefined,0,0,209,335976,1936957
29,19,female,Belgium,4,137,guess,win,5,left,10,guess_start,516,space,0,0,209,335456,1937477
29,19,female,Belgium,4,137,guess,win,5,left,10,guess_choice,813,f,0,0,209,334637,1938296
29,19,female,Belgium,4,137,guess,win,5,left,10,guess_outcome,0,undefined,0,0,229,333076,1939857
29,19,female,Belgium,4,137,ITC,win,5,left,10,ITC_start,753,space,0,0,229,332321,1940612
29,19,female,Belgium,4,137,ITC,win,5,left,10,ITC_choice,1046,f,0,0,229,331272,1941661
29,19,female,Belgium,4,137,ITC,win,5,left,10,ITC_wait,0,undefined,0,0,229,326259,1946674
29,19,female,Belgium,4,137,ITC,win,5,left,10,ITC_collect,1887,k,0,0,229,324369,1948564
29,19,female,Belgium,4,137,ITC,win,5,left,10,ITC_outcome,0,undefined,0,0,249,323356,1949577
29,19,female,Belgium,4,138,guess,neutral,10,left,5,guess_start,320,space,0,0,249,323030,1949903
29,19,female,Belgium,4,138,guess,neutral,10,left,5,guess_choice,581,f,0,0,249,322444,1950489
29,19,female,Belgium,4,138,guess,neutral,10,left,5,guess_outcome,0,undefined,0,0,249,320878,1952055
29,19,female,Belgium,4,138,ITC,neutral,10,left,5,ITC_start,251,space,0,0,249,320623,1952310
29,19,female,Belgium,4,138,ITC,neutral,10,left,5,ITC_choice,897,f,0,0,249,319720,1953213
29,19,female,Belgium,4,138,ITC,neutral,10,left,5,ITC_wait,0,undefined,0,0,249,309712,1963221
29,19,female,Belgium,4,138,ITC,neutral,10,left,5,ITC_collect,314,k,0,0,249,309395,1963538
29,19,female,Belgium,4,138,ITC,neutral,10,left,5,ITC_outcome,0,undefined,0,0,269,308384,1964549
29,19,female,Belgium,4,139,guess,neutral,10,left,6,guess_start,488,space,0,0,269,307892,1965041
29,19,female,Belgium,4,139,guess,neutral,10,left,6,guess_choice,669,j,0,0,269,307217,1965716
29,19,female,Belgium,4,139,guess,neutral,10,left,6,guess_outcome,0,undefined,0,0,269,305653,1967280
29,19,female,Belgium,4,139,ITC,neutral,10,left,6,ITC_start,293,space,0,0,269,305357,1967576
29,19,female,Belgium,4,139,ITC,neutral,10,left,6,ITC_choice,704,f,0,0,269,304650,1968283
29,19,female,Belgium,4,139,ITC,neutral,10,left,6,ITC_wait,0,undefined,0,0,269,294643,1978290
29,19,female,Belgium,4,139,ITC,neutral,10,left,6,ITC_collect,1225,k,0,0,269,293414,1979519
29,19,female,Belgium,4,139,ITC,neutral,10,left,6,ITC_outcome,0,undefined,0,0,289,292405,1980528
29,19,female,Belgium,4,140,guess,win,5,left,13,guess_start,2677,space,0,0,289,289722,1983211
