subjectID,age,gender,nationality,block_number,trial_number,trial_type,guess_outcome,delay_time,delay_pos,immediate_amount,stage,respRT,respKey,blur_count,focus_count,total_points,remaining_duration,time_elapsed
9,19,female,Belgisch,1,1,guess,win,5,right,10,guess_start,5266,space,0,0,0,474733,307547
9,19,female,Belgisch,1,1,guess,win,5,right,10,guess_choice,873,j,0,0,0,473853,308427
9,19,female,Belgisch,1,1,guess,win,5,right,10,guess_outcome,0,undefined,0,0,20,472297,309983
9,19,female,Belgisch,1,1,ITC,win,5,right,10,ITC_start,2824,space,0,0,20,469470,312810
9,19,female,Belgisch,1,1,ITC,win,5,right,10,ITC_choice,1196,j,0,0,20,468269,314011
9,19,female,Belgisch,1,1,ITC,win,5,right,10,ITC_wait,0,undefined,0,0,20,463265,319015
9,19,female,Belgisch,1,1,ITC,win,5,right,10,ITC_collect,1473,k,0,0,20,461788,320492
9,19,female,Belgisch,1,1,ITC,win,5,right,10,ITC_outcome,0,undefined,0,0,40,460779,321501
9,19,female,Belgisch,1,2,guess,loss,10,left,2,guess_start,1044,space,0,0,40,459731,322549
9,19,female,Belgisch,1,2,guess,loss,10,left,2,guess_choice,813,f,0,0,40,458911,323369
9,19,female,Belgisch,1,2,guess,loss,10,left,2,guess_outcome,0,undefined,0,0,25,457347,324933
9,19,female,Belgisch,1,2,ITC,loss,10,left,2,ITC_start,1541,space,0,0,25,455802,326478
9,19,female,Belgisch,1,2,ITC,loss,10,left,2,ITC_choice,897,j,0,0,25,454903,327377
9,19,female,Belgisch,1,2,ITC,loss,10,left,2,ITC_wait,0,undefined,0,0,25,454899,327381
9,19,female,Belgisch,1,2,ITC,loss,10,left,2,ITC_collect,4581,k,0,0,25,450317,331963
9,19,female,Belgisch,1,2,ITC,loss,10,left,2,ITC_outcome,0,undefined,0,0,27,449298,332982
9,19,female,Belgisch,1,3,guess,loss,5,left,11,guess_start,925,space,0,0,27,448368,333912
9,19,female,Belgisch,1,3,guess,loss,5,left,11,guess_choice,1191,j,0,0,27,447157,335123
9,19,female,Belgisch,1,3,guess,loss,5,left,11,guess_outcome,0,undefined,0,0,12,445587,336693
9,19,female,Belgisch,1,3,ITC,loss,5,left,11,ITC_start,1917,space,0,0,12,443666,338614
9,19,female,Belgisch,1,3,ITC,loss,5,left,11,ITC_choice,800,f,0,0,12,442861,339419
9,19,female,Belgisch,1,3,ITC,loss,5,left,11,ITC_wait,0,undefined,0,0,12,437857,344423
9,19,female,Belgisch,1,3,ITC,loss,5,left,11,ITC_collect,1293,k,0,0,12,436560,345720
9,19,female,Belgisch,1,3,ITC,loss,5,left,11,ITC_outcome,0,undefined,0,0,32,435542,346738
9,19,female,Belgisch,1,4,guess,win,5,right,1,guess_start,1370,space,0,0,32,434169,348111
9,19,female,Belgisch,1,4,guess,win,5,right,1,guess_choice,996,j,0,0,32,433158,349122
9,19,female,Belgisch,1,4,guess,win,5,right,1,guess_outcome,0,undefined,0,0,52,431587,350693
9,19,female,Belgisch,1,4,ITC,win,5,right,1,ITC_start,1004,space,0,0,52,430578,351702
9,19,female,Belgisch,1,4,ITC,win,5,right,1,ITC_choice,1897,j,0,0,52,428676,353604
9,19,female,Belgisch,1,4,ITC,win,5,right,1,ITC_wait,0,undefined,0,0,52,423671,358609
9,19,female,Belgisch,1,4,ITC,win,5,right,1,ITC_collect,340,k,0,0,52,423324,358956
9,19,female,Belgisch,1,4,ITC,win,5,right,1,ITC_outcome,0,undefined,0,0,72,422293,359987
9,19,female,Belgisch,1,5,guess,neutral,5,right,2,guess_start,870,space,0,0,72,421418,360862
9,19,female,Belgisch,1,5,guess,neutral,5,right,2,guess_choice,1385,j,0,0,72,420004,362276
9,19,female,Belgisch,1,5,guess,neutral,5,right,2,guess_outcome,0,undefined,0,0,72,418431,363849
9,19,female,Belgisch,1,5,ITC,neutral,5,right,2,ITC_start,943,space,0,0,72,417480,364800
9,19,female,Belgisch,1,5,ITC,neutral,5,right,2,ITC_choice,1927,j,0,0,72,415550,366730
9,19,female,Belgisch,1,5,ITC,neutral,5,right,2,ITC_wait,0,undefined,0,0,72,410544,371736
9,19,female,Belgisch,1,5,ITC,neutral,5,right,2,ITC_collect,922,k,0,0,72,409614,372666
9,19,female,Belgisch,1,5,ITC,neutral,5,right,2,ITC_outcome,0,undefined,0,0,92,408586,373694
9,19,female,Belgisch,1,6,guess,win,5,right,3,guess_start,713,space,0,0,92,407869,374411
9,19,female,Belgisch,1,6,guess,win,5,right,3,guess_choice,1136,f,0,0,92,406702,375578
9,19,female,Belgisch,1,6,guess,win,5,right,3,guess_outcome,0,undefined,0,0,112,405128,377152
9,19,female,Belgisch,1,6,ITC,win,5,right,3,ITC_start,555,space,0,0,112,404567,377713
9,19,female,Belgisch,1,6,ITC,win,5,right,3,ITC_choice,1063,j,0,0,112,403497,378783
9,19,female,Belgisch,1,6,ITC,win,5,right,3,ITC_wait,0,undefined,0,0,112,398488,383792
9,19,female,Belgisch,1,6,ITC,win,5,right,3,ITC_collect,325,k,0,0,112,398154,384126
9,19,female,Belgisch,1,6,ITC,win,5,right,3,ITC_outcome,0,undefined,0,0,132,397127,385153
9,19,female,Belgisch,1,7,guess,loss,10,left,6,guess_start,609,space,0,0,132,396511,385769
9,19,female,Belgisch,1,7,guess,loss,10,left,6,guess_choice,721,j,0,0,132,395762,386518
9,19,female,Belgisch,1,7,guess,loss,10,left,6,guess_outcome,0,undefined,0,0,117,394184,388096
9,19,female,Belgisch,1,7,ITC,loss,10,left,6,ITC_start,728,space,0,0,117,393450,388830
9,19,female,Belgisch,1,7,ITC,loss,10,left,6,ITC_choice,923,f,0,0,117,392521,389759
9,19,female,Belgisch,1,7,ITC,loss,10,left,6,ITC_wait,0,undefined,0,0,117,382515,399765
9,19,female,Belgisch,1,7,ITC,loss,10,left,6,ITC_collect,709,k,0,0,117,381802,400478
9,19,female,Belgisch,1,7,ITC,loss,10,left,6,ITC_outcome,0,undefined,0,0,137,380784,401496
9,19,female,Belgisch,1,8,guess,neutral,5,right,9,guess_start,533,space,0,0,137,380245,402035
9,19,female,Belgisch,1,8,guess,neutral,5,right,9,guess_choice,731,f,0,0,137,379477,402803
9,19,female,Belgisch,1,8,guess,neutral,5,right,9,guess_outcome,0,undefined,0,0,137,377894,404386
9,19,female,Belgisch,1,8,ITC,neutral,5,right,9,ITC_start,299,space,0,0,137,377588,404692
9,19,female,Belgisch,1,8,ITC,neutral,5,right,9,ITC_choice,1421,j,0,0,137,376161,406119
9,19,female,Belgisch,1,8,ITC,neutral,5,right,9,ITC_wait,0,undefined,0,0,137,371153,411127
9,19,female,Belgisch,1,8,ITC,neutral,5,right,9,ITC_collect,485,k,0,0,137,370661,411619
9,19,female,Belgisch,1,8,ITC,neutral,5,right,9,ITC_outcome,0,undefined,0,0,157,369622,412658
9,19,female,Belgisch,1,9,guess,win,10,right,4,guess_start,561,space,0,0,157,369052,413228
9,19,female,Belgisch,1,9,guess,win,10,right,4,guess_choice,873,j,0,0,157,368138,414142
9,19,female,Belgisch,1,9,guess,win,10,right,4,guess_outcome,0,undefined,0,0,177,366555,415725
9,19,female,Belgisch,1,9,ITC,win,10,right,4,ITC_start,891,space,0,0,177,365660,416620
9,19,female,Belgisch,1,9,ITC,win,10,right,4,ITC_choice,976,j,0,0,177,364681,417599
9,19,female,Belgisch,1,9,ITC,win,10,right,4,ITC_wait,0,undefined,0,0,177,354677,427603
9,19,female,Belgisch,1,9,ITC,win,10,right,4,ITC_collect,731,k,0,0,177,353942,428338
9,19,female,Belgisch,1,9,ITC,win,10,right,4,ITC_outcome,0,undefined,0,0,197,352931,429349
9,19,female,Belgisch,1,10,guess,loss,5,right,3,guess_start,210,space,0,0,197,352716,429564
9,19,female,Belgisch,1,10,guess,loss,5,right,3,guess_choice,840,j,0,0,197,351864,430416
9,19,female,Belgisch,1,10,guess,loss,5,right,3,guess_outcome,0,undefined,0,0,182,350302,431978
9,19,female,Belgisch,1,10,ITC,loss,5,right,3,ITC_start,1733,space,0,0,182,348567,433713
9,19,female,Belgisch,1,10,ITC,loss,5,right,3,ITC_choice,854,j,0,0,182,347709,434571
9,19,female,Belgisch,1,10,ITC,loss,5,right,3,ITC_wait,0,undefined,0,0,182,342703,439577
9,19,female,Belgisch,1,10,ITC,loss,5,right,3,ITC_collect,497,k,0,0,182,342202,440078
9,19,female,Belgisch,1,10,ITC,loss,5,right,3,ITC_outcome,0,undefined,0,0,202,341190,441090
9,19,female,Belgisch,1,11,guess,loss,10,right,1,guess_start,533,space,0,0,202,340652,441628
9,19,female,Belgisch,1,11,guess,loss,10,right,1,guess_choice,906,j,0,0,202,339737,442543
9,19,female,Belgisch,1,11,guess,loss,10,right,1,guess_outcome,0,undefined,0,0,187,338173,444107
9,19,female,Belgisch,1,11,ITC,loss,10,right,1,ITC_start,641,space,0,0,187,337527,444753
9,19,female,Belgisch,1,11,ITC,loss,10,right,1,ITC_choice,819,j,0,0,187,336706,445574
9,19,female,Belgisch,1,11,ITC,loss,10,right,1,ITC_wait,0,undefined,0,0,187,326700,455580
9,19,female,Belgisch,1,11,ITC,loss,10,right,1,ITC_collect,341,k,0,0,187,326356,455924
9,19,female,Belgisch,1,11,ITC,loss,10,right,1,ITC_outcome,0,undefined,0,0,207,325346,456934
9,19,female,Belgisch,1,12,guess,loss,10,right,5,guess_start,467,space,0,0,207,324874,457406
9,19,female,Belgisch,1,12,guess,loss,10,right,5,guess_choice,730,j,0,0,207,324126,458154
9,19,female,Belgisch,1,12,guess,loss,10,right,5,guess_outcome,0,undefined,0,0,192,322549,459731
9,19,female,Belgisch,1,12,ITC,loss,10,right,5,ITC_start,787,space,0,0,192,321758,460522
9,19,female,Belgisch,1,12,ITC,loss,10,right,5,ITC_choice,689,j,0,0,192,321067,461213
9,19,female,Belgisch,1,12,ITC,loss,10,right,5,ITC_wait,0,undefined,0,0,192,311061,471219
9,19,female,Belgisch,1,12,ITC,loss,10,right,5,ITC_collect,429,k,0,0,192,310626,471654
9,19,female,Belgisch,1,12,ITC,loss,10,right,5,ITC_outcome,0,undefined,0,0,212,309596,472684
9,19,female,Belgisch,1,13,guess,neutral,5,left,14,guess_start,272,space,0,0,212,309316,472964
9,19,female,Belgisch,1,13,guess,neutral,5,left,14,guess_choice,472,j,0,0,212,308836,473444
9,19,female,Belgisch,1,13,guess,neutral,5,left,14,guess_outcome,0,undefined,0,0,212,307263,475017
9,19,female,Belgisch,1,13,ITC,neutral,5,left,14,ITC_start,699,space,0,0,212,306559,475721
9,19,female,Belgisch,1,13,ITC,neutral,5,left,14,ITC_choice,1555,f,0,0,212,304999,477281
9,19,female,Belgisch,1,13,ITC,neutral,5,left,14,ITC_wait,0,undefined,0,0,212,299992,482288
9,19,female,Belgisch,1,13,ITC,neutral,5,left,14,ITC_collect,882,k,0,0,212,299106,483174
9,19,female,Belgisch,1,13,ITC,neutral,5,left,14,ITC_outcome,0,undefined,0,0,232,298077,484203
9,19,female,Belgisch,1,14,guess,neutral,5,left,4,guess_start,552,space,0,0,232,297517,484763
9,19,female,Belgisch,1,14,guess,neutral,5,left,4,guess_choice,716,j,0,0,232,296771,485509
9,19,female,Belgisch,1,14,guess,neutral,5,left,4,guess_outcome,0,undefined,0,0,232,295192,487088
9,19,female,Belgisch,1,14,ITC,neutral,5,left,4,ITC_start,370,space,0,0,232,294820,487460
9,19,female,Belgisch,1,14,ITC,neutral,5,left,4,ITC_choice,685,f,0,0,232,294129,488151
9,19,female,Belgisch,1,14,ITC,neutral,5,left,4,ITC_wait,0,undefined,0,0,232,289124,493156
9,19,female,Belgisch,1,14,ITC,neutral,5,left,4,ITC_collect,918,k,0,0,232,288201,494079
9,19,female,Belgisch,1,14,ITC,neutral,5,left,4,ITC_outcome,0,undefined,0,0,252,287179,495101
9,19,female,Belgisch,1,15,guess,win,5,left,2,guess_start,586,space,0,0,252,286584,495696
9,19,female,Belgisch,1,15,guess,win,5,left,2,guess_choice,808,j,0,0,252,285745,496535
9,19,female,Belgisch,1,15,guess,win,5,left,2,guess_outcome,0,undefined,0,0,272,284167,498113
9,19,female,Belgisch,1,15,ITC,win,5,left,2,ITC_start,489,space,0,0,272,283672,498608
9,19,female,Belgisch,1,15,ITC,win,5,left,2,ITC_choice,637,f,0,0,272,283029,499251
9,19,female,Belgisch,1,15,ITC,win,5,left,2,ITC_wait,0,undefined,0,0,272,278020,504260
9,19,female,Belgisch,1,15,ITC,win,5,left,2,ITC_collect,952,k,0,0,272,277060,505220
9,19,female,Belgisch,1,15,ITC,win,5,left,2,ITC_outcome,0,undefined,0,0,292,276028,506252
9,19,female,Belgisch,1,16,guess,neutral,10,right,6,guess_start,270,space,0,0,292,275749,506531
9,19,female,Belgisch,1,16,guess,neutral,10,right,6,guess_choice,1103,j,0,0,292,274613,507667
9,19,female,Belgisch,1,16,guess,neutral,10,right,6,guess_outcome,0,undefined,0,0,292,273026,509254
9,19,female,Belgisch,1,16,ITC,neutral,10,right,6,ITC_start,481,space,0,0,292,272540,509740
9,19,female,Belgisch,1,16,ITC,neutral,10,right,6,ITC_choice,674,j,0,0,292,271861,510419
9,19,female,Belgisch,1,16,ITC,neutral,10,right,6,ITC_wait,0,undefined,0,0,292,261857,520423
9,19,female,Belgisch,1,16,ITC,neutral,10,right,6,ITC_collect,447,k,0,0,292,261403,520877
9,19,female,Belgisch,1,16,ITC,neutral,10,right,6,ITC_outcome,0,undefined,0,0,312,260368,521912
9,19,female,Belgisch,1,17,guess,win,10,right,1,guess_start,342,space,0,0,312,260019,522261
9,19,female,Belgisch,1,17,guess,win,10,right,1,guess_choice,737,f,0,0,312,259249,523031
9,19,female,Belgisch,1,17,guess,win,10,right,1,guess_outcome,0,undefined,0,0,332,257661,524619
9,19,female,Belgisch,1,17,ITC,win,10,right,1,ITC_start,474,space,0,0,332,257183,525097
9,19,female,Belgisch,1,17,ITC,win,10,right,1,ITC_choice,812,j,0,0,332,256367,525913
9,19,female,Belgisch,1,17,ITC,win,10,right,1,ITC_wait,0,undefined,0,0,332,246361,535919
9,19,female,Belgisch,1,17,ITC,win,10,right,1,ITC_collect,1259,k,0,0,332,245098,537182
9,19,female,Belgisch,1,17,ITC,win,10,right,1,ITC_outcome,0,undefined,0,0,352,244069,538211
9,19,female,Belgisch,1,18,guess,win,5,right,12,guess_start,585,space,0,0,352,243480,538800
9,19,female,Belgisch,1,18,guess,win,5,right,12,guess_choice,631,j,0,0,352,242841,539439
9,19,female,Belgisch,1,18,guess,win,5,right,12,guess_outcome,0,undefined,0,0,372,241281,540999
9,19,female,Belgisch,1,18,ITC,win,5,right,12,ITC_start,528,space,0,0,372,240750,541530
9,19,female,Belgisch,1,18,ITC,win,5,right,12,ITC_choice,749,j,0,0,372,239997,542283
9,19,female,Belgisch,1,18,ITC,win,5,right,12,ITC_wait,0,undefined,0,0,372,234995,547285
9,19,female,Belgisch,1,18,ITC,win,5,right,12,ITC_collect,5183,k,0,0,372,229807,552473
9,19,female,Belgisch,1,18,ITC,win,5,right,12,ITC_outcome,0,undefined,0,0,392,228793,553487
9,19,female,Belgisch,1,19,guess,win,5,left,4,guess_start,311,space,0,0,392,228480,553800
9,19,female,Belgisch,1,19,guess,win,5,left,4,guess_choice,644,j,0,0,392,227825,554455
9,19,female,Belgisch,1,19,guess,win,5,left,4,guess_outcome,0,undefined,0,0,412,226263,556017
9,19,female,Belgisch,1,19,ITC,win,5,left,4,ITC_start,900,space,0,0,412,225362,556918
9,19,female,Belgisch,1,19,ITC,win,5,left,4,ITC_choice,849,f,0,0,412,224508,557772
9,19,female,Belgisch,1,19,ITC,win,5,left,4,ITC_wait,0,undefined,0,0,412,219500,562780
9,19,female,Belgisch,1,19,ITC,win,5,left,4,ITC_collect,942,k,0,0,412,218553,563727
9,19,female,Belgisch,1,19,ITC,win,5,left,4,ITC_outcome,0,undefined,0,0,432,217539,564741
9,19,female,Belgisch,1,20,guess,win,5,left,5,guess_start,341,space,0,0,432,217193,565087
9,19,female,Belgisch,1,20,guess,win,5,left,5,guess_choice,754,j,0,0,432,216421,565859
9,19,female,Belgisch,1,20,guess,win,5,left,5,guess_outcome,0,undefined,0,0,452,214856,567424
9,19,female,Belgisch,1,20,ITC,win,5,left,5,ITC_start,338,space,0,0,452,214513,567767
9,19,female,Belgisch,1,20,ITC,win,5,left,5,ITC_choice,565,f,0,0,452,213945,568335
9,19,female,Belgisch,1,20,ITC,win,5,left,5,ITC_wait,0,undefined,0,0,452,208940,573340
9,19,female,Belgisch,1,20,ITC,win,5,left,5,ITC_collect,787,k,0,0,452,208147,574133
9,19,female,Belgisch,1,20,ITC,win,5,left,5,ITC_outcome,0,undefined,0,0,472,207131,575149
9,19,female,Belgisch,1,21,guess,neutral,5,left,11,guess_start,238,space,0,0,472,206888,575392
9,19,female,Belgisch,1,21,guess,neutral,5,left,11,guess_choice,754,f,0,0,472,206116,576164
9,19,female,Belgisch,1,21,guess,neutral,5,left,11,guess_outcome,0,undefined,0,0,472,204547,577733
9,19,female,Belgisch,1,21,ITC,neutral,5,left,11,ITC_start,1493,space,0,0,472,203050,579230
9,19,female,Belgisch,1,21,ITC,neutral,5,left,11,ITC_choice,2453,j,0,0,472,200591,581689
9,19,female,Belgisch,1,21,ITC,neutral,5,left,11,ITC_wait,0,undefined,0,0,472,200587,581693
9,19,female,Belgisch,1,21,ITC,neutral,5,left,11,ITC_collect,948,k,0,0,472,199636,582644
9,19,female,Belgisch,1,21,ITC,neutral,5,left,11,ITC_outcome,0,undefined,0,0,483,198627,583653
9,19,female,Belgisch,1,22,guess,loss,5,right,4,guess_start,556,space,0,0,483,198066,584214
9,19,female,Belgisch,1,22,guess,loss,5,right,4,guess_choice,861,j,0,0,483,197197,585083
9,19,female,Belgisch,1,22,guess,loss,5,right,4,guess_outcome,0,undefined,0,0,468,195637,586643
9,19,female,Belgisch,1,22,ITC,loss,5,right,4,ITC_start,530,space,0,0,468,195105,587175
9,19,female,Belgisch,1,22,ITC,loss,5,right,4,ITC_choice,1019,j,0,0,468,194084,588196
9,19,female,Belgisch,1,22,ITC,loss,5,right,4,ITC_wait,0,undefined,0,0,468,189080,593200
9,19,female,Belgisch,1,22,ITC,loss,5,right,4,ITC_collect,848,k,0,0,468,188226,594054
9,19,female,Belgisch,1,22,ITC,loss,5,right,4,ITC_outcome,0,undefined,0,0,488,187204,595076
9,19,female,Belgisch,1,23,guess,neutral,10,right,5,guess_start,27,space,0,0,488,187172,595108
9,19,female,Belgisch,1,23,guess,neutral,10,right,5,guess_choice,629,f,0,0,488,186528,595752
9,19,female,Belgisch,1,23,guess,neutral,10,right,5,guess_outcome,0,undefined,0,0,488,184953,597327
9,19,female,Belgisch,1,23,ITC,neutral,10,right,5,ITC_start,530,space,0,0,488,184419,597861
9,19,female,Belgisch,1,23,ITC,neutral,10,right,5,ITC_choice,614,j,0,0,488,183800,598480
9,19,female,Belgisch,1,23,ITC,neutral,10,right,5,ITC_wait,0,undefined,0,0,488,173795,608485
9,19,female,Belgisch,1,23,ITC,neutral,10,right,5,ITC_collect,369,k,0,0,488,173418,608862
9,19,female,Belgisch,1,23,ITC,neutral,10,right,5,ITC_outcome,0,undefined,0,0,508,172398,609882
9,19,female,Belgisch,1,24,guess,neutral,10,right,1,guess_start,250,space,0,0,508,172140,610140
9,19,female,Belgisch,1,24,guess,neutral,10,right,1,guess_choice,671,j,0,0,508,171440,610840
9,19,female,Belgisch,1,24,guess,neutral,10,right,1,guess_outcome,0,undefined,0,0,508,169863,612417
9,19,female,Belgisch,1,24,ITC,neutral,10,right,1,ITC_start,465,space,0,0,508,169393,612887
9,19,female,Belgisch,1,24,ITC,neutral,10,right,1,ITC_choice,771,j,0,0,508,168615,613665
9,19,female,Belgisch,1,24,ITC,neutral,10,right,1,ITC_wait,0,undefined,0,0,508,158610,623670
9,19,female,Belgisch,1,24,ITC,neutral,10,right,1,ITC_collect,487,k,0,0,508,158119,624161
9,19,female,Belgisch,1,24,ITC,neutral,10,right,1,ITC_outcome,0,undefined,0,0,528,157089,625191
9,19,female,Belgisch,1,25,guess,loss,5,right,6,guess_start,252,space,0,0,528,156828,625452
9,19,female,Belgisch,1,25,guess,loss,5,right,6,guess_choice,890,j,0,0,528,155889,626391
9,19,female,Belgisch,1,25,guess,loss,5,right,6,guess_outcome,0,undefined,0,0,513,154306,627974
9,19,female,Belgisch,1,25,ITC,loss,5,right,6,ITC_start,556,space,0,0,513,153745,628535
9,19,female,Belgisch,1,25,ITC,loss,5,right,6,ITC_choice,584,j,0,0,513,153156,629124
9,19,female,Belgisch,1,25,ITC,loss,5,right,6,ITC_wait,0,undefined,0,0,513,148148,634132
9,19,female,Belgisch,1,25,ITC,loss,5,right,6,ITC_collect,785,k,0,0,513,147356,634924
9,19,female,Belgisch,1,25,ITC,loss,5,right,6,ITC_outcome,0,undefined,0,0,533,146322,635958
9,19,female,Belgisch,1,26,guess,loss,5,right,15,guess_start,255,space,0,0,533,146063,636217
9,19,female,Belgisch,1,26,guess,loss,5,right,15,guess_choice,693,f,0,0,533,145336,636944
9,19,female,Belgisch,1,26,guess,loss,5,right,15,guess_outcome,0,undefined,0,0,518,143746,638534
9,19,female,Belgisch,1,26,ITC,loss,5,right,15,ITC_start,393,space,0,0,518,143348,638932
9,19,female,Belgisch,1,26,ITC,loss,5,right,15,ITC_choice,525,j,0,0,518,142818,639462
9,19,female,Belgisch,1,26,ITC,loss,5,right,15,ITC_wait,0,undefined,0,0,518,137812,644468
9,19,female,Belgisch,1,26,ITC,loss,5,right,15,ITC_collect,654,k,0,0,518,137152,645128
9,19,female,Belgisch,1,26,ITC,loss,5,right,15,ITC_outcome,0,undefined,0,0,538,136116,646164
9,19,female,Belgisch,1,27,guess,loss,10,left,8,guess_start,242,space,0,0,538,135867,646413
9,19,female,Belgisch,1,27,guess,loss,10,left,8,guess_choice,582,j,0,0,538,135246,647034
9,19,female,Belgisch,1,27,guess,loss,10,left,8,guess_outcome,0,undefined,0,0,523,133665,648615
9,19,female,Belgisch,1,27,ITC,loss,10,left,8,ITC_start,439,space,0,0,523,133222,649058
9,19,female,Belgisch,1,27,ITC,loss,10,left,8,ITC_choice,1663,f,0,0,523,131555,650725
9,19,female,Belgisch,1,27,ITC,loss,10,left,8,ITC_wait,0,undefined,0,0,523,121552,660728
9,19,female,Belgisch,1,27,ITC,loss,10,left,8,ITC_collect,1813,k,0,0,523,119735,662545
9,19,female,Belgisch,1,27,ITC,loss,10,left,8,ITC_outcome,0,undefined,0,0,543,118725,663555
9,19,female,Belgisch,1,28,guess,win,5,left,7,guess_start,239,space,0,0,543,118483,663797
9,19,female,Belgisch,1,28,guess,win,5,left,7,guess_choice,585,j,0,0,543,117887,664393
9,19,female,Belgisch,1,28,guess,win,5,left,7,guess_outcome,0,undefined,0,0,563,116324,665956
9,19,female,Belgisch,1,28,ITC,win,5,left,7,ITC_start,281,space,0,0,563,116040,666240
9,19,female,Belgisch,1,28,ITC,win,5,left,7,ITC_choice,798,f,0,0,563,115238,667042
9,19,female,Belgisch,1,28,ITC,win,5,left,7,ITC_wait,0,undefined,0,0,563,110234,672046
9,19,female,Belgisch,1,28,ITC,win,5,left,7,ITC_collect,525,k,0,0,563,109704,672576
9,19,female,Belgisch,1,28,ITC,win,5,left,7,ITC_outcome,0,undefined,0,0,583,108689,673591
9,19,female,Belgisch,1,29,guess,win,5,left,6,guess_start,270,space,0,0,583,108412,673868
9,19,female,Belgisch,1,29,guess,win,5,left,6,guess_choice,1179,j,0,0,583,107219,675061
9,19,female,Belgisch,1,29,guess,win,5,left,6,guess_outcome,0,undefined,0,0,603,105652,676628
9,19,female,Belgisch,1,29,ITC,win,5,left,6,ITC_start,310,space,0,0,603,105339,676941
9,19,female,Belgisch,1,29,ITC,win,5,left,6,ITC_choice,606,f,0,0,603,104731,677549
9,19,female,Belgisch,1,29,ITC,win,5,left,6,ITC_wait,0,undefined,0,0,603,99729,682551
9,19,female,Belgisch,1,29,ITC,win,5,left,6,ITC_collect,1034,k,0,0,603,98692,683588
9,19,female,Belgisch,1,29,ITC,win,5,left,6,ITC_outcome,0,undefined,0,0,623,97672,684608
9,19,female,Belgisch,1,30,guess,neutral,5,right,8,guess_start,265,space,0,0,623,97402,684878
9,19,female,Belgisch,1,30,guess,neutral,5,right,8,guess_choice,738,j,0,0,623,96649,685631
9,19,female,Belgisch,1,30,guess,neutral,5,right,8,guess_outcome,0,undefined,0,0,623,95081,687199
9,19,female,Belgisch,1,30,ITC,neutral,5,right,8,ITC_start,316,space,0,0,623,94761,687519
9,19,female,Belgisch,1,30,ITC,neutral,5,right,8,ITC_choice,805,j,0,0,623,93951,688329
9,19,female,Belgisch,1,30,ITC,neutral,5,right,8,ITC_wait,0,undefined,0,0,623,88946,693334
9,19,female,Belgisch,1,30,ITC,neutral,5,right,8,ITC_collect,883,k,0,0,623,88059,694221
9,19,female,Belgisch,1,30,ITC,neutral,5,right,8,ITC_outcome,0,undefined,0,0,643,87048,695232
9,19,female,Belgisch,1,31,guess,neutral,5,right,7,guess_start,397,space,0,0,643,86644,695636
9,19,female,Belgisch,1,31,guess,neutral,5,right,7,guess_choice,464,j,0,0,643,86152,696128
9,19,female,Belgisch,1,31,guess,neutral,5,right,7,guess_outcome,0,undefined,0,0,643,84582,697698
9,19,female,Belgisch,1,31,ITC,neutral,5,right,7,ITC_start,283,space,0,0,643,84295,697985
9,19,female,Belgisch,1,31,ITC,neutral,5,right,7,ITC_choice,645,j,0,0,643,83644,698636
9,19,female,Belgisch,1,31,ITC,neutral,5,right,7,ITC_wait,0,undefined,0,0,643,78638,703642
9,19,female,Belgisch,1,31,ITC,neutral,5,right,7,ITC_collect,579,k,0,0,643,78054,704226
9,19,female,Belgisch,1,31,ITC,neutral,5,right,7,ITC_outcome,0,undefined,0,0,663,77039,705241
9,19,female,Belgisch,1,32,guess,loss,5,left,1,guess_start,309,space,0,0,663,76726,705554
9,19,female,Belgisch,1,32,guess,loss,5,left,1,guess_choice,873,j,0,0,663,75830,706450
9,19,female,Belgisch,1,32,guess,loss,5,left,1,guess_outcome,0,undefined,0,0,648,74257,708023
9,19,female,Belgisch,1,32,ITC,loss,5,left,1,ITC_start,284,space,0,0,648,73968,708312
9,19,female,Belgisch,1,32,ITC,loss,5,left,1,ITC_choice,785,f,0,0,648,73178,709102
9,19,female,Belgisch,1,32,ITC,loss,5,left,1,ITC_wait,0,undefined,0,0,648,68173,714107
9,19,female,Belgisch,1,32,ITC,loss,5,left,1,ITC_collect,758,k,0,0,648,67410,714870
9,19,female,Belgisch,1,32,ITC,loss,5,left,1,ITC_outcome,0,undefined,0,0,668,66386,715894
9,19,female,Belgisch,1,33,guess,win,10,right,5,guess_start,633,space,0,0,668,65745,716535
9,19,female,Belgisch,1,33,guess,win,10,right,5,guess_choice,704,j,0,0,668,65012,717268
9,19,female,Belgisch,1,33,guess,win,10,right,5,guess_outcome,0,undefined,0,0,688,63436,718844
9,19,female,Belgisch,1,33,ITC,win,10,right,5,ITC_start,447,space,0,0,688,62983,719297
9,19,female,Belgisch,1,33,ITC,win,10,right,5,ITC_choice,560,j,0,0,688,62417,719863
9,19,female,Belgisch,1,33,ITC,win,10,right,5,ITC_wait,0,undefined,0,0,688,52412,729868
9,19,female,Belgisch,1,33,ITC,win,10,right,5,ITC_collect,822,k,0,0,688,51584,730696
9,19,female,Belgisch,1,33,ITC,win,10,right,5,ITC_outcome,0,undefined,0,0,708,50556,731724
9,19,female,Belgisch,1,34,guess,neutral,5,left,15,guess_start,324,space,0,0,708,50226,732054
9,19,female,Belgisch,1,34,guess,neutral,5,left,15,guess_choice,607,f,0,0,708,49601,732679
9,19,female,Belgisch,1,34,guess,neutral,5,left,15,guess_outcome,0,undefined,0,0,708,48017,734263
9,19,female,Belgisch,1,34,ITC,neutral,5,left,15,ITC_start,467,space,0,0,708,47546,734734
9,19,female,Belgisch,1,34,ITC,neutral,5,left,15,ITC_choice,817,f,0,0,708,46725,735555
9,19,female,Belgisch,1,34,ITC,neutral,5,left,15,ITC_wait,0,undefined,0,0,708,41716,740564
9,19,female,Belgisch,1,34,ITC,neutral,5,left,15,ITC_collect,827,k,0,0,708,40883,741397
9,19,female,Belgisch,1,34,ITC,neutral,5,left,15,ITC_outcome,0,undefined,0,0,728,39845,742435
9,19,female,Belgisch,1,35,guess,win,10,left,8,guess_start,370,space,0,0,728,39468,742812
9,19,female,Belgisch,1,35,guess,win,10,left,8,guess_choice,673,j,0,0,728,38753,743527
9,19,female,Belgisch,1,35,guess,win,10,left,8,guess_outcome,0,undefined,0,0,748,37172,745108
9,19,female,Belgisch,1,35,ITC,win,10,left,8,ITC_start,760,space,0,0,748,36407,745873
9,19,female,Belgisch,1,35,ITC,win,10,left,8,ITC_choice,624,f,0,0,748,35777,746503
9,19,female,Belgisch,1,35,ITC,win,10,left,8,ITC_wait,0,undefined,0,0,748,25771,756509
9,19,female,Belgisch,1,35,ITC,win,10,left,8,ITC_collect,360,k,0,0,748,25403,756877
9,19,female,Belgisch,1,35,ITC,win,10,left,8,ITC_outcome,0,undefined,0,0,768,24357,757923
9,19,female,Belgisch,1,36,guess,loss,5,right,12,guess_start,358,space,0,0,768,23993,758287
9,19,female,Belgisch,1,36,guess,loss,5,right,12,guess_choice,493,j,0,0,768,23468,758812
9,19,female,Belgisch,1,36,guess,loss,5,right,12,guess_outcome,0,undefined,0,0,753,21879,760401
9,19,female,Belgisch,1,36,ITC,loss,5,right,12,ITC_start,425,space,0,0,753,21450,760830
9,19,female,Belgisch,1,36,ITC,loss,5,right,12,ITC_choice,1000,j,0,0,753,20447,761833
9,19,female,Belgisch,1,36,ITC,loss,5,right,12,ITC_wait,0,undefined,0,0,753,15443,766837
9,19,female,Belgisch,1,36,ITC,loss,5,right,12,ITC_collect,854,k,0,0,753,14586,767694
9,19,female,Belgisch,1,36,ITC,loss,5,right,12,ITC_outcome,0,undefined,0,0,773,13579,768701
9,19,female,Belgisch,1,37,guess,loss,5,left,8,guess_start,340,space,0,0,773,13234,769046
9,19,female,Belgisch,1,37,guess,loss,5,left,8,guess_choice,529,j,0,0,773,12695,769585
9,19,female,Belgisch,1,37,guess,loss,5,left,8,guess_outcome,0,undefined,0,0,758,11134,771146
9,19,female,Belgisch,1,37,ITC,loss,5,left,8,ITC_start,388,space,0,0,758,10743,771537
9,19,female,Belgisch,1,37,ITC,loss,5,left,8,ITC_choice,627,f,0,0,758,10112,772168
9,19,female,Belgisch,1,37,ITC,loss,5,left,8,ITC_wait,0,undefined,0,0,758,5108,777172
9,19,female,Belgisch,1,37,ITC,loss,5,left,8,ITC_collect,359,k,0,0,758,4743,777537
9,19,female,Belgisch,1,37,ITC,loss,5,left,8,ITC_outcome,0,undefined,0,0,778,3731,778549
9,19,female,Belgisch,1,38,guess,win,5,right,16,guess_start,450,space,0,0,778,3277,779003
9,19,female,Belgisch,1,38,guess,win,5,right,16,guess_choice,653,j,0,0,778,2612,779668
9,19,female,Belgisch,1,38,guess,win,5,right,16,guess_outcome,0,undefined,0,0,798,1046,781234
9,19,female,Belgisch,1,38,ITC,win,5,right,16,ITC_start,437,space,0,0,798,605,781675
9,19,female,Belgisch,1,38,ITC,win,5,right,16,ITC_choice,524,j,0,0,798,78,782202
9,19,female,Belgisch,1,38,ITC,win,5,right,16,ITC_wait,0,undefined,0,0,798,-4,782284
9,19,female,Belgisch,2,39,guess,neutral,10,right,2,guess_start,638,space,0,0,0,479360,791779
9,19,female,Belgisch,2,39,guess,neutral,10,right,2,guess_choice,558,j,0,0,0,478786,792353
9,19,female,Belgisch,2,39,guess,neutral,10,right,2,guess_outcome,0,undefined,0,0,0,477220,793919
9,19,female,Belgisch,2,39,ITC,neutral,10,right,2,ITC_start,526,space,0,0,0,476690,794449
9,19,female,Belgisch,2,39,ITC,neutral,10,right,2,ITC_choice,576,j,0,0,0,476111,795028
9,19,female,Belgisch,2,39,ITC,neutral,10,right,2,ITC_wait,0,undefined,0,0,0,466106,805033
9,19,female,Belgisch,2,39,ITC,neutral,10,right,2,ITC_collect,345,k,0,0,0,465755,805384
9,19,female,Belgisch,2,39,ITC,neutral,10,right,2,ITC_outcome,0,undefined,0,0,20,464734,806405
9,19,female,Belgisch,2,40,guess,neutral,5,left,10,guess_start,240,space,0,0,20,464487,806652
9,19,female,Belgisch,2,40,guess,neutral,5,left,10,guess_choice,862,f,0,0,20,463610,807529
9,19,female,Belgisch,2,40,guess,neutral,5,left,10,guess_outcome,0,undefined,0,0,20,462039,809100
9,19,female,Belgisch,2,40,ITC,neutral,5,left,10,ITC_start,548,space,0,0,20,461485,809654
9,19,female,Belgisch,2,40,ITC,neutral,5,left,10,ITC_choice,782,f,0,0,20,460699,810440
9,19,female,Belgisch,2,40,ITC,neutral,5,left,10,ITC_wait,0,undefined,0,0,20,455696,815443
9,19,female,Belgisch,2,40,ITC,neutral,5,left,10,ITC_collect,827,k,0,0,20,454864,816275
9,19,female,Belgisch,2,40,ITC,neutral,5,left,10,ITC_outcome,0,undefined,0,0,40,453840,817299
9,19,female,Belgisch,2,41,guess,win,5,right,8,guess_start,600,space,0,0,40,453232,817907
9,19,female,Belgisch,2,41,guess,win,5,right,8,guess_choice,495,j,0,0,40,452714,818425
9,19,female,Belgisch,2,41,guess,win,5,right,8,guess_outcome,0,undefined,0,0,60,451139,820000
9,19,female,Belgisch,2,41,ITC,win,5,right,8,ITC_start,301,space,0,0,60,450833,820306
9,19,female,Belgisch,2,41,ITC,win,5,right,8,ITC_choice,530,j,0,0,60,450299,820840
9,19,female,Belgisch,2,41,ITC,win,5,right,8,ITC_wait,0,undefined,0,0,60,445293,825846
9,19,female,Belgisch,2,41,ITC,win,5,right,8,ITC_collect,809,k,0,0,60,444477,826662
9,19,female,Belgisch,2,41,ITC,win,5,right,8,ITC_outcome,0,undefined,0,0,80,443453,827686
9,19,female,Belgisch,2,42,guess,win,10,left,3,guess_start,265,space,0,0,80,443185,827954
9,19,female,Belgisch,2,42,guess,win,10,left,3,guess_choice,813,j,0,0,80,442334,828805
9,19,female,Belgisch,2,42,guess,win,10,left,3,guess_outcome,0,undefined,0,0,100,440754,830385
9,19,female,Belgisch,2,42,ITC,win,10,left,3,ITC_start,514,space,0,0,100,440234,830905
9,19,female,Belgisch,2,42,ITC,win,10,left,3,ITC_choice,566,f,0,0,100,439664,831475
9,19,female,Belgisch,2,42,ITC,win,10,left,3,ITC_wait,0,undefined,0,0,100,429660,841479
9,19,female,Belgisch,2,42,ITC,win,10,left,3,ITC_collect,823,k,0,0,100,428830,842309
9,19,female,Belgisch,2,42,ITC,win,10,left,3,ITC_outcome,0,undefined,0,0,120,427802,843337
9,19,female,Belgisch,2,43,guess,win,5,right,13,guess_start,330,space,0,0,120,427466,843673
9,19,female,Belgisch,2,43,guess,win,5,right,13,guess_choice,449,j,0,0,120,426976,844163
9,19,female,Belgisch,2,43,guess,win,5,right,13,guess_outcome,0,undefined,0,0,140,425396,845743
9,19,female,Belgisch,2,43,ITC,win,5,right,13,ITC_start,376,space,0,0,140,425014,846125
9,19,female,Belgisch,2,43,ITC,win,5,right,13,ITC_choice,553,j,0,0,140,424453,846686
9,19,female,Belgisch,2,43,ITC,win,5,right,13,ITC_wait,0,undefined,0,0,140,419445,851694
9,19,female,Belgisch,2,43,ITC,win,5,right,13,ITC_collect,1140,k,0,0,140,418298,852841
9,19,female,Belgisch,2,43,ITC,win,5,right,13,ITC_outcome,0,undefined,0,0,160,417268,853871
9,19,female,Belgisch,2,44,guess,win,10,left,6,guess_start,539,space,0,0,160,416721,854418
9,19,female,Belgisch,2,44,guess,win,10,left,6,guess_choice,355,j,0,0,160,416333,854806
9,19,female,Belgisch,2,44,guess,win,10,left,6,guess_outcome,0,undefined,0,0,180,414761,856378
9,19,female,Belgisch,2,44,ITC,win,10,left,6,ITC_start,1429,space,0,0,180,413329,857810
9,19,female,Belgisch,2,44,ITC,win,10,left,6,ITC_choice,828,f,0,0,180,412499,858640
9,19,female,Belgisch,2,44,ITC,win,10,left,6,ITC_wait,0,undefined,0,0,180,402495,868644
9,19,female,Belgisch,2,44,ITC,win,10,left,6,ITC_collect,1698,k,0,0,180,400793,870346
9,19,female,Belgisch,2,44,ITC,win,10,left,6,ITC_outcome,0,undefined,0,0,200,399778,871361
9,19,female,Belgisch,2,45,guess,neutral,10,right,3,guess_start,381,space,0,0,200,399393,871746
9,19,female,Belgisch,2,45,guess,neutral,10,right,3,guess_choice,1378,j,0,0,200,397996,873143
9,19,female,Belgisch,2,45,guess,neutral,10,right,3,guess_outcome,0,undefined,0,0,200,396431,874708
9,19,female,Belgisch,2,45,ITC,neutral,10,right,3,ITC_start,741,space,0,0,200,395687,875452
9,19,female,Belgisch,2,45,ITC,neutral,10,right,3,ITC_choice,1105,j,0,0,200,394578,876561
9,19,female,Belgisch,2,45,ITC,neutral,10,right,3,ITC_wait,0,undefined,0,0,200,384573,886566
9,19,female,Belgisch,2,45,ITC,neutral,10,right,3,ITC_collect,541,k,0,0,200,384024,887115
9,19,female,Belgisch,2,45,ITC,neutral,10,right,3,ITC_outcome,0,undefined,0,0,220,383000,888139
9,19,female,Belgisch,2,46,guess,loss,10,right,7,guess_start,594,space,0,0,220,382397,888742
9,19,female,Belgisch,2,46,guess,loss,10,right,7,guess_choice,465,j,0,0,220,381899,889240
9,19,female,Belgisch,2,46,guess,loss,10,right,7,guess_outcome,0,undefined,0,0,205,380345,890794
9,19,female,Belgisch,2,46,ITC,loss,10,right,7,ITC_start,1330,space,0,0,205,379011,892128
9,19,female,Belgisch,2,46,ITC,loss,10,right,7,ITC_choice,631,j,0,0,205,378376,892763
9,19,female,Belgisch,2,46,ITC,loss,10,right,7,ITC_wait,0,undefined,0,0,205,368372,902767
9,19,female,Belgisch,2,46,ITC,loss,10,right,7,ITC_collect,595,k,0,0,205,367774,903365
9,19,female,Belgisch,2,46,ITC,loss,10,right,7,ITC_outcome,0,undefined,0,0,225,366762,904377
9,19,female,Belgisch,2,47,guess,loss,5,right,5,guess_start,479,space,0,0,225,366279,904860
9,19,female,Belgisch,2,47,guess,loss,5,right,5,guess_choice,973,f,0,0,225,365300,905839
9,19,female,Belgisch,2,47,guess,loss,5,right,5,guess_outcome,0,undefined,0,0,210,363744,907395
9,19,female,Belgisch,2,47,ITC,loss,5,right,5,ITC_start,660,space,0,0,210,363078,908061
9,19,female,Belgisch,2,47,ITC,loss,5,right,5,ITC_choice,661,j,0,0,210,362414,908725
9,19,female,Belgisch,2,47,ITC,loss,5,right,5,ITC_wait,0,undefined,0,0,210,357409,913730
9,19,female,Belgisch,2,47,ITC,loss,5,right,5,ITC_collect,421,k,0,0,210,356986,914153
9,19,female,Belgisch,2,47,ITC,loss,5,right,5,ITC_outcome,0,undefined,0,0,230,355972,915167
9,19,female,Belgisch,2,48,guess,neutral,5,right,6,guess_start,91,space,0,0,230,355876,915263
9,19,female,Belgisch,2,48,guess,neutral,5,right,6,guess_choice,443,j,0,0,230,355418,915721
9,19,female,Belgisch,2,48,guess,neutral,5,right,6,guess_outcome,0,undefined,0,0,230,353862,917277
9,19,female,Belgisch,2,48,ITC,neutral,5,right,6,ITC_start,545,space,0,0,230,353313,917826
9,19,female,Belgisch,2,48,ITC,neutral,5,right,6,ITC_choice,573,j,0,0,230,352734,918405
9,19,female,Belgisch,2,48,ITC,neutral,5,right,6,ITC_wait,0,undefined,0,0,230,347729,923410
9,19,female,Belgisch,2,48,ITC,neutral,5,right,6,ITC_collect,437,k,0,0,230,347287,923852
9,19,female,Belgisch,2,48,ITC,neutral,5,right,6,ITC_outcome,0,undefined,0,0,250,346266,924873
9,19,female,Belgisch,2,49,guess,win,5,right,15,guess_start,270,space,0,0,250,345991,925148
9,19,female,Belgisch,2,49,guess,win,5,right,15,guess_choice,620,j,0,0,250,345361,925778
9,19,female,Belgisch,2,49,guess,win,5,right,15,guess_outcome,0,undefined,0,0,270,343794,927345
9,19,female,Belgisch,2,49,ITC,win,5,right,15,ITC_start,418,space,0,0,270,343372,927767
9,19,female,Belgisch,2,49,ITC,win,5,right,15,ITC_choice,619,j,0,0,270,342751,928388
9,19,female,Belgisch,2,49,ITC,win,5,right,15,ITC_wait,0,undefined,0,0,270,337746,933393
9,19,female,Belgisch,2,49,ITC,win,5,right,15,ITC_collect,380,k,0,0,270,337361,933778
9,19,female,Belgisch,2,49,ITC,win,5,right,15,ITC_outcome,0,undefined,0,0,290,336352,934787
9,19,female,Belgisch,2,50,guess,win,5,right,14,guess_start,243,space,0,0,290,336106,935033
9,19,female,Belgisch,2,50,guess,win,5,right,14,guess_choice,407,j,0,0,290,335679,935460
9,19,female,Belgisch,2,50,guess,win,5,right,14,guess_outcome,0,undefined,0,0,310,334109,937030
9,19,female,Belgisch,2,50,ITC,win,5,right,14,ITC_start,355,space,0,0,310,333750,937389
9,19,female,Belgisch,2,50,ITC,win,5,right,14,ITC_choice,752,j,0,0,310,332993,938146
9,19,female,Belgisch,2,50,ITC,win,5,right,14,ITC_wait,0,undefined,0,0,310,327988,943151
9,19,female,Belgisch,2,50,ITC,win,5,right,14,ITC_collect,431,k,0,0,310,327554,943585
9,19,female,Belgisch,2,50,ITC,win,5,right,14,ITC_outcome,0,undefined,0,0,330,326534,944605
9,19,female,Belgisch,2,51,guess,win,5,right,9,guess_start,255,space,0,0,330,326272,944867
9,19,female,Belgisch,2,51,guess,win,5,right,9,guess_choice,319,f,0,0,330,325937,945202
9,19,female,Belgisch,2,51,guess,win,5,right,9,guess_outcome,0,undefined,0,0,350,324362,946777
9,19,female,Belgisch,2,51,ITC,win,5,right,9,ITC_start,544,space,0,0,350,323814,947325
9,19,female,Belgisch,2,51,ITC,win,5,right,9,ITC_choice,503,j,0,0,350,323308,947831
9,19,female,Belgisch,2,51,ITC,win,5,right,9,ITC_wait,0,undefined,0,0,350,318302,952837
9,19,female,Belgisch,2,51,ITC,win,5,right,9,ITC_collect,472,k,0,0,350,317825,953314
9,19,female,Belgisch,2,51,ITC,win,5,right,9,ITC_outcome,0,undefined,0,0,370,316807,954332
9,19,female,Belgisch,2,52,guess,loss,5,right,9,guess_start,237,space,0,0,370,316563,954576
9,19,female,Belgisch,2,52,guess,loss,5,right,9,guess_choice,303,j,0,0,370,316250,954889
9,19,female,Belgisch,2,52,guess,loss,5,right,9,guess_outcome,0,undefined,0,0,355,314685,956454
9,19,female,Belgisch,2,52,ITC,loss,5,right,9,ITC_start,610,space,0,0,355,314071,957068
9,19,female,Belgisch,2,52,ITC,loss,5,right,9,ITC_choice,1481,j,0,0,355,312585,958554
9,19,female,Belgisch,2,52,ITC,loss,5,right,9,ITC_wait,0,undefined,0,0,355,307578,963561
9,19,female,Belgisch,2,52,ITC,loss,5,right,9,ITC_collect,648,k,0,0,355,306924,964215
9,19,female,Belgisch,2,52,ITC,loss,5,right,9,ITC_outcome,0,undefined,0,0,375,305897,965242
9,19,female,Belgisch,2,53,guess,neutral,5,left,1,guess_start,262,space,0,0,375,305628,965511
9,19,female,Belgisch,2,53,guess,neutral,5,left,1,guess_choice,386,j,0,0,375,305214,965925
9,19,female,Belgisch,2,53,guess,neutral,5,left,1,guess_outcome,0,undefined,0,0,375,303637,967502
9,19,female,Belgisch,2,53,ITC,neutral,5,left,1,ITC_start,672,space,0,0,375,302961,968178
9,19,female,Belgisch,2,53,ITC,neutral,5,left,1,ITC_choice,895,f,0,0,375,302063,969076
9,19,female,Belgisch,2,53,ITC,neutral,5,left,1,ITC_wait,0,undefined,0,0,375,297055,974084
9,19,female,Belgisch,2,53,ITC,neutral,5,left,1,ITC_collect,372,k,0,0,375,296676,974463
9,19,female,Belgisch,2,53,ITC,neutral,5,left,1,ITC_outcome,0,undefined,0,0,395,295663,975476
9,19,female,Belgisch,2,54,guess,neutral,5,right,13,guess_start,256,space,0,0,395,295401,975738
9,19,female,Belgisch,2,54,guess,neutral,5,right,13,guess_choice,552,f,0,0,395,294816,976323
9,19,female,Belgisch,2,54,guess,neutral,5,right,13,guess_outcome,0,undefined,0,0,395,293233,977906
9,19,female,Belgisch,2,54,ITC,neutral,5,right,13,ITC_start,713,space,0,0,395,292514,978625
9,19,female,Belgisch,2,54,ITC,neutral,5,right,13,ITC_choice,641,j,0,0,395,291865,979274
9,19,female,Belgisch,2,54,ITC,neutral,5,right,13,ITC_wait,0,undefined,0,0,395,286858,984281
9,19,female,Belgisch,2,54,ITC,neutral,5,right,13,ITC_collect,788,k,0,0,395,286065,985074
9,19,female,Belgisch,2,54,ITC,neutral,5,right,13,ITC_outcome,0,undefined,0,0,415,285028,986111
9,19,female,Belgisch,2,55,guess,win,10,left,2,guess_start,409,space,0,0,415,284612,986527
9,19,female,Belgisch,2,55,guess,win,10,left,2,guess_choice,557,j,0,0,415,284037,987102
9,19,female,Belgisch,2,55,guess,win,10,left,2,guess_outcome,0,undefined,0,0,435,282452,988687
9,19,female,Belgisch,2,55,ITC,win,10,left,2,ITC_start,875,space,0,0,435,281571,989568
9,19,female,Belgisch,2,55,ITC,win,10,left,2,ITC_choice,589,f,0,0,435,280976,990163
9,19,female,Belgisch,2,55,ITC,win,10,left,2,ITC_wait,0,undefined,0,0,435,270971,1000168
9,19,female,Belgisch,2,55,ITC,win,10,left,2,ITC_collect,486,k,0,0,435,270480,1000659
9,19,female,Belgisch,2,55,ITC,win,10,left,2,ITC_outcome,0,undefined,0,0,455,269471,1001668
9,19,female,Belgisch,2,56,guess,neutral,5,left,16,guess_start,228,space,0,0,455,269241,1001898
9,19,female,Belgisch,2,56,guess,neutral,5,left,16,guess_choice,577,f,0,0,455,268656,1002483
9,19,female,Belgisch,2,56,guess,neutral,5,left,16,guess_outcome,0,undefined,0,0,455,267096,1004043
9,19,female,Belgisch,2,56,ITC,neutral,5,left,16,ITC_start,292,space,0,0,455,266800,1004339
9,19,female,Belgisch,2,56,ITC,neutral,5,left,16,ITC_choice,844,f,0,0,455,265951,1005188
9,19,female,Belgisch,2,56,ITC,neutral,5,left,16,ITC_wait,0,undefined,0,0,455,260946,1010193
9,19,female,Belgisch,2,56,ITC,neutral,5,left,16,ITC_collect,280,k,0,0,455,260662,1010477
9,19,female,Belgisch,2,56,ITC,neutral,5,left,16,ITC_outcome,0,undefined,0,0,475,259650,1011489
9,19,female,Belgisch,2,57,guess,win,5,right,11,guess_start,228,space,0,0,475,259419,1011720
9,19,female,Belgisch,2,57,guess,win,5,right,11,guess_choice,351,j,0,0,475,259056,1012083
9,19,female,Belgisch,2,57,guess,win,5,right,11,guess_outcome,0,undefined,0,0,495,257498,1013641
9,19,female,Belgisch,2,57,ITC,win,5,right,11,ITC_start,453,space,0,0,495,257041,1014098
9,19,female,Belgisch,2,57,ITC,win,5,right,11,ITC_choice,480,j,0,0,495,256559,1014580
9,19,female,Belgisch,2,57,ITC,win,5,right,11,ITC_wait,0,undefined,0,0,495,251556,1019583
9,19,female,Belgisch,2,57,ITC,win,5,right,11,ITC_collect,1622,k,0,0,495,249928,1021211
9,19,female,Belgisch,2,57,ITC,win,5,right,11,ITC_outcome,0,undefined,0,0,515,248913,1022226
9,19,female,Belgisch,2,58,guess,loss,5,left,13,guess_start,368,space,0,0,515,248541,1022598
9,19,female,Belgisch,2,58,guess,loss,5,left,13,guess_choice,504,j,0,0,515,248030,1023109
9,19,female,Belgisch,2,58,guess,loss,5,left,13,guess_outcome,0,undefined,0,0,500,246464,1024675
9,19,female,Belgisch,2,58,ITC,loss,5,left,13,ITC_start,652,space,0,0,500,245805,1025334
9,19,female,Belgisch,2,58,ITC,loss,5,left,13,ITC_choice,1317,j,0,0,500,244485,1026654
9,19,female,Belgisch,2,58,ITC,loss,5,left,13,ITC_wait,0,undefined,0,0,500,244479,1026660
9,19,female,Belgisch,2,58,ITC,loss,5,left,13,ITC_collect,1207,k,0,0,500,243266,1027873
9,19,female,Belgisch,2,58,ITC,loss,5,left,13,ITC_outcome,0,undefined,0,0,513,242249,1028890
9,19,female,Belgisch,2,59,guess,neutral,5,right,3,guess_start,708,space,0,0,513,241535,1029604
9,19,female,Belgisch,2,59,guess,neutral,5,right,3,guess_choice,574,f,0,0,513,240944,1030195
9,19,female,Belgisch,2,59,guess,neutral,5,right,3,guess_outcome,0,undefined,0,0,513,239378,1031761
9,19,female,Belgisch,2,59,ITC,neutral,5,right,3,ITC_start,347,space,0,0,513,239027,1032112
9,19,female,Belgisch,2,59,ITC,neutral,5,right,3,ITC_choice,652,j,0,0,513,238371,1032768
9,19,female,Belgisch,2,59,ITC,neutral,5,right,3,ITC_wait,0,undefined,0,0,513,233366,1037773
9,19,female,Belgisch,2,59,ITC,neutral,5,right,3,ITC_collect,667,k,0,0,513,232695,1038444
9,19,female,Belgisch,2,59,ITC,neutral,5,right,3,ITC_outcome,0,undefined,0,0,533,231687,1039452
9,19,female,Belgisch,2,60,guess,loss,10,right,4,guess_start,519,space,0,0,533,231161,1039978
9,19,female,Belgisch,2,60,guess,loss,10,right,4,guess_choice,692,f,0,0,533,230447,1040692
9,19,female,Belgisch,2,60,guess,loss,10,right,4,guess_outcome,0,undefined,0,0,518,228884,1042255
9,19,female,Belgisch,2,60,ITC,loss,10,right,4,ITC_start,406,space,0,0,518,228473,1042666
9,19,female,Belgisch,2,60,ITC,loss,10,right,4,ITC_choice,515,j,0,0,518,227951,1043188
9,19,female,Belgisch,2,60,ITC,loss,10,right,4,ITC_wait,0,undefined,0,0,518,217944,1053195
9,19,female,Belgisch,2,60,ITC,loss,10,right,4,ITC_collect,317,k,0,0,518,217620,1053519
9,19,female,Belgisch,2,60,ITC,loss,10,right,4,ITC_outcome,0,undefined,0,0,538,216592,1054547
9,19,female,Belgisch,2,61,guess,neutral,10,left,8,guess_start,296,space,0,0,538,216293,1054846
9,19,female,Belgisch,2,61,guess,neutral,10,left,8,guess_choice,366,j,0,0,538,215918,1055221
9,19,female,Belgisch,2,61,guess,neutral,10,left,8,guess_outcome,0,undefined,0,0,538,214342,1056797
9,19,female,Belgisch,2,61,ITC,neutral,10,left,8,ITC_start,336,space,0,0,538,214001,1057138
9,19,female,Belgisch,2,61,ITC,neutral,10,left,8,ITC_choice,724,f,0,0,538,213270,1057869
9,19,female,Belgisch,2,61,ITC,neutral,10,left,8,ITC_wait,0,undefined,0,0,538,203264,1067875
9,19,female,Belgisch,2,61,ITC,neutral,10,left,8,ITC_collect,335,k,0,0,538,202922,1068217
9,19,female,Belgisch,2,61,ITC,neutral,10,left,8,ITC_outcome,0,undefined,0,0,558,201889,1069250
9,19,female,Belgisch,2,62,guess,neutral,5,left,12,guess_start,358,space,0,0,558,201524,1069615
9,19,female,Belgisch,2,62,guess,neutral,5,left,12,guess_choice,691,f,0,0,558,200806,1070333
9,19,female,Belgisch,2,62,guess,neutral,5,left,12,guess_outcome,0,undefined,0,0,558,199230,1071909
9,19,female,Belgisch,2,62,ITC,neutral,5,left,12,ITC_start,341,space,0,0,558,198885,1072254
9,19,female,Belgisch,2,62,ITC,neutral,5,left,12,ITC_choice,780,f,0,0,558,198097,1073042
9,19,female,Belgisch,2,62,ITC,neutral,5,left,12,ITC_wait,0,undefined,0,0,558,193090,1078049
9,19,female,Belgisch,2,62,ITC,neutral,5,left,12,ITC_collect,378,k,0,0,558,192706,1078433
9,19,female,Belgisch,2,62,ITC,neutral,5,left,12,ITC_outcome,0,undefined,0,0,578,191666,1079473
9,19,female,Belgisch,2,63,guess,loss,5,right,10,guess_start,277,space,0,0,578,191385,1079754
9,19,female,Belgisch,2,63,guess,loss,5,right,10,guess_choice,506,j,0,0,578,190845,1080294
9,19,female,Belgisch,2,63,guess,loss,5,right,10,guess_outcome,0,undefined,0,0,563,189262,1081877
9,19,female,Belgisch,2,63,ITC,loss,5,right,10,ITC_start,300,space,0,0,563,188955,1082184
9,19,female,Belgisch,2,63,ITC,loss,5,right,10,ITC_choice,633,j,0,0,563,188316,1082823
9,19,female,Belgisch,2,63,ITC,loss,5,right,10,ITC_wait,0,undefined,0,0,563,183308,1087831
9,19,female,Belgisch,2,63,ITC,loss,5,right,10,ITC_collect,383,k,0,0,563,182916,1088223
9,19,female,Belgisch,2,63,ITC,loss,5,right,10,ITC_outcome,0,undefined,0,0,583,181882,1089257
9,19,female,Belgisch,2,64,guess,neutral,10,right,7,guess_start,554,space,0,0,583,181320,1089819
9,19,female,Belgisch,2,64,guess,neutral,10,right,7,guess_choice,771,j,0,0,583,180514,1090625
9,19,female,Belgisch,2,64,guess,neutral,10,right,7,guess_outcome,0,undefined,0,0,583,178930,1092209
9,19,female,Belgisch,2,64,ITC,neutral,10,right,7,ITC_start,247,space,0,0,583,178677,1092462
9,19,female,Belgisch,2,64,ITC,neutral,10,right,7,ITC_choice,614,j,0,0,583,178057,1093082
9,19,female,Belgisch,2,64,ITC,neutral,10,right,7,ITC_wait,0,undefined,0,0,583,168050,1103089
9,19,female,Belgisch,2,64,ITC,neutral,10,right,7,ITC_collect,386,k,0,0,583,167656,1103483
9,19,female,Belgisch,2,64,ITC,neutral,10,right,7,ITC_outcome,0,undefined,0,0,603,166621,1104518
9,19,female,Belgisch,2,65,guess,neutral,5,right,5,guess_start,149,space,0,0,603,166468,1104671
9,19,female,Belgisch,2,65,guess,neutral,5,right,5,guess_choice,393,j,0,0,603,166066,1105073
9,19,female,Belgisch,2,65,guess,neutral,5,right,5,guess_outcome,0,undefined,0,0,603,164508,1106631
9,19,female,Belgisch,2,65,ITC,neutral,5,right,5,ITC_start,236,space,0,0,603,164268,1106871
9,19,female,Belgisch,2,65,ITC,neutral,5,right,5,ITC_choice,495,j,0,0,603,163769,1107370
9,19,female,Belgisch,2,65,ITC,neutral,5,right,5,ITC_wait,0,undefined,0,0,603,158764,1112375
9,19,female,Belgisch,2,65,ITC,neutral,5,right,5,ITC_collect,849,k,0,0,603,157911,1113228
9,19,female,Belgisch,2,65,ITC,neutral,5,right,5,ITC_outcome,0,undefined,0,0,623,156903,1114236
9,19,female,Belgisch,2,66,guess,loss,5,left,2,guess_start,19,space,0,0,623,156879,1114260
9,19,female,Belgisch,2,66,guess,loss,5,left,2,guess_choice,510,j,0,0,623,156356,1114783
9,19,female,Belgisch,2,66,guess,loss,5,left,2,guess_outcome,0,undefined,0,0,608,154797,1116342
9,19,female,Belgisch,2,66,ITC,loss,5,left,2,ITC_start,564,space,0,0,608,154230,1116909
9,19,female,Belgisch,2,66,ITC,loss,5,left,2,ITC_choice,583,f,0,0,608,153644,1117495
9,19,female,Belgisch,2,66,ITC,loss,5,left,2,ITC_wait,0,undefined,0,0,608,148637,1122502
9,19,female,Belgisch,2,66,ITC,loss,5,left,2,ITC_collect,769,k,0,0,608,147866,1123273
9,19,female,Belgisch,2,66,ITC,loss,5,left,2,ITC_outcome,0,undefined,0,0,628,146853,1124286
9,19,female,Belgisch,2,67,guess,loss,10,left,3,guess_start,273,space,0,0,628,146574,1124565
9,19,female,Belgisch,2,67,guess,loss,10,left,3,guess_choice,507,j,0,0,628,146054,1125085
9,19,female,Belgisch,2,67,guess,loss,10,left,3,guess_outcome,0,undefined,0,0,613,144487,1126652
9,19,female,Belgisch,2,67,ITC,loss,10,left,3,ITC_start,308,space,0,0,613,144175,1126964
9,19,female,Belgisch,2,67,ITC,loss,10,left,3,ITC_choice,613,f,0,0,613,143558,1127581
9,19,female,Belgisch,2,67,ITC,loss,10,left,3,ITC_wait,0,undefined,0,0,613,133553,1137586
9,19,female,Belgisch,2,67,ITC,loss,10,left,3,ITC_collect,570,k,0,0,613,132976,1138163
9,19,female,Belgisch,2,67,ITC,loss,10,left,3,ITC_outcome,0,undefined,0,0,633,131959,1139180
9,19,female,Belgisch,2,68,guess,neutral,10,left,4,guess_start,439,space,0,0,633,131515,1139624
9,19,female,Belgisch,2,68,guess,neutral,10,left,4,guess_choice,625,f,0,0,633,130868,1140271
9,19,female,Belgisch,2,68,guess,neutral,10,left,4,guess_outcome,0,undefined,0,0,633,129296,1141843
9,19,female,Belgisch,2,68,ITC,neutral,10,left,4,ITC_start,293,space,0,0,633,128997,1142142
9,19,female,Belgisch,2,68,ITC,neutral,10,left,4,ITC_choice,1367,j,0,0,633,127626,1143513
9,19,female,Belgisch,2,68,ITC,neutral,10,left,4,ITC_wait,0,undefined,0,0,633,127618,1143521
9,19,female,Belgisch,2,68,ITC,neutral,10,left,4,ITC_collect,850,k,0,0,633,126763,1144376
9,19,female,Belgisch,2,68,ITC,neutral,10,left,4,ITC_outcome,0,undefined,0,0,637,125744,1145395
9,19,female,Belgisch,2,69,guess,loss,5,right,7,guess_start,410,space,0,0,637,125325,1145814
9,19,female,Belgisch,2,69,guess,loss,5,right,7,guess_choice,691,j,0,0,637,124615,1146524
9,19,female,Belgisch,2,69,guess,loss,5,right,7,guess_outcome,0,undefined,0,0,622,123040,1148099
9,19,female,Belgisch,2,69,ITC,loss,5,right,7,ITC_start,584,space,0,0,622,122452,1148687
9,19,female,Belgisch,2,69,ITC,loss,5,right,7,ITC_choice,604,j,0,0,622,121840,1149299
9,19,female,Belgisch,2,69,ITC,loss,5,right,7,ITC_wait,0,undefined,0,0,622,116835,1154304
9,19,female,Belgisch,2,69,ITC,loss,5,right,7,ITC_collect,298,k,0,0,622,116531,1154608
9,19,female,Belgisch,2,69,ITC,loss,5,right,7,ITC_outcome,0,undefined,0,0,642,115510,1155629
9,19,female,Belgisch,2,70,guess,loss,5,left,14,guess_start,304,space,0,0,642,115201,1155938
9,19,female,Belgisch,2,70,guess,loss,5,left,14,guess_choice,550,j,0,0,642,114642,1156497
9,19,female,Belgisch,2,70,guess,loss,5,left,14,guess_outcome,0,undefined,0,0,627,113070,1158069
9,19,female,Belgisch,2,70,ITC,loss,5,left,14,ITC_start,513,space,0,0,627,112554,1158585
9,19,female,Belgisch,2,70,ITC,loss,5,left,14,ITC_choice,785,j,0,0,627,111766,1159373
9,19,female,Belgisch,2,70,ITC,loss,5,left,14,ITC_wait,0,undefined,0,0,627,111759,1159380
9,19,female,Belgisch,2,70,ITC,loss,5,left,14,ITC_collect,1070,k,0,0,627,110685,1160454
9,19,female,Belgisch,2,70,ITC,loss,5,left,14,ITC_outcome,0,undefined,0,0,641,109663,1161476
9,19,female,Belgisch,2,71,guess,loss,5,left,16,guess_start,323,space,0,0,641,109329,1161810
9,19,female,Belgisch,2,71,guess,loss,5,left,16,guess_choice,1058,j,0,0,641,108248,1162891
9,19,female,Belgisch,2,71,guess,loss,5,left,16,guess_outcome,0,undefined,0,0,626,106670,1164469
9,19,female,Belgisch,2,71,ITC,loss,5,left,16,ITC_start,430,space,0,0,626,106236,1164903
9,19,female,Belgisch,2,71,ITC,loss,5,left,16,ITC_choice,787,j,0,0,626,105444,1165695
9,19,female,Belgisch,2,71,ITC,loss,5,left,16,ITC_wait,0,undefined,0,0,626,105435,1165704
9,19,female,Belgisch,2,71,ITC,loss,5,left,16,ITC_collect,1132,k,0,0,626,104296,1166843
9,19,female,Belgisch,2,71,ITC,loss,5,left,16,ITC_outcome,0,undefined,0,0,642,103272,1167867
9,19,female,Belgisch,2,72,guess,win,10,right,7,guess_start,448,space,0,0,642,102819,1168320
9,19,female,Belgisch,2,72,guess,win,10,right,7,guess_choice,723,f,0,0,642,102064,1169075
9,19,female,Belgisch,2,72,guess,win,10,right,7,guess_outcome,0,undefined,0,0,662,100487,1170652
9,19,female,Belgisch,2,72,ITC,win,10,right,7,ITC_start,853,space,0,0,662,99630,1171509
9,19,female,Belgisch,2,72,ITC,win,10,right,7,ITC_choice,860,j,0,0,662,98765,1172374
9,19,female,Belgisch,2,72,ITC,win,10,right,7,ITC_wait,0,undefined,0,0,662,88760,1182379
9,19,female,Belgisch,2,72,ITC,win,10,right,7,ITC_collect,309,k,0,0,662,88444,1182695
9,19,female,Belgisch,2,72,ITC,win,10,right,7,ITC_outcome,0,undefined,0,0,682,87413,1183726
9,19,female,Belgisch,2,73,guess,neutral,5,right,5,guess_start,325,space,0,0,682,87077,1184062
9,19,female,Belgisch,2,73,guess,neutral,5,right,5,guess_choice,1130,j,0,0,682,85918,1185221
9,19,female,Belgisch,2,73,guess,neutral,5,right,5,guess_outcome,0,undefined,0,0,682,84340,1186799
9,19,female,Belgisch,2,73,ITC,neutral,5,right,5,ITC_start,398,space,0,0,682,83937,1187202
9,19,female,Belgisch,2,73,ITC,neutral,5,right,5,ITC_choice,919,f,0,0,682,83014,1188125
9,19,female,Belgisch,2,73,ITC,neutral,5,right,5,ITC_wait,0,undefined,0,0,682,83001,1188138
9,19,female,Belgisch,2,73,ITC,neutral,5,right,5,ITC_collect,879,k,0,0,682,82116,1189023
9,19,female,Belgisch,2,73,ITC,neutral,5,right,5,ITC_outcome,0,undefined,0,0,687,81083,1190056
9,19,female,Belgisch,2,74,guess,win,10,right,7,guess_start,349,space,0,0,687,80726,1190413
9,19,female,Belgisch,2,74,guess,win,10,right,7,guess_choice,581,j,0,0,687,80118,1191021
9,19,female,Belgisch,2,74,guess,win,10,right,7,guess_outcome,0,undefined,0,0,707,78535,1192604
9,19,female,Belgisch,2,74,ITC,win,10,right,7,ITC_start,550,space,0,0,707,77980,1193159
9,19,female,Belgisch,2,74,ITC,win,10,right,7,ITC_choice,759,j,0,0,707,77215,1193924
9,19,female,Belgisch,2,74,ITC,win,10,right,7,ITC_wait,0,undefined,0,0,707,67209,1203930
9,19,female,Belgisch,2,74,ITC,win,10,right,7,ITC_collect,637,k,0,0,707,66565,1204574
9,19,female,Belgisch,2,74,ITC,win,10,right,7,ITC_outcome,0,undefined,0,0,727,65538,1205601
9,19,female,Belgisch,2,75,guess,neutral,10,left,7,guess_start,352,space,0,0,727,65181,1205958
9,19,female,Belgisch,2,75,guess,neutral,10,left,7,guess_choice,781,j,0,0,727,64394,1206745
9,19,female,Belgisch,2,75,guess,neutral,10,left,7,guess_outcome,0,undefined,0,0,727,62834,1208305
9,19,female,Belgisch,2,75,ITC,neutral,10,left,7,ITC_start,327,space,0,0,727,62505,1208634
9,19,female,Belgisch,2,75,ITC,neutral,10,left,7,ITC_choice,1185,j,0,0,727,61317,1209822
9,19,female,Belgisch,2,75,ITC,neutral,10,left,7,ITC_wait,0,undefined,0,0,727,61313,1209826
9,19,female,Belgisch,2,75,ITC,neutral,10,left,7,ITC_collect,1175,k,0,0,727,60136,1211003
9,19,female,Belgisch,2,75,ITC,neutral,10,left,7,ITC_outcome,0,undefined,0,0,734,59124,1212015
9,19,female,Belgisch,2,76,guess,loss,5,left,11,guess_start,330,space,0,0,734,58791,1212348
9,19,female,Belgisch,2,76,guess,loss,5,left,11,guess_choice,610,j,0,0,734,58169,1212970
9,19,female,Belgisch,2,76,guess,loss,5,left,11,guess_outcome,0,undefined,0,0,719,56610,1214529
9,19,female,Belgisch,2,76,ITC,loss,5,left,11,ITC_start,570,space,0,0,719,56035,1215104
9,19,female,Belgisch,2,76,ITC,loss,5,left,11,ITC_choice,865,j,0,0,719,55166,1215973
9,19,female,Belgisch,2,76,ITC,loss,5,left,11,ITC_wait,0,undefined,0,0,719,55162,1215977
9,19,female,Belgisch,2,76,ITC,loss,5,left,11,ITC_collect,866,k,0,0,719,54293,1216846
9,19,female,Belgisch,2,76,ITC,loss,5,left,11,ITC_outcome,0,undefined,0,0,730,53287,1217852
9,19,female,Belgisch,2,77,guess,neutral,10,left,3,guess_start,303,space,0,0,730,52978,1218161
9,19,female,Belgisch,2,77,guess,neutral,10,left,3,guess_choice,796,j,0,0,730,52171,1218968
9,19,female,Belgisch,2,77,guess,neutral,10,left,3,guess_outcome,0,undefined,0,0,730,50608,1220531
9,19,female,Belgisch,2,77,ITC,neutral,10,left,3,ITC_start,730,space,0,0,730,49875,1221264
9,19,female,Belgisch,2,77,ITC,neutral,10,left,3,ITC_choice,568,j,0,0,730,49303,1221836
9,19,female,Belgisch,2,77,ITC,neutral,10,left,3,ITC_wait,0,undefined,0,0,730,49300,1221839
9,19,female,Belgisch,2,77,ITC,neutral,10,left,3,ITC_collect,1114,k,0,0,730,48185,1222954
9,19,female,Belgisch,2,77,ITC,neutral,10,left,3,ITC_outcome,0,undefined,0,0,733,47173,1223966
9,19,female,Belgisch,2,78,guess,neutral,5,right,7,guess_start,274,space,0,0,733,46894,1224245
9,19,female,Belgisch,2,78,guess,neutral,5,right,7,guess_choice,633,j,0,0,733,46249,1224890
9,19,female,Belgisch,2,78,guess,neutral,5,right,7,guess_outcome,0,undefined,0,0,733,44691,1226448
9,19,female,Belgisch,2,78,ITC,neutral,5,right,7,ITC_start,598,space,0,0,733,44090,1227049
9,19,female,Belgisch,2,78,ITC,neutral,5,right,7,ITC_choice,1093,j,0,0,733,42991,1228148
9,19,female,Belgisch,2,78,ITC,neutral,5,right,7,ITC_wait,0,undefined,0,0,733,37986,1233153
9,19,female,Belgisch,2,78,ITC,neutral,5,right,7,ITC_collect,298,k,0,0,733,37684,1233455
9,19,female,Belgisch,2,78,ITC,neutral,5,right,7,ITC_outcome,0,undefined,0,0,753,36668,1234471
9,19,female,Belgisch,2,79,guess,win,10,left,5,guess_start,216,space,0,0,753,36445,1234694
9,19,female,Belgisch,2,79,guess,win,10,left,5,guess_choice,482,j,0,0,753,35948,1235191
9,19,female,Belgisch,2,79,guess,win,10,left,5,guess_outcome,0,undefined,0,0,773,34378,1236761
9,19,female,Belgisch,2,79,ITC,win,10,left,5,ITC_start,567,space,0,0,773,33804,1237335
9,19,female,Belgisch,2,79,ITC,win,10,left,5,ITC_choice,622,j,0,0,773,33176,1237963
9,19,female,Belgisch,2,79,ITC,win,10,left,5,ITC_wait,0,undefined,0,0,773,33168,1237971
9,19,female,Belgisch,2,79,ITC,win,10,left,5,ITC_collect,858,k,0,0,773,32304,1238835
9,19,female,Belgisch,2,79,ITC,win,10,left,5,ITC_outcome,0,undefined,0,0,778,31283,1239856
9,19,female,Belgisch,2,80,guess,loss,5,left,14,guess_start,287,space,0,0,778,30986,1240153
9,19,female,Belgisch,2,80,guess,loss,5,left,14,guess_choice,625,j,0,0,778,30344,1240795
9,19,female,Belgisch,2,80,guess,loss,5,left,14,guess_outcome,0,undefined,0,0,763,28779,1242360
9,19,female,Belgisch,2,80,ITC,loss,5,left,14,ITC_start,322,space,0,0,763,28450,1242689
9,19,female,Belgisch,2,80,ITC,loss,5,left,14,ITC_choice,535,j,0,0,763,27910,1243229
9,19,female,Belgisch,2,80,ITC,loss,5,left,14,ITC_wait,0,undefined,0,0,763,27902,1243237
9,19,female,Belgisch,2,80,ITC,loss,5,left,14,ITC_collect,838,k,0,0,763,27060,1244079
9,19,female,Belgisch,2,80,ITC,loss,5,left,14,ITC_outcome,0,undefined,0,0,777,26034,1245105
9,19,female,Belgisch,2,81,guess,neutral,5,right,6,guess_start,246,space,0,0,777,25783,1245356
9,19,female,Belgisch,2,81,guess,neutral,5,right,6,guess_choice,562,j,0,0,777,25200,1245939
9,19,female,Belgisch,2,81,guess,neutral,5,right,6,guess_outcome,0,undefined,0,0,777,23629,1247510
9,19,female,Belgisch,2,81,ITC,neutral,5,right,6,ITC_start,289,space,0,0,777,23336,1247803
9,19,female,Belgisch,2,81,ITC,neutral,5,right,6,ITC_choice,1247,f,0,0,777,22085,1249054
9,19,female,Belgisch,2,81,ITC,neutral,5,right,6,ITC_wait,0,undefined,0,0,777,22078,1249061
9,19,female,Belgisch,2,81,ITC,neutral,5,right,6,ITC_collect,864,k,0,0,777,21206,1249933
9,19,female,Belgisch,2,81,ITC,neutral,5,right,6,ITC_outcome,0,undefined,0,0,783,20188,1250951
9,19,female,Belgisch,2,82,guess,win,5,right,5,guess_start,210,space,0,0,783,19971,1251168
9,19,female,Belgisch,2,82,guess,win,5,right,5,guess_choice,898,f,0,0,783,19053,1252086
9,19,female,Belgisch,2,82,guess,win,5,right,5,guess_outcome,0,undefined,0,0,803,17481,1253658
9,19,female,Belgisch,2,82,ITC,win,5,right,5,ITC_start,403,space,0,0,803,17074,1254065
9,19,female,Belgisch,2,82,ITC,win,5,right,5,ITC_choice,1013,f,0,0,803,16056,1255083
9,19,female,Belgisch,2,82,ITC,win,5,right,5,ITC_wait,0,undefined,0,0,803,16048,1255091
9,19,female,Belgisch,2,82,ITC,win,5,right,5,ITC_collect,770,k,0,0,803,15272,1255867
9,19,female,Belgisch,2,82,ITC,win,5,right,5,ITC_outcome,0,undefined,0,0,808,14250,1256889
9,19,female,Belgisch,2,83,guess,loss,10,right,7,guess_start,262,space,0,0,808,13979,1257160
9,19,female,Belgisch,2,83,guess,loss,10,right,7,guess_choice,595,j,0,0,808,13361,1257778
9,19,female,Belgisch,2,83,guess,loss,10,right,7,guess_outcome,0,undefined,0,0,793,11788,1259351
9,19,female,Belgisch,2,83,ITC,loss,10,right,7,ITC_start,397,space,0,0,793,11386,1259753
9,19,female,Belgisch,2,83,ITC,loss,10,right,7,ITC_choice,1017,f,0,0,793,10365,1260774
9,19,female,Belgisch,2,83,ITC,loss,10,right,7,ITC_wait,0,undefined,0,0,793,10359,1260780
9,19,female,Belgisch,2,83,ITC,loss,10,right,7,ITC_collect,839,k,0,0,793,9514,1261625
9,19,female,Belgisch,2,83,ITC,loss,10,right,7,ITC_outcome,0,undefined,0,0,800,8492,1262647
9,19,female,Belgisch,2,84,guess,loss,5,right,1,guess_start,706,space,0,0,800,7776,1263363
9,19,female,Belgisch,2,84,guess,loss,5,right,1,guess_choice,625,j,0,0,800,7132,1264007
9,19,female,Belgisch,2,84,guess,loss,5,right,1,guess_outcome,0,undefined,0,0,785,5558,1265581
9,19,female,Belgisch,2,84,ITC,loss,5,right,1,ITC_start,464,space,0,0,785,5089,1266050
9,19,female,Belgisch,2,84,ITC,loss,5,right,1,ITC_choice,1152,j,0,0,785,3934,1267205
9,19,female,Belgisch,2,84,ITC,loss,5,right,1,ITC_wait,0,undefined,0,0,785,-5,1271144
9,19,female,Belgisch,3,85,guess,loss,5,left,6,guess_start,1553,space,0,0,0,478444,1284593
9,19,female,Belgisch,3,85,guess,loss,5,left,6,guess_choice,685,j,0,0,0,477734,1285303
9,19,female,Belgisch,3,85,guess,loss,5,left,6,guess_outcome,0,undefined,0,0,-15,476157,1286880
9,19,female,Belgisch,3,85,ITC,loss,5,left,6,ITC_start,606,space,0,0,-15,475545,1287492
9,19,female,Belgisch,3,85,ITC,loss,5,left,6,ITC_choice,904,f,0,0,-15,474637,1288400
9,19,female,Belgisch,3,85,ITC,loss,5,left,6,ITC_wait,0,undefined,0,0,-15,469632,1293405
9,19,female,Belgisch,3,85,ITC,loss,5,left,6,ITC_collect,844,k,0,0,-15,468785,1294252
9,19,female,Belgisch,3,85,ITC,loss,5,left,6,ITC_outcome,0,undefined,0,0,5,467777,1295260
9,19,female,Belgisch,3,86,guess,neutral,5,left,10,guess_start,436,space,0,0,5,467337,1295700
9,19,female,Belgisch,3,86,guess,neutral,5,left,10,guess_choice,628,f,0,0,5,466699,1296338
9,19,female,Belgisch,3,86,guess,neutral,5,left,10,guess_outcome,0,undefined,0,0,5,465136,1297901
9,19,female,Belgisch,3,86,ITC,neutral,5,left,10,ITC_start,446,space,0,0,5,464687,1298350
9,19,female,Belgisch,3,86,ITC,neutral,5,left,10,ITC_choice,813,f,0,0,5,463870,1299167
9,19,female,Belgisch,3,86,ITC,neutral,5,left,10,ITC_wait,0,undefined,0,0,5,458866,1304171
9,19,female,Belgisch,3,86,ITC,neutral,5,left,10,ITC_collect,644,k,0,0,5,458220,1304817
9,19,female,Belgisch,3,86,ITC,neutral,5,left,10,ITC_outcome,0,undefined,0,0,25,457204,1305833
9,19,female,Belgisch,3,87,guess,loss,10,right,6,guess_start,649,space,0,0,25,456550,1306487
9,19,female,Belgisch,3,87,guess,loss,10,right,6,guess_choice,490,j,0,0,25,456040,1306997
9,19,female,Belgisch,3,87,guess,loss,10,right,6,guess_outcome,0,undefined,0,0,10,454477,1308560
9,19,female,Belgisch,3,87,ITC,loss,10,right,6,ITC_start,621,space,0,0,10,453854,1309183
9,19,female,Belgisch,3,87,ITC,loss,10,right,6,ITC_choice,638,j,0,0,10,453213,1309824
9,19,female,Belgisch,3,87,ITC,loss,10,right,6,ITC_wait,0,undefined,0,0,10,443209,1319828
9,19,female,Belgisch,3,87,ITC,loss,10,right,6,ITC_collect,432,k,0,0,10,442772,1320265
9,19,female,Belgisch,3,87,ITC,loss,10,right,6,ITC_outcome,0,undefined,0,0,30,441757,1321280
9,19,female,Belgisch,3,88,guess,neutral,5,right,3,guess_start,23,space,0,0,30,441726,1321311
9,19,female,Belgisch,3,88,guess,neutral,5,right,3,guess_choice,1544,f,0,0,30,440172,1322865
9,19,female,Belgisch,3,88,guess,neutral,5,right,3,guess_outcome,0,undefined,0,0,30,438603,1324434
9,19,female,Belgisch,3,88,ITC,neutral,5,right,3,ITC_start,562,space,0,0,30,438037,1325000
9,19,female,Belgisch,3,88,ITC,neutral,5,right,3,ITC_choice,752,j,0,0,30,437281,1325756
9,19,female,Belgisch,3,88,ITC,neutral,5,right,3,ITC_wait,0,undefined,0,0,30,432278,1330759
9,19,female,Belgisch,3,88,ITC,neutral,5,right,3,ITC_collect,572,k,0,0,30,431701,1331336
9,19,female,Belgisch,3,88,ITC,neutral,5,right,3,ITC_outcome,0,undefined,0,0,50,430688,1332349
9,19,female,Belgisch,3,89,guess,win,5,right,7,guess_start,723,space,0,0,50,429960,1333077
9,19,female,Belgisch,3,89,guess,win,5,right,7,guess_choice,783,j,0,0,50,429156,1333881
9,19,female,Belgisch,3,89,guess,win,5,right,7,guess_outcome,0,undefined,0,0,70,427576,1335461
9,19,female,Belgisch,3,89,ITC,win,5,right,7,ITC_start,306,space,0,0,70,427266,1335771
9,19,female,Belgisch,3,89,ITC,win,5,right,7,ITC_choice,534,j,0,0,70,426728,1336309
9,19,female,Belgisch,3,89,ITC,win,5,right,7,ITC_wait,0,undefined,0,0,70,421724,1341313
9,19,female,Belgisch,3,89,ITC,win,5,right,7,ITC_collect,728,k,0,0,70,420990,1342047
9,19,female,Belgisch,3,89,ITC,win,5,right,7,ITC_outcome,0,undefined,0,0,90,419968,1343069
9,19,female,Belgisch,3,90,guess,win,5,right,3,guess_start,499,space,0,0,90,419464,1343573
9,19,female,Belgisch,3,90,guess,win,5,right,3,guess_choice,673,f,0,0,90,418768,1344269
9,19,female,Belgisch,3,90,guess,win,5,right,3,guess_outcome,0,undefined,0,0,110,417197,1345840
9,19,female,Belgisch,3,90,ITC,win,5,right,3,ITC_start,657,space,0,0,110,416536,1346501
9,19,female,Belgisch,3,90,ITC,win,5,right,3,ITC_choice,668,j,0,0,110,415862,1347175
9,19,female,Belgisch,3,90,ITC,win,5,right,3,ITC_wait,0,undefined,0,0,110,410854,1352183
9,19,female,Belgisch,3,90,ITC,win,5,right,3,ITC_collect,738,k,0,0,110,410110,1352927
9,19,female,Belgisch,3,90,ITC,win,5,right,3,ITC_outcome,0,undefined,0,0,130,409084,1353953
9,19,female,Belgisch,3,91,guess,neutral,5,right,14,guess_start,287,space,0,0,130,408791,1354246
9,19,female,Belgisch,3,91,guess,neutral,5,right,14,guess_choice,408,j,0,0,130,408357,1354680
9,19,female,Belgisch,3,91,guess,neutral,5,right,14,guess_outcome,0,undefined,0,0,130,406778,1356259
9,19,female,Belgisch,3,91,ITC,neutral,5,right,14,ITC_start,644,space,0,0,130,406129,1356908
9,19,female,Belgisch,3,91,ITC,neutral,5,right,14,ITC_choice,854,j,0,0,130,405271,1357766
9,19,female,Belgisch,3,91,ITC,neutral,5,right,14,ITC_wait,0,undefined,0,0,130,400264,1362773
9,19,female,Belgisch,3,91,ITC,neutral,5,right,14,ITC_collect,367,k,0,0,130,399890,1363147
9,19,female,Belgisch,3,91,ITC,neutral,5,right,14,ITC_outcome,0,undefined,0,0,150,398861,1364176
9,19,female,Belgisch,3,92,guess,loss,5,left,13,guess_start,396,space,0,0,150,398459,1364578
9,19,female,Belgisch,3,92,guess,loss,5,left,13,guess_choice,437,j,0,0,150,397996,1365041
9,19,female,Belgisch,3,92,guess,loss,5,left,13,guess_outcome,0,undefined,0,0,135,396413,1366624
9,19,female,Belgisch,3,92,ITC,loss,5,left,13,ITC_start,734,space,0,0,135,395674,1367363
9,19,female,Belgisch,3,92,ITC,loss,5,left,13,ITC_choice,691,f,0,0,135,394978,1368059
9,19,female,Belgisch,3,92,ITC,loss,5,left,13,ITC_wait,0,undefined,0,0,135,389974,1373063
9,19,female,Belgisch,3,92,ITC,loss,5,left,13,ITC_collect,505,k,0,0,135,389463,1373574
9,19,female,Belgisch,3,92,ITC,loss,5,left,13,ITC_outcome,0,undefined,0,0,155,388435,1374602
9,19,female,Belgisch,3,93,guess,neutral,10,left,8,guess_start,197,space,0,0,155,388231,1374806
9,19,female,Belgisch,3,93,guess,neutral,10,left,8,guess_choice,543,j,0,0,155,387652,1375385
9,19,female,Belgisch,3,93,guess,neutral,10,left,8,guess_outcome,0,undefined,0,0,155,386072,1376965
9,19,female,Belgisch,3,93,ITC,neutral,10,left,8,ITC_start,573,space,0,0,155,385494,1377543
9,19,female,Belgisch,3,93,ITC,neutral,10,left,8,ITC_choice,591,f,0,0,155,384897,1378140
9,19,female,Belgisch,3,93,ITC,neutral,10,left,8,ITC_wait,0,undefined,0,0,155,374891,1388146
9,19,female,Belgisch,3,93,ITC,neutral,10,left,8,ITC_collect,652,k,0,0,155,374232,1388805
9,19,female,Belgisch,3,93,ITC,neutral,10,left,8,ITC_outcome,0,undefined,0,0,175,373192,1389845
9,19,female,Belgisch,3,94,guess,loss,5,left,2,guess_start,247,space,0,0,175,372937,1390100
9,19,female,Belgisch,3,94,guess,loss,5,left,2,guess_choice,574,j,0,0,175,372331,1390706
9,19,female,Belgisch,3,94,guess,loss,5,left,2,guess_outcome,0,undefined,0,0,160,370751,1392286
9,19,female,Belgisch,3,94,ITC,loss,5,left,2,ITC_start,637,space,0,0,160,370107,1392930
9,19,female,Belgisch,3,94,ITC,loss,5,left,2,ITC_choice,564,f,0,0,160,369537,1393500
9,19,female,Belgisch,3,94,ITC,loss,5,left,2,ITC_wait,0,undefined,0,0,160,364533,1398504
9,19,female,Belgisch,3,94,ITC,loss,5,left,2,ITC_collect,592,k,0,0,160,363936,1399101
9,19,female,Belgisch,3,94,ITC,loss,5,left,2,ITC_outcome,0,undefined,0,0,180,362929,1400108
9,19,female,Belgisch,3,95,guess,win,5,right,12,guess_start,56,space,0,0,180,362869,1400168
9,19,female,Belgisch,3,95,guess,win,5,right,12,guess_choice,643,j,0,0,180,362221,1400816
9,19,female,Belgisch,3,95,guess,win,5,right,12,guess_outcome,0,undefined,0,0,200,360661,1402376
9,19,female,Belgisch,3,95,ITC,win,5,right,12,ITC_start,212,space,0,0,200,360447,1402590
9,19,female,Belgisch,3,95,ITC,win,5,right,12,ITC_choice,570,j,0,0,200,359872,1403165
9,19,female,Belgisch,3,95,ITC,win,5,right,12,ITC_wait,0,undefined,0,0,200,354869,1408168
9,19,female,Belgisch,3,95,ITC,win,5,right,12,ITC_collect,1878,k,0,0,200,352987,1410050
9,19,female,Belgisch,3,95,ITC,win,5,right,12,ITC_outcome,0,undefined,0,0,220,351976,1411061
9,19,female,Belgisch,3,96,guess,win,5,left,11,guess_start,803,space,0,0,220,351167,1411870
9,19,female,Belgisch,3,96,guess,win,5,left,11,guess_choice,612,j,0,0,220,350540,1412497
9,19,female,Belgisch,3,96,guess,win,5,left,11,guess_outcome,0,undefined,0,0,240,348985,1414052
9,19,female,Belgisch,3,96,ITC,win,5,left,11,ITC_start,395,space,0,0,240,348587,1414450
9,19,female,Belgisch,3,96,ITC,win,5,left,11,ITC_choice,969,j,0,0,240,347614,1415423
9,19,female,Belgisch,3,96,ITC,win,5,left,11,ITC_wait,0,undefined,0,0,240,347606,1415431
9,19,female,Belgisch,3,96,ITC,win,5,left,11,ITC_collect,761,k,0,0,240,346841,1416196
9,19,female,Belgisch,3,96,ITC,win,5,left,11,ITC_outcome,0,undefined,0,0,251,345827,1417210
9,19,female,Belgisch,3,97,guess,neutral,5,right,9,guess_start,107,space,0,0,251,345714,1417323
9,19,female,Belgisch,3,97,guess,neutral,5,right,9,guess_choice,569,f,0,0,251,345132,1417905
9,19,female,Belgisch,3,97,guess,neutral,5,right,9,guess_outcome,0,undefined,0,0,251,343568,1419469
9,19,female,Belgisch,3,97,ITC,neutral,5,right,9,ITC_start,582,space,0,0,251,342982,1420055
9,19,female,Belgisch,3,97,ITC,neutral,5,right,9,ITC_choice,574,j,0,0,251,342404,1420633
9,19,female,Belgisch,3,97,ITC,neutral,5,right,9,ITC_wait,0,undefined,0,0,251,337399,1425638
9,19,female,Belgisch,3,97,ITC,neutral,5,right,9,ITC_collect,878,k,0,0,251,336516,1426521
9,19,female,Belgisch,3,97,ITC,neutral,5,right,9,ITC_outcome,0,undefined,0,0,271,335506,1427531
9,19,female,Belgisch,3,98,guess,win,5,right,1,guess_start,148,space,0,0,271,335355,1427682
9,19,female,Belgisch,3,98,guess,win,5,right,1,guess_choice,446,f,0,0,271,334897,1428140
9,19,female,Belgisch,3,98,guess,win,5,right,1,guess_outcome,0,undefined,0,0,291,333339,1429698
9,19,female,Belgisch,3,98,ITC,win,5,right,1,ITC_start,251,space,0,0,291,333085,1429952
9,19,female,Belgisch,3,98,ITC,win,5,right,1,ITC_choice,508,j,0,0,291,332574,1430463
9,19,female,Belgisch,3,98,ITC,win,5,right,1,ITC_wait,0,undefined,0,0,291,327571,1435466
9,19,female,Belgisch,3,98,ITC,win,5,right,1,ITC_collect,722,k,0,0,291,326844,1436193
9,19,female,Belgisch,3,98,ITC,win,5,right,1,ITC_outcome,0,undefined,0,0,311,325833,1437204
9,19,female,Belgisch,3,99,guess,win,10,left,4,guess_start,469,space,0,0,311,325358,1437679
9,19,female,Belgisch,3,99,guess,win,10,left,4,guess_choice,524,f,0,0,311,324827,1438210
9,19,female,Belgisch,3,99,guess,win,10,left,4,guess_outcome,0,undefined,0,0,331,323257,1439780
9,19,female,Belgisch,3,99,ITC,win,10,left,4,ITC_start,665,space,0,0,331,322588,1440449
9,19,female,Belgisch,3,99,ITC,win,10,left,4,ITC_choice,798,f,0,0,331,321784,1441253
9,19,female,Belgisch,3,99,ITC,win,10,left,4,ITC_wait,0,undefined,0,0,331,311780,1451257
9,19,female,Belgisch,3,99,ITC,win,10,left,4,ITC_collect,610,k,0,0,331,311165,1451872
9,19,female,Belgisch,3,99,ITC,win,10,left,4,ITC_outcome,0,undefined,0,0,351,310155,1452882
9,19,female,Belgisch,3,100,guess,neutral,5,right,4,guess_start,147,space,0,0,351,309999,1453038
9,19,female,Belgisch,3,100,guess,neutral,5,right,4,guess_choice,384,j,0,0,351,309585,1453452
9,19,female,Belgisch,3,100,guess,neutral,5,right,4,guess_outcome,0,undefined,0,0,351,308014,1455023
9,19,female,Belgisch,3,100,ITC,neutral,5,right,4,ITC_start,452,space,0,0,351,307559,1455478
9,19,female,Belgisch,3,100,ITC,neutral,5,right,4,ITC_choice,583,f,0,0,351,306974,1456063
9,19,female,Belgisch,3,100,ITC,neutral,5,right,4,ITC_wait,0,undefined,0,0,351,306969,1456068
9,19,female,Belgisch,3,100,ITC,neutral,5,right,4,ITC_collect,1192,k,0,0,351,305774,1457263
9,19,female,Belgisch,3,100,ITC,neutral,5,right,4,ITC_outcome,0,undefined,0,0,355,304759,1458278
9,19,female,Belgisch,3,101,guess,neutral,5,right,8,guess_start,201,space,0,0,355,304554,1458483
9,19,female,Belgisch,3,101,guess,neutral,5,right,8,guess_choice,533,f,0,0,355,304010,1459027
9,19,female,Belgisch,3,101,guess,neutral,5,right,8,guess_outcome,0,undefined,0,0,355,302446,1460591
9,19,female,Belgisch,3,101,ITC,neutral,5,right,8,ITC_start,657,space,0,0,355,301786,1461251
9,19,female,Belgisch,3,101,ITC,neutral,5,right,8,ITC_choice,575,j,0,0,355,301207,1461830
9,19,female,Belgisch,3,101,ITC,neutral,5,right,8,ITC_wait,0,undefined,0,0,355,296204,1466833
9,19,female,Belgisch,3,101,ITC,neutral,5,right,8,ITC_collect,714,k,0,0,355,295486,1467551
9,19,female,Belgisch,3,101,ITC,neutral,5,right,8,ITC_outcome,0,undefined,0,0,375,294474,1468563
9,19,female,Belgisch,3,102,guess,loss,10,right,1,guess_start,212,space,0,0,375,294258,1468779
9,19,female,Belgisch,3,102,guess,loss,10,right,1,guess_choice,364,j,0,0,375,293881,1469156
9,19,female,Belgisch,3,102,guess,loss,10,right,1,guess_outcome,0,undefined,0,0,360,292318,1470719
9,19,female,Belgisch,3,102,ITC,loss,10,right,1,ITC_start,225,space,0,0,360,292089,1470948
9,19,female,Belgisch,3,102,ITC,loss,10,right,1,ITC_choice,528,j,0,0,360,291558,1471479
9,19,female,Belgisch,3,102,ITC,loss,10,right,1,ITC_wait,0,undefined,0,0,360,281554,1481483
9,19,female,Belgisch,3,102,ITC,loss,10,right,1,ITC_collect,750,k,0,0,360,280798,1482239
9,19,female,Belgisch,3,102,ITC,loss,10,right,1,ITC_outcome,0,undefined,0,0,380,279774,1483263
9,19,female,Belgisch,3,103,guess,loss,5,right,15,guess_start,193,space,0,0,380,279574,1483463
9,19,female,Belgisch,3,103,guess,loss,5,right,15,guess_choice,432,j,0,0,380,279105,1483932
9,19,female,Belgisch,3,103,guess,loss,5,right,15,guess_outcome,0,undefined,0,0,365,277539,1485498
9,19,female,Belgisch,3,103,ITC,loss,5,right,15,ITC_start,448,space,0,0,365,277085,1485952
9,19,female,Belgisch,3,103,ITC,loss,5,right,15,ITC_choice,589,j,0,0,365,276488,1486549
9,19,female,Belgisch,3,103,ITC,loss,5,right,15,ITC_wait,0,undefined,0,0,365,271480,1491557
9,19,female,Belgisch,3,103,ITC,loss,5,right,15,ITC_collect,843,k,0,0,365,270632,1492405
9,19,female,Belgisch,3,103,ITC,loss,5,right,15,ITC_outcome,0,undefined,0,0,385,269610,1493427
9,19,female,Belgisch,3,104,guess,loss,5,right,12,guess_start,222,space,0,0,385,269384,1493653
9,19,female,Belgisch,3,104,guess,loss,5,right,12,guess_choice,567,f,0,0,385,268805,1494232
9,19,female,Belgisch,3,104,guess,loss,5,right,12,guess_outcome,0,undefined,0,0,370,267222,1495815
9,19,female,Belgisch,3,104,ITC,loss,5,right,12,ITC_start,616,space,0,0,370,266602,1496435
9,19,female,Belgisch,3,104,ITC,loss,5,right,12,ITC_choice,513,j,0,0,370,266085,1496952
9,19,female,Belgisch,3,104,ITC,loss,5,right,12,ITC_wait,0,undefined,0,0,370,261081,1501956
9,19,female,Belgisch,3,104,ITC,loss,5,right,12,ITC_collect,317,k,0,0,370,260760,1502277
9,19,female,Belgisch,3,104,ITC,loss,5,right,12,ITC_outcome,0,undefined,0,0,390,259751,1503286
9,19,female,Belgisch,3,105,guess,loss,5,left,7,guess_start,313,space,0,0,390,259432,1503605
9,19,female,Belgisch,3,105,guess,loss,5,left,7,guess_choice,550,j,0,0,390,258878,1504159
9,19,female,Belgisch,3,105,guess,loss,5,left,7,guess_outcome,0,undefined,0,0,375,257317,1505720
9,19,female,Belgisch,3,105,ITC,loss,5,left,7,ITC_start,635,space,0,0,375,256680,1506357
9,19,female,Belgisch,3,105,ITC,loss,5,left,7,ITC_choice,681,f,0,0,375,255995,1507042
9,19,female,Belgisch,3,105,ITC,loss,5,left,7,ITC_wait,0,undefined,0,0,375,250991,1512046
9,19,female,Belgisch,3,105,ITC,loss,5,left,7,ITC_collect,917,k,0,0,375,250071,1512966
9,19,female,Belgisch,3,105,ITC,loss,5,left,7,ITC_outcome,0,undefined,0,0,395,249066,1513971
9,19,female,Belgisch,3,106,guess,neutral,5,left,1,guess_start,528,space,0,0,395,248535,1514502
9,19,female,Belgisch,3,106,guess,neutral,5,left,1,guess_choice,672,f,0,0,395,247852,1515185
9,19,female,Belgisch,3,106,guess,neutral,5,left,1,guess_outcome,0,undefined,0,0,395,246287,1516750
9,19,female,Belgisch,3,106,ITC,neutral,5,left,1,ITC_start,555,space,0,0,395,245728,1517309
9,19,female,Belgisch,3,106,ITC,neutral,5,left,1,ITC_choice,832,f,0,0,395,244892,1518145
9,19,female,Belgisch,3,106,ITC,neutral,5,left,1,ITC_wait,0,undefined,0,0,395,239886,1523151
9,19,female,Belgisch,3,106,ITC,neutral,5,left,1,ITC_collect,820,k,0,0,395,239061,1523976
9,19,female,Belgisch,3,106,ITC,neutral,5,left,1,ITC_outcome,0,undefined,0,0,415,238049,1524988
9,19,female,Belgisch,3,107,guess,neutral,5,left,13,guess_start,62,space,0,0,415,237979,1525058
9,19,female,Belgisch,3,107,guess,neutral,5,left,13,guess_choice,547,f,0,0,415,237423,1525614
9,19,female,Belgisch,3,107,guess,neutral,5,left,13,guess_outcome,0,undefined,0,0,415,235864,1527173
9,19,female,Belgisch,3,107,ITC,neutral,5,left,13,ITC_start,428,space,0,0,415,235434,1527603
9,19,female,Belgisch,3,107,ITC,neutral,5,left,13,ITC_choice,1143,j,0,0,415,234286,1528751
9,19,female,Belgisch,3,107,ITC,neutral,5,left,13,ITC_wait,0,undefined,0,0,415,234278,1528759
9,19,female,Belgisch,3,107,ITC,neutral,5,left,13,ITC_collect,790,k,0,0,415,233486,1529551
9,19,female,Belgisch,3,107,ITC,neutral,5,left,13,ITC_outcome,0,undefined,0,0,428,232474,1530563
9,19,female,Belgisch,3,108,guess,win,5,left,16,guess_start,293,space,0,0,428,232175,1530862
9,19,female,Belgisch,3,108,guess,win,5,left,16,guess_choice,1714,f,0,0,428,230442,1532595
9,19,female,Belgisch,3,108,guess,win,5,left,16,guess_outcome,0,undefined,0,0,448,228882,1534155
9,19,female,Belgisch,3,108,ITC,win,5,left,16,ITC_start,578,space,0,0,448,228302,1534735
9,19,female,Belgisch,3,108,ITC,win,5,left,16,ITC_choice,839,j,0,0,448,227456,1535581
9,19,female,Belgisch,3,108,ITC,win,5,left,16,ITC_wait,0,undefined,0,0,448,227446,1535591
9,19,female,Belgisch,3,108,ITC,win,5,left,16,ITC_collect,783,k,0,0,448,226655,1536382
9,19,female,Belgisch,3,108,ITC,win,5,left,16,ITC_outcome,0,undefined,0,0,464,225635,1537402
9,19,female,Belgisch,3,109,guess,loss,10,right,8,guess_start,104,space,0,0,464,225525,1537512
9,19,female,Belgisch,3,109,guess,loss,10,right,8,guess_choice,1389,j,0,0,464,224125,1538912
9,19,female,Belgisch,3,109,guess,loss,10,right,8,guess_outcome,0,undefined,0,0,449,222564,1540473
9,19,female,Belgisch,3,109,ITC,loss,10,right,8,ITC_start,697,space,0,0,449,221863,1541174
9,19,female,Belgisch,3,109,ITC,loss,10,right,8,ITC_choice,1584,j,0,0,449,220275,1542762
9,19,female,Belgisch,3,109,ITC,loss,10,right,8,ITC_wait,0,undefined,0,0,449,210272,1552765
9,19,female,Belgisch,3,109,ITC,loss,10,right,8,ITC_collect,286,k,0,0,449,209981,1553056
9,19,female,Belgisch,3,109,ITC,loss,10,right,8,ITC_outcome,0,undefined,0,0,469,208961,1554076
9,19,female,Belgisch,3,110,guess,neutral,5,left,15,guess_start,277,space,0,0,469,208680,1554357
9,19,female,Belgisch,3,110,guess,neutral,5,left,15,guess_choice,493,f,0,0,469,208164,1554873
9,19,female,Belgisch,3,110,guess,neutral,5,left,15,guess_outcome,0,undefined,0,0,469,206595,1556442
9,19,female,Belgisch,3,110,ITC,neutral,5,left,15,ITC_start,606,space,0,0,469,205984,1557053
9,19,female,Belgisch,3,110,ITC,neutral,5,left,15,ITC_choice,615,f,0,0,469,205362,1557675
9,19,female,Belgisch,3,110,ITC,neutral,5,left,15,ITC_wait,0,undefined,0,0,469,200357,1562680
9,19,female,Belgisch,3,110,ITC,neutral,5,left,15,ITC_collect,490,k,0,0,469,199861,1563176
9,19,female,Belgisch,3,110,ITC,neutral,5,left,15,ITC_outcome,0,undefined,0,0,489,198837,1564200
9,19,female,Belgisch,3,111,guess,win,5,left,2,guess_start,308,space,0,0,489,198521,1564516
9,19,female,Belgisch,3,111,guess,win,5,left,2,guess_choice,622,j,0,0,489,197866,1565171
9,19,female,Belgisch,3,111,guess,win,5,left,2,guess_outcome,0,undefined,0,0,509,196290,1566747
9,19,female,Belgisch,3,111,ITC,win,5,left,2,ITC_start,267,space,0,0,509,196018,1567019
9,19,female,Belgisch,3,111,ITC,win,5,left,2,ITC_choice,635,f,0,0,509,195376,1567661
9,19,female,Belgisch,3,111,ITC,win,5,left,2,ITC_wait,0,undefined,0,0,509,190369,1572668
9,19,female,Belgisch,3,111,ITC,win,5,left,2,ITC_collect,698,k,0,0,509,189665,1573372
9,19,female,Belgisch,3,111,ITC,win,5,left,2,ITC_outcome,0,undefined,0,0,529,188634,1574403
9,19,female,Belgisch,3,112,guess,win,10,left,2,guess_start,303,space,0,0,529,188326,1574711
9,19,female,Belgisch,3,112,guess,win,10,left,2,guess_choice,468,j,0,0,529,187819,1575218
9,19,female,Belgisch,3,112,guess,win,10,left,2,guess_outcome,0,undefined,0,0,549,186245,1576792
9,19,female,Belgisch,3,112,ITC,win,10,left,2,ITC_start,240,space,0,0,549,185998,1577039
9,19,female,Belgisch,3,112,ITC,win,10,left,2,ITC_choice,563,f,0,0,549,185430,1577607
9,19,female,Belgisch,3,112,ITC,win,10,left,2,ITC_wait,0,undefined,0,0,549,175423,1587614
9,19,female,Belgisch,3,112,ITC,win,10,left,2,ITC_collect,410,k,0,0,549,175006,1588031
9,19,female,Belgisch,3,112,ITC,win,10,left,2,ITC_outcome,0,undefined,0,0,569,173974,1589063
9,19,female,Belgisch,3,113,guess,neutral,10,right,2,guess_start,282,space,0,0,569,173685,1589352
9,19,female,Belgisch,3,113,guess,neutral,10,right,2,guess_choice,359,j,0,0,569,173309,1589728
9,19,female,Belgisch,3,113,guess,neutral,10,right,2,guess_outcome,0,undefined,0,0,569,171753,1591284
9,19,female,Belgisch,3,113,ITC,neutral,10,right,2,ITC_start,1008,space,0,0,569,170742,1592295
9,19,female,Belgisch,3,113,ITC,neutral,10,right,2,ITC_choice,566,j,0,0,569,170172,1592865
9,19,female,Belgisch,3,113,ITC,neutral,10,right,2,ITC_wait,0,undefined,0,0,569,160168,1602869
9,19,female,Belgisch,3,113,ITC,neutral,10,right,2,ITC_collect,364,k,0,0,569,159802,1603235
9,19,female,Belgisch,3,113,ITC,neutral,10,right,2,ITC_outcome,0,undefined,0,0,589,158790,1604247
9,19,female,Belgisch,3,114,guess,loss,5,left,8,guess_start,349,space,0,0,589,158430,1604607
9,19,female,Belgisch,3,114,guess,loss,5,left,8,guess_choice,566,f,0,0,589,157851,1605186
9,19,female,Belgisch,3,114,guess,loss,5,left,8,guess_outcome,0,undefined,0,0,574,156289,1606748
9,19,female,Belgisch,3,114,ITC,loss,5,left,8,ITC_start,689,space,0,0,574,155597,1607440
9,19,female,Belgisch,3,114,ITC,loss,5,left,8,ITC_choice,602,f,0,0,574,154992,1608045
9,19,female,Belgisch,3,114,ITC,loss,5,left,8,ITC_wait,0,undefined,0,0,574,149989,1613048
9,19,female,Belgisch,3,114,ITC,loss,5,left,8,ITC_collect,777,k,0,0,574,149209,1613828
9,19,female,Belgisch,3,114,ITC,loss,5,left,8,ITC_outcome,0,undefined,0,0,594,148194,1614843
9,19,female,Belgisch,3,115,guess,win,5,right,15,guess_start,278,space,0,0,594,147911,1615126
9,19,female,Belgisch,3,115,guess,win,5,right,15,guess_choice,464,j,0,0,594,147430,1615607
9,19,female,Belgisch,3,115,guess,win,5,right,15,guess_outcome,0,undefined,0,0,614,145863,1617174
9,19,female,Belgisch,3,115,ITC,win,5,right,15,ITC_start,451,space,0,0,614,145408,1617629
9,19,female,Belgisch,3,115,ITC,win,5,right,15,ITC_choice,526,j,0,0,614,144878,1618159
9,19,female,Belgisch,3,115,ITC,win,5,right,15,ITC_wait,0,undefined,0,0,614,139873,1623164
9,19,female,Belgisch,3,115,ITC,win,5,right,15,ITC_collect,1047,k,0,0,614,138820,1624217
9,19,female,Belgisch,3,115,ITC,win,5,right,15,ITC_outcome,0,undefined,0,0,634,137799,1625238
9,19,female,Belgisch,3,116,guess,win,5,left,10,guess_start,193,space,0,0,634,137598,1625439
9,19,female,Belgisch,3,116,guess,win,5,left,10,guess_choice,500,j,0,0,634,137081,1625956
9,19,female,Belgisch,3,116,guess,win,5,left,10,guess_outcome,0,undefined,0,0,654,135510,1627527
9,19,female,Belgisch,3,116,ITC,win,5,left,10,ITC_start,436,space,0,0,654,135067,1627970
9,19,female,Belgisch,3,116,ITC,win,5,left,10,ITC_choice,876,j,0,0,654,134186,1628851
9,19,female,Belgisch,3,116,ITC,win,5,left,10,ITC_wait,0,undefined,0,0,654,134178,1628859
9,19,female,Belgisch,3,116,ITC,win,5,left,10,ITC_collect,842,k,0,0,654,133330,1629707
9,19,female,Belgisch,3,116,ITC,win,5,left,10,ITC_outcome,0,undefined,0,0,664,132312,1630725
9,19,female,Belgisch,3,117,guess,win,10,left,3,guess_start,220,space,0,0,664,132087,1630950
9,19,female,Belgisch,3,117,guess,win,10,left,3,guess_choice,585,j,0,0,664,131493,1631544
9,19,female,Belgisch,3,117,guess,win,10,left,3,guess_outcome,0,undefined,0,0,684,129916,1633121
9,19,female,Belgisch,3,117,ITC,win,10,left,3,ITC_start,298,space,0,0,684,129613,1633424
9,19,female,Belgisch,3,117,ITC,win,10,left,3,ITC_choice,1414,f,0,0,684,128195,1634842
9,19,female,Belgisch,3,117,ITC,win,10,left,3,ITC_wait,0,undefined,0,0,684,118189,1644848
9,19,female,Belgisch,3,117,ITC,win,10,left,3,ITC_collect,354,k,0,0,684,117828,1645209
9,19,female,Belgisch,3,117,ITC,win,10,left,3,ITC_outcome,0,undefined,0,0,704,116803,1646234
9,19,female,Belgisch,3,118,guess,neutral,5,right,12,guess_start,201,space,0,0,704,116596,1646441
9,19,female,Belgisch,3,118,guess,neutral,5,right,12,guess_choice,573,f,0,0,704,116014,1647023
9,19,female,Belgisch,3,118,guess,neutral,5,right,12,guess_outcome,0,undefined,0,0,704,114442,1648595
9,19,female,Belgisch,3,118,ITC,neutral,5,right,12,ITC_start,359,space,0,0,704,114080,1648957
9,19,female,Belgisch,3,118,ITC,neutral,5,right,12,ITC_choice,531,j,0,0,704,113544,1649493
9,19,female,Belgisch,3,118,ITC,neutral,5,right,12,ITC_wait,0,undefined,0,0,704,108538,1654499
9,19,female,Belgisch,3,118,ITC,neutral,5,right,12,ITC_collect,968,k,0,0,704,107567,1655470
9,19,female,Belgisch,3,118,ITC,neutral,5,right,12,ITC_outcome,0,undefined,0,0,724,106542,1656495
9,19,female,Belgisch,3,119,guess,win,5,left,8,guess_start,374,space,0,0,724,106162,1656875
9,19,female,Belgisch,3,119,guess,win,5,left,8,guess_choice,399,j,0,0,724,105739,1657298
9,19,female,Belgisch,3,119,guess,win,5,left,8,guess_outcome,0,undefined,0,0,744,104165,1658872
9,19,female,Belgisch,3,119,ITC,win,5,left,8,ITC_start,357,space,0,0,744,103802,1659235
9,19,female,Belgisch,3,119,ITC,win,5,left,8,ITC_choice,542,f,0,0,744,103251,1659786
9,19,female,Belgisch,3,119,ITC,win,5,left,8,ITC_wait,0,undefined,0,0,744,98244,1664793
9,19,female,Belgisch,3,119,ITC,win,5,left,8,ITC_collect,549,k,0,0,744,97688,1665349
9,19,female,Belgisch,3,119,ITC,win,5,left,8,ITC_outcome,0,undefined,0,0,764,96658,1666379
9,19,female,Belgisch,3,120,guess,neutral,10,left,4,guess_start,108,space,0,0,764,96540,1666497
9,19,female,Belgisch,3,120,guess,neutral,10,left,4,guess_choice,521,f,0,0,764,95996,1667041
9,19,female,Belgisch,3,120,guess,neutral,10,left,4,guess_outcome,0,undefined,0,0,764,94415,1668622
9,19,female,Belgisch,3,120,ITC,neutral,10,left,4,ITC_start,426,space,0,0,764,93983,1669054
9,19,female,Belgisch,3,120,ITC,neutral,10,left,4,ITC_choice,609,f,0,0,764,93368,1669669
9,19,female,Belgisch,3,120,ITC,neutral,10,left,4,ITC_wait,0,undefined,0,0,764,83361,1679676
9,19,female,Belgisch,3,120,ITC,neutral,10,left,4,ITC_collect,678,k,0,0,764,82676,1680361
9,19,female,Belgisch,3,120,ITC,neutral,10,left,4,ITC_outcome,0,undefined,0,0,784,81644,1681393
9,19,female,Belgisch,3,121,guess,loss,10,right,3,guess_start,226,space,0,0,784,81410,1681627
9,19,female,Belgisch,3,121,guess,loss,10,right,3,guess_choice,535,j,0,0,784,80853,1682184
9,19,female,Belgisch,3,121,guess,loss,10,right,3,guess_outcome,0,undefined,0,0,769,79286,1683751
9,19,female,Belgisch,3,121,ITC,loss,10,right,3,ITC_start,343,space,0,0,769,78938,1684099
9,19,female,Belgisch,3,121,ITC,loss,10,right,3,ITC_choice,767,j,0,0,769,78164,1684873
9,19,female,Belgisch,3,121,ITC,loss,10,right,3,ITC_wait,0,undefined,0,0,769,68156,1694881
9,19,female,Belgisch,3,121,ITC,loss,10,right,3,ITC_collect,719,k,0,0,769,67432,1695605
9,19,female,Belgisch,3,121,ITC,loss,10,right,3,ITC_outcome,0,undefined,0,0,789,66423,1696614
9,19,female,Belgisch,3,122,guess,win,5,left,14,guess_start,80,space,0,0,789,66339,1696698
9,19,female,Belgisch,3,122,guess,win,5,left,14,guess_choice,549,j,0,0,789,65784,1697253
9,19,female,Belgisch,3,122,guess,win,5,left,14,guess_outcome,0,undefined,0,0,809,64225,1698812
9,19,female,Belgisch,3,122,ITC,win,5,left,14,ITC_start,871,space,0,0,809,63351,1699686
9,19,female,Belgisch,3,122,ITC,win,5,left,14,ITC_choice,614,f,0,0,809,62734,1700303
9,19,female,Belgisch,3,122,ITC,win,5,left,14,ITC_wait,0,undefined,0,0,809,57729,1705308
9,19,female,Belgisch,3,122,ITC,win,5,left,14,ITC_collect,486,k,0,0,809,57238,1705799
9,19,female,Belgisch,3,122,ITC,win,5,left,14,ITC_outcome,0,undefined,0,0,829,56229,1706808
9,19,female,Belgisch,3,123,guess,loss,10,left,2,guess_start,51,space,0,0,829,56172,1706865
9,19,female,Belgisch,3,123,guess,loss,10,left,2,guess_choice,479,j,0,0,829,55684,1707353
9,19,female,Belgisch,3,123,guess,loss,10,left,2,guess_outcome,0,undefined,0,0,814,54122,1708915
9,19,female,Belgisch,3,123,ITC,loss,10,left,2,ITC_start,47,space,0,0,814,54070,1708967
9,19,female,Belgisch,3,123,ITC,loss,10,left,2,ITC_choice,548,f,0,0,814,53518,1709519
9,19,female,Belgisch,3,123,ITC,loss,10,left,2,ITC_wait,0,undefined,0,0,814,43514,1719523
9,19,female,Belgisch,3,123,ITC,loss,10,left,2,ITC_collect,809,k,0,0,814,42700,1720337
9,19,female,Belgisch,3,123,ITC,loss,10,left,2,ITC_outcome,0,undefined,0,0,834,41693,1721344
9,19,female,Belgisch,3,124,guess,win,5,right,13,guess_start,378,space,0,0,834,41311,1721726
9,19,female,Belgisch,3,124,guess,win,5,right,13,guess_choice,420,j,0,0,834,40876,1722161
9,19,female,Belgisch,3,124,guess,win,5,right,13,guess_outcome,0,undefined,0,0,854,39310,1723727
9,19,female,Belgisch,3,124,ITC,win,5,right,13,ITC_start,397,space,0,0,854,38909,1724128
9,19,female,Belgisch,3,124,ITC,win,5,right,13,ITC_choice,569,j,0,0,854,38335,1724702
9,19,female,Belgisch,3,124,ITC,win,5,right,13,ITC_wait,0,undefined,0,0,854,33330,1729707
9,19,female,Belgisch,3,124,ITC,win,5,right,13,ITC_collect,614,k,0,0,854,32710,1730327
9,19,female,Belgisch,3,124,ITC,win,5,right,13,ITC_outcome,0,undefined,0,0,874,31694,1731343
9,19,female,Belgisch,3,125,guess,win,10,right,6,guess_start,81,space,0,0,874,31607,1731430
9,19,female,Belgisch,3,125,guess,win,10,right,6,guess_choice,420,j,0,0,874,31167,1731870
9,19,female,Belgisch,3,125,guess,win,10,right,6,guess_outcome,0,undefined,0,0,894,29598,1733439
9,19,female,Belgisch,3,125,ITC,win,10,right,6,ITC_start,352,space,0,0,894,29242,1733795
9,19,female,Belgisch,3,125,ITC,win,10,right,6,ITC_choice,540,j,0,0,894,28698,1734339
9,19,female,Belgisch,3,125,ITC,win,10,right,6,ITC_wait,0,undefined,0,0,894,18693,1744344
9,19,female,Belgisch,3,125,ITC,win,10,right,6,ITC_collect,353,k,0,0,894,18335,1744702
9,19,female,Belgisch,3,125,ITC,win,10,right,6,ITC_outcome,0,undefined,0,0,914,17325,1745712
9,19,female,Belgisch,3,126,guess,neutral,10,right,5,guess_start,281,space,0,0,914,17038,1745999
9,19,female,Belgisch,3,126,guess,neutral,10,right,5,guess_choice,512,j,0,0,914,16504,1746533
9,19,female,Belgisch,3,126,guess,neutral,10,right,5,guess_outcome,0,undefined,0,0,914,14932,1748105
9,19,female,Belgisch,3,126,ITC,neutral,10,right,5,ITC_start,278,space,0,0,914,14648,1748389
9,19,female,Belgisch,3,126,ITC,neutral,10,right,5,ITC_choice,577,j,0,0,914,14065,1748972
9,19,female,Belgisch,3,126,ITC,neutral,10,right,5,ITC_wait,0,undefined,0,0,914,4058,1758979
9,19,female,Belgisch,3,126,ITC,neutral,10,right,5,ITC_collect,657,k,0,0,914,3396,1759641
9,19,female,Belgisch,3,126,ITC,neutral,10,right,5,ITC_outcome,0,undefined,0,0,934,2376,1760661
9,19,female,Belgisch,3,127,guess,neutral,10,left,6,guess_start,186,space,0,0,934,2184,1760853
9,19,female,Belgisch,3,127,guess,neutral,10,left,6,guess_choice,474,f,0,0,934,1689,1761348
9,19,female,Belgisch,3,127,guess,neutral,10,left,6,guess_outcome,0,undefined,0,0,934,109,1762928
9,19,female,Belgisch,3,127,ITC,neutral,10,left,6,ITC_start,0,undefined,0,0,934,-7,1763044
9,19,female,Belgisch,4,128,guess,loss,5,right,4,guess_start,908,space,0,0,0,479089,1769774
9,19,female,Belgisch,4,128,guess,loss,5,right,4,guess_choice,518,j,0,0,0,478538,1770325
9,19,female,Belgisch,4,128,guess,loss,5,right,4,guess_outcome,0,undefined,0,0,-15,476961,1771902
9,19,female,Belgisch,4,128,ITC,loss,5,right,4,ITC_start,629,space,0,0,-15,476326,1772537
9,19,female,Belgisch,4,128,ITC,loss,5,right,4,ITC_choice,575,j,0,0,-15,475745,1773118
9,19,female,Belgisch,4,128,ITC,loss,5,right,4,ITC_wait,0,undefined,0,0,-15,470738,1778125
9,19,female,Belgisch,4,128,ITC,loss,5,right,4,ITC_collect,695,k,0,0,-15,470036,1778827
9,19,female,Belgisch,4,128,ITC,loss,5,right,4,ITC_outcome,0,undefined,0,0,5,469010,1779853
9,19,female,Belgisch,4,129,guess,neutral,5,left,11,guess_start,239,space,0,0,5,468764,1780099
9,19,female,Belgisch,4,129,guess,neutral,5,left,11,guess_choice,282,j,0,0,5,468449,1780414
9,19,female,Belgisch,4,129,guess,neutral,5,left,11,guess_outcome,0,undefined,0,0,5,466887,1781976
9,19,female,Belgisch,4,129,ITC,neutral,5,left,11,ITC_start,293,space,0,0,5,466588,1782275
9,19,female,Belgisch,4,129,ITC,neutral,5,left,11,ITC_choice,619,f,0,0,5,465963,1782900
9,19,female,Belgisch,4,129,ITC,neutral,5,left,11,ITC_wait,0,undefined,0,0,5,460957,1787906
9,19,female,Belgisch,4,129,ITC,neutral,5,left,11,ITC_collect,700,k,0,0,5,460253,1788610
9,19,female,Belgisch,4,129,ITC,neutral,5,left,11,ITC_outcome,0,undefined,0,0,25,459214,1789649
9,19,female,Belgisch,4,130,guess,win,5,right,4,guess_start,216,space,0,0,25,458991,1789872
9,19,female,Belgisch,4,130,guess,win,5,right,4,guess_choice,374,j,0,0,25,458569,1790294
9,19,female,Belgisch,4,130,guess,win,5,right,4,guess_outcome,0,undefined,0,0,45,456980,1791883
9,19,female,Belgisch,4,130,ITC,win,5,right,4,ITC_start,302,space,0,0,45,456672,1792191
9,19,female,Belgisch,4,130,ITC,win,5,right,4,ITC_choice,634,j,0,0,45,456029,1792834
9,19,female,Belgisch,4,130,ITC,win,5,right,4,ITC_wait,0,undefined,0,0,45,451022,1797841
9,19,female,Belgisch,4,130,ITC,win,5,right,4,ITC_collect,678,k,0,0,45,450337,1798526
9,19,female,Belgisch,4,130,ITC,win,5,right,4,ITC_outcome,0,undefined,0,0,65,449305,1799558
9,19,female,Belgisch,4,131,guess,win,5,right,6,guess_start,245,space,0,0,65,449051,1799812
9,19,female,Belgisch,4,131,guess,win,5,right,6,guess_choice,444,j,0,0,65,448597,1800266
9,19,female,Belgisch,4,131,guess,win,5,right,6,guess_outcome,0,undefined,0,0,85,447036,1801827
9,19,female,Belgisch,4,131,ITC,win,5,right,6,ITC_start,281,space,0,0,85,446751,1802112
9,19,female,Belgisch,4,131,ITC,win,5,right,6,ITC_choice,554,j,0,0,85,446193,1802670
9,19,female,Belgisch,4,131,ITC,win,5,right,6,ITC_wait,0,undefined,0,0,85,441189,1807674
9,19,female,Belgisch,4,131,ITC,win,5,right,6,ITC_collect,559,k,0,0,85,440626,1808237
9,19,female,Belgisch,4,131,ITC,win,5,right,6,ITC_outcome,0,undefined,0,0,105,439616,1809247
9,19,female,Belgisch,4,132,guess,neutral,10,left,1,guess_start,286,space,0,0,105,439325,1809538
9,19,female,Belgisch,4,132,guess,neutral,10,left,1,guess_choice,485,f,0,0,105,438835,1810028
9,19,female,Belgisch,4,132,guess,neutral,10,left,1,guess_outcome,0,undefined,0,0,105,437273,1811590
9,19,female,Belgisch,4,132,ITC,neutral,10,left,1,ITC_start,286,space,0,0,105,436985,1811878
9,19,female,Belgisch,4,132,ITC,neutral,10,left,1,ITC_choice,653,f,0,0,105,436325,1812538
9,19,female,Belgisch,4,132,ITC,neutral,10,left,1,ITC_wait,0,undefined,0,0,105,426321,1822542
9,19,female,Belgisch,4,132,ITC,neutral,10,left,1,ITC_collect,629,k,0,0,105,425687,1823176
9,19,female,Belgisch,4,132,ITC,neutral,10,left,1,ITC_outcome,0,undefined,0,0,125,424675,1824188
9,19,female,Belgisch,4,133,guess,loss,10,right,5,guess_start,435,space,0,0,125,424233,1824630
9,19,female,Belgisch,4,133,guess,loss,10,right,5,guess_choice,430,j,0,0,125,423789,1825074
9,19,female,Belgisch,4,133,guess,loss,10,right,5,guess_outcome,0,undefined,0,0,110,422224,1826639
9,19,female,Belgisch,4,133,ITC,loss,10,right,5,ITC_start,458,space,0,0,110,421762,1827101
9,19,female,Belgisch,4,133,ITC,loss,10,right,5,ITC_choice,534,j,0,0,110,421226,1827637
9,19,female,Belgisch,4,133,ITC,loss,10,right,5,ITC_wait,0,undefined,0,0,110,411222,1837641
9,19,female,Belgisch,4,133,ITC,loss,10,right,5,ITC_collect,493,k,0,0,110,410724,1838139
9,19,female,Belgisch,4,133,ITC,loss,10,right,5,ITC_outcome,0,undefined,0,0,130,409706,1839157
9,19,female,Belgisch,4,134,guess,loss,5,right,3,guess_start,1201,space,0,0,130,408500,1840363
9,19,female,Belgisch,4,134,guess,loss,5,right,3,guess_choice,534,j,0,0,130,407956,1840907
9,19,female,Belgisch,4,134,guess,loss,5,right,3,guess_outcome,0,undefined,0,0,115,406387,1842476
9,19,female,Belgisch,4,134,ITC,loss,5,right,3,ITC_start,490,space,0,0,115,405893,1842970
9,19,female,Belgisch,4,134,ITC,loss,5,right,3,ITC_choice,552,j,0,0,115,405338,1843525
9,19,female,Belgisch,4,134,ITC,loss,5,right,3,ITC_wait,0,undefined,0,0,115,400331,1848532
9,19,female,Belgisch,4,134,ITC,loss,5,right,3,ITC_collect,833,k,0,0,115,399492,1849371
9,19,female,Belgisch,4,134,ITC,loss,5,right,3,ITC_outcome,0,undefined,0,0,135,398482,1850381
9,19,female,Belgisch,4,135,guess,loss,5,right,10,guess_start,371,space,0,0,135,398105,1850758
9,19,female,Belgisch,4,135,guess,loss,5,right,10,guess_choice,512,f,0,0,135,397573,1851290
9,19,female,Belgisch,4,135,guess,loss,5,right,10,guess_outcome,0,undefined,0,0,120,396002,1852861
9,19,female,Belgisch,4,135,ITC,loss,5,right,10,ITC_start,530,space,0,0,120,395467,1853396
9,19,female,Belgisch,4,135,ITC,loss,5,right,10,ITC_choice,323,j,0,0,120,395139,1853724
9,19,female,Belgisch,4,135,ITC,loss,5,right,10,ITC_wait,0,undefined,0,0,120,390134,1858729
9,19,female,Belgisch,4,135,ITC,loss,5,right,10,ITC_collect,798,k,0,0,120,389330,1859533
9,19,female,Belgisch,4,135,ITC,loss,5,right,10,ITC_outcome,0,undefined,0,0,140,388306,1860557
9,19,female,Belgisch,4,136,guess,neutral,5,right,2,guess_start,220,space,0,0,140,388082,1860781
9,19,female,Belgisch,4,136,guess,neutral,5,right,2,guess_choice,576,f,0,0,140,387481,1861382
9,19,female,Belgisch,4,136,guess,neutral,5,right,2,guess_outcome,0,undefined,0,0,140,385907,1862956
9,19,female,Belgisch,4,136,ITC,neutral,5,right,2,ITC_start,548,space,0,0,140,385355,1863508
9,19,female,Belgisch,4,136,ITC,neutral,5,right,2,ITC_choice,608,j,0,0,140,384740,1864123
9,19,female,Belgisch,4,136,ITC,neutral,5,right,2,ITC_wait,0,undefined,0,0,140,379730,1869133
9,19,female,Belgisch,4,136,ITC,neutral,5,right,2,ITC_collect,1031,k,0,0,140,378692,1870171
9,19,female,Belgisch,4,136,ITC,neutral,5,right,2,ITC_outcome,0,undefined,0,0,160,377665,1871198
9,19,female,Belgisch,4,137,guess,loss,10,right,4,guess_start,354,space,0,0,160,377305,1871558
9,19,female,Belgisch,4,137,guess,loss,10,right,4,guess_choice,523,j,0,0,160,376755,1872108
9,19,female,Belgisch,4,137,guess,loss,10,right,4,guess_outcome,0,undefined,0,0,145,375176,1873687
9,19,female,Belgisch,4,137,ITC,loss,10,right,4,ITC_start,657,space,0,0,145,374514,1874349
9,19,female,Belgisch,4,137,ITC,loss,10,right,4,ITC_choice,590,j,0,0,145,373918,1874945
9,19,female,Belgisch,4,137,ITC,loss,10,right,4,ITC_wait,0,undefined,0,0,145,363911,1884952
9,19,female,Belgisch,4,137,ITC,loss,10,right,4,ITC_collect,656,k,0,0,145,363247,1885616
9,19,female,Belgisch,4,137,ITC,loss,10,right,4,ITC_outcome,0,undefined,0,0,165,362220,1886643
9,19,female,Belgisch,4,138,guess,loss,5,left,16,guess_start,93,space,0,0,165,362117,1886746
9,19,female,Belgisch,4,138,guess,loss,5,left,16,guess_choice,1169,j,0,0,165,360916,1887947
9,19,female,Belgisch,4,138,guess,loss,5,left,16,guess_outcome,0,undefined,0,0,150,359331,1889532
9,19,female,Belgisch,4,138,ITC,loss,5,left,16,ITC_start,371,space,0,0,150,358953,1889910
9,19,female,Belgisch,4,138,ITC,loss,5,left,16,ITC_choice,631,f,0,0,150,358317,1890546
9,19,female,Belgisch,4,138,ITC,loss,5,left,16,ITC_wait,0,undefined,0,0,150,353310,1895553
9,19,female,Belgisch,4,138,ITC,loss,5,left,16,ITC_collect,624,k,0,0,150,352679,1896184
9,19,female,Belgisch,4,138,ITC,loss,5,left,16,ITC_outcome,0,undefined,0,0,170,351649,1897214
9,19,female,Belgisch,4,139,guess,win,10,left,1,guess_start,254,space,0,0,170,351382,1897481
9,19,female,Belgisch,4,139,guess,win,10,left,1,guess_choice,421,j,0,0,170,350927,1897936
9,19,female,Belgisch,4,139,guess,win,10,left,1,guess_outcome,0,undefined,0,0,190,349356,1899507
9,19,female,Belgisch,4,139,ITC,win,10,left,1,ITC_start,280,space,0,0,190,349072,1899791
9,19,female,Belgisch,4,139,ITC,win,10,left,1,ITC_choice,509,f,0,0,190,348557,1900306
9,19,female,Belgisch,4,139,ITC,win,10,left,1,ITC_wait,0,undefined,0,0,190,338548,1910315
9,19,female,Belgisch,4,139,ITC,win,10,left,1,ITC_collect,409,k,0,0,190,338131,1910732
9,19,female,Belgisch,4,139,ITC,win,10,left,1,ITC_outcome,0,undefined,0,0,210,337111,1911752
9,19,female,Belgisch,4,140,guess,win,10,right,8,guess_start,254,space,0,0,210,336854,1912009
9,19,female,Belgisch,4,140,guess,win,10,right,8,guess_choice,417,j,0,0,210,336429,1912434
9,19,female,Belgisch,4,140,guess,win,10,right,8,guess_outcome,0,undefined,0,0,230,334874,1913989
9,19,female,Belgisch,4,140,ITC,win,10,right,8,ITC_start,90,space,0,0,230,334781,1914082
