subjectID,age,gender,nationality,block_number,trial_number,trial_type,guess_outcome,delay_time,delay_pos,immediate_amount,stage,respRT,respKey,blur_count,focus_count,total_points,remaining_duration,time_elapsed
28,19,female,Belgian,1,1,guess,loss,5,left,4,guess_start,1486,space,0,0,0,478514,247599
28,19,female,Belgian,1,1,guess,loss,5,left,4,guess_choice,1877,j,0,0,0,476633,249480
28,19,female,Belgian,1,1,guess,loss,5,left,4,guess_outcome,0,undefined,0,0,-15,475075,251038
28,19,female,Belgian,1,1,ITC,loss,5,left,4,ITC_start,1637,space,0,0,-15,473437,252676
28,19,female,Belgian,1,1,ITC,loss,5,left,4,ITC_choice,6593,f,0,0,-15,466842,259271
28,19,female,Belgian,1,1,ITC,loss,5,left,4,ITC_wait,0,undefined,0,0,-15,461829,264284
28,19,female,Belgian,1,1,ITC,loss,5,left,4,ITC_collect,1671,k,0,0,-15,460157,265956
28,19,female,Belgian,1,1,ITC,loss,5,left,4,ITC_outcome,0,undefined,0,0,5,459144,266969
28,19,female,Belgian,1,2,guess,win,5,left,4,guess_start,4799,space,0,0,5,454342,271771
28,19,female,Belgian,1,2,guess,win,5,left,4,guess_choice,1591,j,0,0,5,452749,273364
28,19,female,Belgian,1,2,guess,win,5,left,4,guess_outcome,0,undefined,0,0,25,451182,274931
28,19,female,Belgian,1,2,ITC,win,5,left,4,ITC_start,939,space,0,0,25,450241,275872
28,19,female,Belgian,1,2,ITC,win,5,left,4,ITC_choice,6109,f,0,0,25,444131,281982
28,19,female,Belgian,1,2,ITC,win,5,left,4,ITC_wait,0,undefined,0,0,25,439122,286991
28,19,female,Belgian,1,2,ITC,win,5,left,4,ITC_collect,1328,k,0,0,25,437793,288320
28,19,female,Belgian,1,2,ITC,win,5,left,4,ITC_outcome,0,undefined,0,0,45,436790,289323
28,19,female,Belgian,1,3,guess,loss,10,right,8,guess_start,1916,space,0,0,45,434872,291241
28,19,female,Belgian,1,3,guess,loss,10,right,8,guess_choice,1211,f,0,0,45,433658,292455
28,19,female,Belgian,1,3,guess,loss,10,right,8,guess_outcome,0,undefined,0,0,30,432092,294021
28,19,female,Belgian,1,3,ITC,loss,10,right,8,ITC_start,1291,space,0,0,30,430799,295314
28,19,female,Belgian,1,3,ITC,loss,10,right,8,ITC_choice,11730,j,0,0,30,419068,307045
28,19,female,Belgian,1,3,ITC,loss,10,right,8,ITC_wait,0,undefined,0,0,30,409052,317061
28,19,female,Belgian,1,3,ITC,loss,10,right,8,ITC_collect,993,k,0,0,30,408055,318058
28,19,female,Belgian,1,3,ITC,loss,10,right,8,ITC_outcome,0,undefined,0,0,50,407046,319067
28,19,female,Belgian,1,4,guess,win,5,right,11,guess_start,742,space,0,0,50,406302,319811
28,19,female,Belgian,1,4,guess,win,5,right,11,guess_choice,2220,j,0,0,50,404080,322033
28,19,female,Belgian,1,4,guess,win,5,right,11,guess_outcome,0,undefined,0,0,70,402520,323593
28,19,female,Belgian,1,4,ITC,win,5,right,11,ITC_start,1207,space,0,0,70,401312,324801
28,19,female,Belgian,1,4,ITC,win,5,right,11,ITC_choice,3550,j,0,0,70,397761,328352
28,19,female,Belgian,1,4,ITC,win,5,right,11,ITC_wait,0,undefined,0,0,70,392746,333367
28,19,female,Belgian,1,4,ITC,win,5,right,11,ITC_collect,1263,k,0,0,70,391482,334631
28,19,female,Belgian,1,4,ITC,win,5,right,11,ITC_outcome,0,undefined,0,0,90,390473,335640
28,19,female,Belgian,1,5,guess,neutral,10,left,3,guess_start,1162,space,0,0,90,389309,336804
28,19,female,Belgian,1,5,guess,neutral,10,left,3,guess_choice,1637,f,0,0,90,387669,338444
28,19,female,Belgian,1,5,guess,neutral,10,left,3,guess_outcome,0,undefined,0,0,90,386106,340007
28,19,female,Belgian,1,5,ITC,neutral,10,left,3,ITC_start,892,space,0,0,90,385212,340901
28,19,female,Belgian,1,5,ITC,neutral,10,left,3,ITC_choice,2442,f,0,0,90,382769,343344
28,19,female,Belgian,1,5,ITC,neutral,10,left,3,ITC_wait,0,undefined,0,0,90,372758,353355
28,19,female,Belgian,1,5,ITC,neutral,10,left,3,ITC_collect,1465,k,0,0,90,371292,354821
28,19,female,Belgian,1,5,ITC,neutral,10,left,3,ITC_outcome,0,undefined,0,0,110,370287,355826
28,19,female,Belgian,1,6,guess,neutral,10,left,4,guess_start,925,space,0,0,110,369360,356753
28,19,female,Belgian,1,6,guess,neutral,10,left,4,guess_choice,974,f,0,0,110,368384,357729
28,19,female,Belgian,1,6,guess,neutral,10,left,4,guess_outcome,0,undefined,0,0,110,366830,359283
28,19,female,Belgian,1,6,ITC,neutral,10,left,4,ITC_start,798,space,0,0,110,366031,360082
28,19,female,Belgian,1,6,ITC,neutral,10,left,4,ITC_choice,2116,f,0,0,110,363914,362199
28,19,female,Belgian,1,6,ITC,neutral,10,left,4,ITC_wait,0,undefined,0,0,110,353908,372205
28,19,female,Belgian,1,6,ITC,neutral,10,left,4,ITC_collect,1261,k,0,0,110,352645,373468
28,19,female,Belgian,1,6,ITC,neutral,10,left,4,ITC_outcome,0,undefined,0,0,130,351639,374474
28,19,female,Belgian,1,7,guess,win,5,left,15,guess_start,637,space,0,0,130,351000,375113
28,19,female,Belgian,1,7,guess,win,5,left,15,guess_choice,2863,j,0,0,130,348135,377978
28,19,female,Belgian,1,7,guess,win,5,left,15,guess_outcome,0,undefined,0,0,150,346573,379540
28,19,female,Belgian,1,7,ITC,win,5,left,15,ITC_start,1560,space,0,0,150,345011,381102
28,19,female,Belgian,1,7,ITC,win,5,left,15,ITC_choice,2348,j,0,0,150,342662,383451
28,19,female,Belgian,1,7,ITC,win,5,left,15,ITC_wait,0,undefined,0,0,150,342658,383455
28,19,female,Belgian,1,7,ITC,win,5,left,15,ITC_collect,921,k,0,0,150,341735,384378
28,19,female,Belgian,1,7,ITC,win,5,left,15,ITC_outcome,0,undefined,0,0,165,340732,385381
28,19,female,Belgian,1,8,guess,neutral,10,right,6,guess_start,822,space,0,0,165,339908,386205
28,19,female,Belgian,1,8,guess,neutral,10,right,6,guess_choice,962,f,0,0,165,338944,387169
28,19,female,Belgian,1,8,guess,neutral,10,right,6,guess_outcome,0,undefined,0,0,165,337386,388727
28,19,female,Belgian,1,8,ITC,neutral,10,right,6,ITC_start,937,space,0,0,165,336448,389665
28,19,female,Belgian,1,8,ITC,neutral,10,right,6,ITC_choice,2070,j,0,0,165,334377,391736
28,19,female,Belgian,1,8,ITC,neutral,10,right,6,ITC_wait,0,undefined,0,0,165,324367,401746
28,19,female,Belgian,1,8,ITC,neutral,10,right,6,ITC_collect,457,k,0,0,165,323909,402204
28,19,female,Belgian,1,8,ITC,neutral,10,right,6,ITC_outcome,0,undefined,0,0,185,322905,403208
28,19,female,Belgian,1,9,guess,neutral,5,left,8,guess_start,423,space,0,0,185,322480,403633
28,19,female,Belgian,1,9,guess,neutral,5,left,8,guess_choice,833,f,0,0,185,321645,404468
28,19,female,Belgian,1,9,guess,neutral,5,left,8,guess_outcome,0,undefined,0,0,185,320085,406028
28,19,female,Belgian,1,9,ITC,neutral,5,left,8,ITC_start,609,space,0,0,185,319474,406639
28,19,female,Belgian,1,9,ITC,neutral,5,left,8,ITC_choice,1717,f,0,0,185,317757,408356
28,19,female,Belgian,1,9,ITC,neutral,5,left,8,ITC_wait,0,undefined,0,0,185,312750,413363
28,19,female,Belgian,1,9,ITC,neutral,5,left,8,ITC_collect,1340,k,0,0,185,311408,414705
28,19,female,Belgian,1,9,ITC,neutral,5,left,8,ITC_outcome,0,undefined,0,0,205,310399,415714
28,19,female,Belgian,1,10,guess,win,5,right,1,guess_start,780,space,0,0,205,309618,416495
28,19,female,Belgian,1,10,guess,win,5,right,1,guess_choice,1688,f,0,0,205,307927,418186
28,19,female,Belgian,1,10,guess,win,5,right,1,guess_outcome,0,undefined,0,0,225,306372,419741
28,19,female,Belgian,1,10,ITC,win,5,right,1,ITC_start,800,space,0,0,225,305572,420541
28,19,female,Belgian,1,10,ITC,win,5,right,1,ITC_choice,2269,j,0,0,225,303302,422811
28,19,female,Belgian,1,10,ITC,win,5,right,1,ITC_wait,0,undefined,0,0,225,298288,427825
28,19,female,Belgian,1,10,ITC,win,5,right,1,ITC_collect,1483,k,0,0,225,296804,429309
28,19,female,Belgian,1,10,ITC,win,5,right,1,ITC_outcome,0,undefined,0,0,245,295799,430314
28,19,female,Belgian,1,11,guess,win,5,right,5,guess_start,737,space,0,0,245,295061,431052
28,19,female,Belgian,1,11,guess,win,5,right,5,guess_choice,1223,j,0,0,245,293836,432277
28,19,female,Belgian,1,11,guess,win,5,right,5,guess_outcome,0,undefined,0,0,265,292281,433832
28,19,female,Belgian,1,11,ITC,win,5,right,5,ITC_start,1096,space,0,0,265,291184,434929
28,19,female,Belgian,1,11,ITC,win,5,right,5,ITC_choice,1393,j,0,0,265,289790,436323
28,19,female,Belgian,1,11,ITC,win,5,right,5,ITC_wait,0,undefined,0,0,265,284773,441340
28,19,female,Belgian,1,11,ITC,win,5,right,5,ITC_collect,643,k,0,0,265,284129,441984
28,19,female,Belgian,1,11,ITC,win,5,right,5,ITC_outcome,0,undefined,0,0,285,283126,442987
28,19,female,Belgian,1,12,guess,win,5,left,14,guess_start,853,space,0,0,285,282272,443841
28,19,female,Belgian,1,12,guess,win,5,left,14,guess_choice,1868,j,0,0,285,280401,445712
28,19,female,Belgian,1,12,guess,win,5,left,14,guess_outcome,0,undefined,0,0,305,278841,447272
28,19,female,Belgian,1,12,ITC,win,5,left,14,ITC_start,2204,space,0,0,305,276637,449476
28,19,female,Belgian,1,12,ITC,win,5,left,14,ITC_choice,1727,j,0,0,305,274909,451204
28,19,female,Belgian,1,12,ITC,win,5,left,14,ITC_wait,0,undefined,0,0,305,274907,451206
28,19,female,Belgian,1,12,ITC,win,5,left,14,ITC_collect,2587,k,0,0,305,272317,453796
28,19,female,Belgian,1,12,ITC,win,5,left,14,ITC_outcome,0,undefined,0,0,319,271305,454808
28,19,female,Belgian,1,13,guess,win,5,right,7,guess_start,768,space,0,0,319,270536,455577
28,19,female,Belgian,1,13,guess,win,5,right,7,guess_choice,1187,f,0,0,319,269346,456767
28,19,female,Belgian,1,13,guess,win,5,right,7,guess_outcome,0,undefined,0,0,339,267784,458329
28,19,female,Belgian,1,13,ITC,win,5,right,7,ITC_start,830,space,0,0,339,266952,459161
28,19,female,Belgian,1,13,ITC,win,5,right,7,ITC_choice,1715,j,0,0,339,265236,460877
28,19,female,Belgian,1,13,ITC,win,5,right,7,ITC_wait,0,undefined,0,0,339,260223,465890
28,19,female,Belgian,1,13,ITC,win,5,right,7,ITC_collect,450,k,0,0,339,259771,466342
28,19,female,Belgian,1,13,ITC,win,5,right,7,ITC_outcome,0,undefined,0,0,359,258767,467346
28,19,female,Belgian,1,14,guess,loss,5,left,3,guess_start,3524,space,0,0,359,255242,470871
28,19,female,Belgian,1,14,guess,loss,5,left,3,guess_choice,2783,j,0,0,359,252456,473657
28,19,female,Belgian,1,14,guess,loss,5,left,3,guess_outcome,0,undefined,0,0,344,250900,475213
28,19,female,Belgian,1,14,ITC,loss,5,left,3,ITC_start,1730,space,0,0,344,249168,476945
28,19,female,Belgian,1,14,ITC,loss,5,left,3,ITC_choice,1752,f,0,0,344,247415,478698
28,19,female,Belgian,1,14,ITC,loss,5,left,3,ITC_wait,0,undefined,0,0,344,242410,483703
28,19,female,Belgian,1,14,ITC,loss,5,left,3,ITC_collect,700,k,0,0,344,241709,484404
28,19,female,Belgian,1,14,ITC,loss,5,left,3,ITC_outcome,0,undefined,0,0,364,240700,485413
28,19,female,Belgian,1,15,guess,loss,10,right,2,guess_start,309,space,0,0,364,240389,485724
28,19,female,Belgian,1,15,guess,loss,10,right,2,guess_choice,2130,j,0,0,364,238258,487855
28,19,female,Belgian,1,15,guess,loss,10,right,2,guess_outcome,0,undefined,0,0,349,236698,489415
28,19,female,Belgian,1,15,ITC,loss,10,right,2,ITC_start,2849,space,0,0,349,233849,492264
28,19,female,Belgian,1,15,ITC,loss,10,right,2,ITC_choice,1808,j,0,0,349,232040,494073
28,19,female,Belgian,1,15,ITC,loss,10,right,2,ITC_wait,0,undefined,0,0,349,222037,504076
28,19,female,Belgian,1,15,ITC,loss,10,right,2,ITC_collect,991,k,0,0,349,221045,505068
28,19,female,Belgian,1,15,ITC,loss,10,right,2,ITC_outcome,0,undefined,0,0,369,220030,506083
28,19,female,Belgian,1,16,guess,win,10,left,3,guess_start,681,space,0,0,369,219348,506765
28,19,female,Belgian,1,16,guess,win,10,left,3,guess_choice,1089,j,0,0,369,218257,507856
28,19,female,Belgian,1,16,guess,win,10,left,3,guess_outcome,0,undefined,0,0,389,216692,509421
28,19,female,Belgian,1,16,ITC,win,10,left,3,ITC_start,1399,space,0,0,389,215292,510821
28,19,female,Belgian,1,16,ITC,win,10,left,3,ITC_choice,1411,f,0,0,389,213879,512234
28,19,female,Belgian,1,16,ITC,win,10,left,3,ITC_wait,0,undefined,0,0,389,203867,522246
28,19,female,Belgian,1,16,ITC,win,10,left,3,ITC_collect,1257,k,0,0,389,202609,523504
28,19,female,Belgian,1,16,ITC,win,10,left,3,ITC_outcome,0,undefined,0,0,409,201599,524514
28,19,female,Belgian,1,17,guess,loss,5,right,11,guess_start,547,space,0,0,409,201050,525063
28,19,female,Belgian,1,17,guess,loss,5,right,11,guess_choice,1464,j,0,0,409,199584,526529
28,19,female,Belgian,1,17,guess,loss,5,right,11,guess_outcome,0,undefined,0,0,394,198025,528088
28,19,female,Belgian,1,17,ITC,loss,5,right,11,ITC_start,1607,space,0,0,394,196416,529697
28,19,female,Belgian,1,17,ITC,loss,5,right,11,ITC_choice,1435,j,0,0,394,194981,531132
28,19,female,Belgian,1,17,ITC,loss,5,right,11,ITC_wait,0,undefined,0,0,394,189979,536134
28,19,female,Belgian,1,17,ITC,loss,5,right,11,ITC_collect,774,k,0,0,394,189204,536909
28,19,female,Belgian,1,17,ITC,loss,5,right,11,ITC_outcome,0,undefined,0,0,414,188191,537922
28,19,female,Belgian,1,18,guess,loss,5,right,5,guess_start,578,space,0,0,414,187611,538502
28,19,female,Belgian,1,18,guess,loss,5,right,5,guess_choice,1414,j,0,0,414,186195,539918
28,19,female,Belgian,1,18,guess,loss,5,right,5,guess_outcome,0,undefined,0,0,399,184627,541486
28,19,female,Belgian,1,18,ITC,loss,5,right,5,ITC_start,760,space,0,0,399,183865,542248
28,19,female,Belgian,1,18,ITC,loss,5,right,5,ITC_choice,1090,j,0,0,399,182774,543339
28,19,female,Belgian,1,18,ITC,loss,5,right,5,ITC_wait,0,undefined,0,0,399,177769,548344
28,19,female,Belgian,1,18,ITC,loss,5,right,5,ITC_collect,448,k,0,0,399,177320,548793
28,19,female,Belgian,1,18,ITC,loss,5,right,5,ITC_outcome,0,undefined,0,0,419,176314,549799
28,19,female,Belgian,1,19,guess,neutral,10,right,2,guess_start,554,space,0,0,419,175759,550354
28,19,female,Belgian,1,19,guess,neutral,10,right,2,guess_choice,963,j,0,0,419,174794,551319
28,19,female,Belgian,1,19,guess,neutral,10,right,2,guess_outcome,0,undefined,0,0,419,173231,552882
28,19,female,Belgian,1,19,ITC,neutral,10,right,2,ITC_start,1086,space,0,0,419,172144,553969
28,19,female,Belgian,1,19,ITC,neutral,10,right,2,ITC_choice,1654,j,0,0,419,170489,555624
28,19,female,Belgian,1,19,ITC,neutral,10,right,2,ITC_wait,0,undefined,0,0,419,160482,565631
28,19,female,Belgian,1,19,ITC,neutral,10,right,2,ITC_collect,873,k,0,0,419,159607,566506
28,19,female,Belgian,1,19,ITC,neutral,10,right,2,ITC_outcome,0,undefined,0,0,439,158600,567513
28,19,female,Belgian,1,20,guess,neutral,10,right,5,guess_start,539,space,0,0,439,158059,568054
28,19,female,Belgian,1,20,guess,neutral,10,right,5,guess_choice,820,j,0,0,439,157237,568876
28,19,female,Belgian,1,20,guess,neutral,10,right,5,guess_outcome,0,undefined,0,0,439,155677,570436
28,19,female,Belgian,1,20,ITC,neutral,10,right,5,ITC_start,861,space,0,0,439,154815,571298
28,19,female,Belgian,1,20,ITC,neutral,10,right,5,ITC_choice,1623,j,0,0,439,153191,572922
28,19,female,Belgian,1,20,ITC,neutral,10,right,5,ITC_wait,0,undefined,0,0,439,143175,582938
28,19,female,Belgian,1,20,ITC,neutral,10,right,5,ITC_collect,1552,k,0,0,439,141621,584492
28,19,female,Belgian,1,20,ITC,neutral,10,right,5,ITC_outcome,0,undefined,0,0,459,140619,585494
28,19,female,Belgian,1,21,guess,neutral,5,right,6,guess_start,708,space,0,0,459,139910,586203
28,19,female,Belgian,1,21,guess,neutral,5,right,6,guess_choice,756,f,0,0,459,139151,586962
28,19,female,Belgian,1,21,guess,neutral,5,right,6,guess_outcome,0,undefined,0,0,459,137598,588515
28,19,female,Belgian,1,21,ITC,neutral,5,right,6,ITC_start,309,space,0,0,459,137288,588825
28,19,female,Belgian,1,21,ITC,neutral,5,right,6,ITC_choice,1306,j,0,0,459,135981,590132
28,19,female,Belgian,1,21,ITC,neutral,5,right,6,ITC_wait,0,undefined,0,0,459,130978,595135
28,19,female,Belgian,1,21,ITC,neutral,5,right,6,ITC_collect,394,k,0,0,459,130582,595531
28,19,female,Belgian,1,21,ITC,neutral,5,right,6,ITC_outcome,0,undefined,0,0,479,129574,596539
28,19,female,Belgian,1,22,guess,loss,5,right,9,guess_start,411,space,0,0,479,129162,596951
28,19,female,Belgian,1,22,guess,loss,5,right,9,guess_choice,1292,j,0,0,479,127868,598245
28,19,female,Belgian,1,22,guess,loss,5,right,9,guess_outcome,0,undefined,0,0,464,126306,599807
28,19,female,Belgian,1,22,ITC,loss,5,right,9,ITC_start,1487,space,0,0,464,124818,601295
28,19,female,Belgian,1,22,ITC,loss,5,right,9,ITC_choice,987,j,0,0,464,123830,602283
28,19,female,Belgian,1,22,ITC,loss,5,right,9,ITC_wait,0,undefined,0,0,464,118818,607295
28,19,female,Belgian,1,22,ITC,loss,5,right,9,ITC_collect,1505,k,0,0,464,117311,608802
28,19,female,Belgian,1,22,ITC,loss,5,right,9,ITC_outcome,0,undefined,0,0,484,116304,609809
28,19,female,Belgian,1,23,guess,neutral,5,right,11,guess_start,395,space,0,0,484,115908,610205
28,19,female,Belgian,1,23,guess,neutral,5,right,11,guess_choice,804,j,0,0,484,115101,611012
28,19,female,Belgian,1,23,guess,neutral,5,right,11,guess_outcome,0,undefined,0,0,484,113534,612579
28,19,female,Belgian,1,23,ITC,neutral,5,right,11,ITC_start,769,space,0,0,484,112764,613349
28,19,female,Belgian,1,23,ITC,neutral,5,right,11,ITC_choice,1279,j,0,0,484,111484,614629
28,19,female,Belgian,1,23,ITC,neutral,5,right,11,ITC_wait,0,undefined,0,0,484,106480,619633
28,19,female,Belgian,1,23,ITC,neutral,5,right,11,ITC_collect,5632,k,0,0,484,100847,625266
28,19,female,Belgian,1,23,ITC,neutral,5,right,11,ITC_outcome,0,undefined,0,0,504,99836,626277
28,19,female,Belgian,1,24,guess,neutral,5,right,1,guess_start,603,space,0,0,504,99232,626881
28,19,female,Belgian,1,24,guess,neutral,5,right,1,guess_choice,736,j,0,0,504,98494,627619
28,19,female,Belgian,1,24,guess,neutral,5,right,1,guess_outcome,0,undefined,0,0,504,96940,629173
28,19,female,Belgian,1,24,ITC,neutral,5,right,1,ITC_start,297,space,0,0,504,96641,629472
28,19,female,Belgian,1,24,ITC,neutral,5,right,1,ITC_choice,1144,j,0,0,504,95496,630617
28,19,female,Belgian,1,24,ITC,neutral,5,right,1,ITC_wait,0,undefined,0,0,504,90485,635628
28,19,female,Belgian,1,24,ITC,neutral,5,right,1,ITC_collect,822,k,0,0,504,89662,636451
28,19,female,Belgian,1,24,ITC,neutral,5,right,1,ITC_outcome,0,undefined,0,0,524,88654,637459
28,19,female,Belgian,1,25,guess,win,5,right,12,guess_start,319,space,0,0,524,88334,637779
28,19,female,Belgian,1,25,guess,win,5,right,12,guess_choice,1256,f,0,0,524,87076,639037
28,19,female,Belgian,1,25,guess,win,5,right,12,guess_outcome,0,undefined,0,0,544,85512,640601
28,19,female,Belgian,1,25,ITC,win,5,right,12,ITC_start,872,space,0,0,544,84639,641474
28,19,female,Belgian,1,25,ITC,win,5,right,12,ITC_choice,875,j,0,0,544,83763,642350
28,19,female,Belgian,1,25,ITC,win,5,right,12,ITC_wait,0,undefined,0,0,544,78758,647355
28,19,female,Belgian,1,25,ITC,win,5,right,12,ITC_collect,1589,k,0,0,544,77167,648946
28,19,female,Belgian,1,25,ITC,win,5,right,12,ITC_outcome,0,undefined,0,0,564,76154,649959
28,19,female,Belgian,1,26,guess,neutral,5,right,14,guess_start,268,space,0,0,564,75884,650229
28,19,female,Belgian,1,26,guess,neutral,5,right,14,guess_choice,728,f,0,0,564,75154,650959
28,19,female,Belgian,1,26,guess,neutral,5,right,14,guess_outcome,0,undefined,0,0,564,73600,652513
28,19,female,Belgian,1,26,ITC,neutral,5,right,14,ITC_start,385,space,0,0,564,73214,652899
28,19,female,Belgian,1,26,ITC,neutral,5,right,14,ITC_choice,1091,j,0,0,564,72122,653991
28,19,female,Belgian,1,26,ITC,neutral,5,right,14,ITC_wait,0,undefined,0,0,564,67120,658993
28,19,female,Belgian,1,26,ITC,neutral,5,right,14,ITC_collect,377,k,0,0,564,66742,659371
28,19,female,Belgian,1,26,ITC,neutral,5,right,14,ITC_outcome,0,undefined,0,0,584,65735,660378
28,19,female,Belgian,1,27,guess,loss,5,left,12,guess_start,740,space,0,0,584,64993,661120
28,19,female,Belgian,1,27,guess,loss,5,left,12,guess_choice,1084,j,0,0,584,63907,662206
28,19,female,Belgian,1,27,guess,loss,5,left,12,guess_outcome,0,undefined,0,0,569,62340,663773
28,19,female,Belgian,1,27,ITC,loss,5,left,12,ITC_start,857,space,0,0,569,61482,664631
28,19,female,Belgian,1,27,ITC,loss,5,left,12,ITC_choice,1714,j,0,0,569,59767,666346
28,19,female,Belgian,1,27,ITC,loss,5,left,12,ITC_wait,0,undefined,0,0,569,59764,666349
28,19,female,Belgian,1,27,ITC,loss,5,left,12,ITC_collect,1538,k,0,0,569,58225,667888
28,19,female,Belgian,1,27,ITC,loss,5,left,12,ITC_outcome,0,undefined,0,0,581,57217,668896
28,19,female,Belgian,1,28,guess,neutral,5,right,5,guess_start,609,space,0,0,581,56607,669506
28,19,female,Belgian,1,28,guess,neutral,5,right,5,guess_choice,821,j,0,0,581,55784,670329
28,19,female,Belgian,1,28,guess,neutral,5,right,5,guess_outcome,0,undefined,0,0,581,54217,671896
28,19,female,Belgian,1,28,ITC,neutral,5,right,5,ITC_start,675,space,0,0,581,53541,672572
28,19,female,Belgian,1,28,ITC,neutral,5,right,5,ITC_choice,1815,j,0,0,581,51726,674387
28,19,female,Belgian,1,28,ITC,neutral,5,right,5,ITC_wait,0,undefined,0,0,581,46719,679394
28,19,female,Belgian,1,28,ITC,neutral,5,right,5,ITC_collect,591,k,0,0,581,46127,679986
28,19,female,Belgian,1,28,ITC,neutral,5,right,5,ITC_outcome,0,undefined,0,0,601,45119,680994
28,19,female,Belgian,1,29,guess,neutral,5,right,12,guess_start,820,space,0,0,601,44298,681815
28,19,female,Belgian,1,29,guess,neutral,5,right,12,guess_choice,702,j,0,0,601,43594,682519
28,19,female,Belgian,1,29,guess,neutral,5,right,12,guess_outcome,0,undefined,0,0,601,42037,684076
28,19,female,Belgian,1,29,ITC,neutral,5,right,12,ITC_start,556,space,0,0,601,41479,684634
28,19,female,Belgian,1,29,ITC,neutral,5,right,12,ITC_choice,1120,j,0,0,601,40358,685755
28,19,female,Belgian,1,29,ITC,neutral,5,right,12,ITC_wait,0,undefined,0,0,601,35345,690768
28,19,female,Belgian,1,29,ITC,neutral,5,right,12,ITC_collect,1012,k,0,0,601,34332,691781
28,19,female,Belgian,1,29,ITC,neutral,5,right,12,ITC_outcome,0,undefined,0,0,621,33325,692788
28,19,female,Belgian,1,30,guess,loss,5,left,14,guess_start,611,space,0,0,621,32712,693401
28,19,female,Belgian,1,30,guess,loss,5,left,14,guess_choice,1512,j,0,0,621,31198,694915
28,19,female,Belgian,1,30,guess,loss,5,left,14,guess_outcome,0,undefined,0,0,606,29644,696469
28,19,female,Belgian,1,30,ITC,loss,5,left,14,ITC_start,1273,space,0,0,606,28370,697743
28,19,female,Belgian,1,30,ITC,loss,5,left,14,ITC_choice,1162,j,0,0,606,27206,698907
28,19,female,Belgian,1,30,ITC,loss,5,left,14,ITC_wait,0,undefined,0,0,606,27204,698909
28,19,female,Belgian,1,30,ITC,loss,5,left,14,ITC_collect,2816,k,0,0,606,24387,701726
28,19,female,Belgian,1,30,ITC,loss,5,left,14,ITC_outcome,0,undefined,0,0,620,23370,702743
28,19,female,Belgian,1,31,guess,loss,10,right,7,guess_start,542,space,0,0,620,22826,703287
28,19,female,Belgian,1,31,guess,loss,10,right,7,guess_choice,1310,j,0,0,620,21514,704599
28,19,female,Belgian,1,31,guess,loss,10,right,7,guess_outcome,0,undefined,0,0,605,19954,706159
28,19,female,Belgian,1,31,ITC,loss,10,right,7,ITC_start,1665,space,0,0,605,18288,707825
28,19,female,Belgian,1,31,ITC,loss,10,right,7,ITC_choice,1858,f,0,0,605,16429,709684
28,19,female,Belgian,1,31,ITC,loss,10,right,7,ITC_wait,0,undefined,0,0,605,16427,709686
28,19,female,Belgian,1,31,ITC,loss,10,right,7,ITC_collect,1377,k,0,0,605,15048,711065
28,19,female,Belgian,1,31,ITC,loss,10,right,7,ITC_outcome,0,undefined,0,0,612,14038,712075
28,19,female,Belgian,1,32,guess,loss,5,right,13,guess_start,778,space,0,0,612,13258,712855
28,19,female,Belgian,1,32,guess,loss,5,right,13,guess_choice,1679,j,0,0,612,11577,714536
28,19,female,Belgian,1,32,guess,loss,5,right,13,guess_outcome,0,undefined,0,0,597,10023,716090
28,19,female,Belgian,1,32,ITC,loss,5,right,13,ITC_start,1093,space,0,0,597,8928,717185
28,19,female,Belgian,1,32,ITC,loss,5,right,13,ITC_choice,1116,j,0,0,597,7811,718302
28,19,female,Belgian,1,32,ITC,loss,5,right,13,ITC_wait,0,undefined,0,0,597,2799,723314
28,19,female,Belgian,1,32,ITC,loss,5,right,13,ITC_collect,381,k,0,0,597,2417,723696
28,19,female,Belgian,1,32,ITC,loss,5,right,13,ITC_outcome,0,undefined,0,0,617,1415,724698
28,19,female,Belgian,1,33,guess,neutral,5,left,10,guess_start,251,space,0,0,617,1162,724951
28,19,female,Belgian,1,33,guess,neutral,5,left,10,guess_choice,721,f,0,0,617,439,725674
28,19,female,Belgian,1,33,guess,neutral,5,left,10,guess_outcome,0,undefined,0,0,617,-9,726122
28,19,female,Belgian,2,34,guess,win,10,right,6,guess_start,1365,space,0,0,0,478634,739104
28,19,female,Belgian,2,34,guess,win,10,right,6,guess_choice,1472,j,0,0,0,477159,740579
28,19,female,Belgian,2,34,guess,win,10,right,6,guess_outcome,0,undefined,0,0,20,475594,742144
28,19,female,Belgian,2,34,ITC,win,10,right,6,ITC_start,709,space,0,0,20,474884,742854
28,19,female,Belgian,2,34,ITC,win,10,right,6,ITC_choice,1987,f,0,0,20,472895,744843
28,19,female,Belgian,2,34,ITC,win,10,right,6,ITC_wait,0,undefined,0,0,20,472893,744845
28,19,female,Belgian,2,34,ITC,win,10,right,6,ITC_collect,509,k,0,0,20,472382,745356
28,19,female,Belgian,2,34,ITC,win,10,right,6,ITC_outcome,0,undefined,0,0,26,471377,746361
28,19,female,Belgian,2,35,guess,neutral,5,left,2,guess_start,730,space,0,0,26,470646,747092
28,19,female,Belgian,2,35,guess,neutral,5,left,2,guess_choice,1057,f,0,0,26,469587,748151
28,19,female,Belgian,2,35,guess,neutral,5,left,2,guess_outcome,0,undefined,0,0,26,468032,749706
28,19,female,Belgian,2,35,ITC,neutral,5,left,2,ITC_start,488,space,0,0,26,467543,750195
28,19,female,Belgian,2,35,ITC,neutral,5,left,2,ITC_choice,1624,j,0,0,26,465918,751820
28,19,female,Belgian,2,35,ITC,neutral,5,left,2,ITC_wait,0,undefined,0,0,26,465916,751822
28,19,female,Belgian,2,35,ITC,neutral,5,left,2,ITC_collect,441,k,0,0,26,465474,752264
28,19,female,Belgian,2,35,ITC,neutral,5,left,2,ITC_outcome,0,undefined,0,0,28,464459,753279
28,19,female,Belgian,2,36,guess,loss,5,right,8,guess_start,281,space,0,0,28,464177,753561
28,19,female,Belgian,2,36,guess,loss,5,right,8,guess_choice,1988,j,0,0,28,462187,755551
28,19,female,Belgian,2,36,guess,loss,5,right,8,guess_outcome,0,undefined,0,0,13,460629,757109
28,19,female,Belgian,2,36,ITC,loss,5,right,8,ITC_start,986,space,0,0,13,459642,758096
28,19,female,Belgian,2,36,ITC,loss,5,right,8,ITC_choice,1193,j,0,0,13,458447,759291
28,19,female,Belgian,2,36,ITC,loss,5,right,8,ITC_wait,0,undefined,0,0,13,453444,764294
28,19,female,Belgian,2,36,ITC,loss,5,right,8,ITC_collect,555,k,0,0,13,452887,764851
28,19,female,Belgian,2,36,ITC,loss,5,right,8,ITC_outcome,0,undefined,0,0,33,451884,765854
28,19,female,Belgian,2,37,guess,win,5,left,2,guess_start,877,space,0,0,33,451005,766733
28,19,female,Belgian,2,37,guess,win,5,left,2,guess_choice,978,j,0,0,33,450025,767713
28,19,female,Belgian,2,37,guess,win,5,left,2,guess_outcome,0,undefined,0,0,53,448465,769273
28,19,female,Belgian,2,37,ITC,win,5,left,2,ITC_start,865,space,0,0,53,447599,770139
28,19,female,Belgian,2,37,ITC,win,5,left,2,ITC_choice,1318,f,0,0,53,446280,771458
28,19,female,Belgian,2,37,ITC,win,5,left,2,ITC_wait,0,undefined,0,0,53,441270,776468
28,19,female,Belgian,2,37,ITC,win,5,left,2,ITC_collect,578,k,0,0,53,440691,777047
28,19,female,Belgian,2,37,ITC,win,5,left,2,ITC_outcome,0,undefined,0,0,73,439686,778052
28,19,female,Belgian,2,38,guess,win,10,right,2,guess_start,1109,space,0,0,73,438576,779162
28,19,female,Belgian,2,38,guess,win,10,right,2,guess_choice,1387,f,0,0,73,437186,780552
28,19,female,Belgian,2,38,guess,win,10,right,2,guess_outcome,0,undefined,0,0,93,435628,782110
28,19,female,Belgian,2,38,ITC,win,10,right,2,ITC_start,858,space,0,0,93,434769,782969
28,19,female,Belgian,2,38,ITC,win,10,right,2,ITC_choice,1736,j,0,0,93,433032,784706
28,19,female,Belgian,2,38,ITC,win,10,right,2,ITC_wait,0,undefined,0,0,93,423016,794722
28,19,female,Belgian,2,38,ITC,win,10,right,2,ITC_collect,878,k,0,0,93,422136,795602
28,19,female,Belgian,2,38,ITC,win,10,right,2,ITC_outcome,0,undefined,0,0,113,421132,796606
28,19,female,Belgian,2,39,guess,loss,10,left,1,guess_start,646,space,0,0,113,420485,797253
28,19,female,Belgian,2,39,guess,loss,10,left,1,guess_choice,1342,j,0,0,113,419141,798597
28,19,female,Belgian,2,39,guess,loss,10,left,1,guess_outcome,0,undefined,0,0,98,417573,800165
28,19,female,Belgian,2,39,ITC,loss,10,left,1,ITC_start,594,space,0,0,98,416978,800760
28,19,female,Belgian,2,39,ITC,loss,10,left,1,ITC_choice,1940,j,0,0,98,415037,802701
28,19,female,Belgian,2,39,ITC,loss,10,left,1,ITC_wait,0,undefined,0,0,98,415035,802703
28,19,female,Belgian,2,39,ITC,loss,10,left,1,ITC_collect,455,k,0,0,98,414579,803159
28,19,female,Belgian,2,39,ITC,loss,10,left,1,ITC_outcome,0,undefined,0,0,99,413572,804166
28,19,female,Belgian,2,40,guess,neutral,10,right,8,guess_start,486,space,0,0,99,413085,804653
28,19,female,Belgian,2,40,guess,neutral,10,right,8,guess_choice,1142,j,0,0,99,411941,805797
28,19,female,Belgian,2,40,guess,neutral,10,right,8,guess_outcome,0,undefined,0,0,99,410379,807359
28,19,female,Belgian,2,40,ITC,neutral,10,right,8,ITC_start,809,space,0,0,99,409569,808169
28,19,female,Belgian,2,40,ITC,neutral,10,right,8,ITC_choice,1837,f,0,0,99,407731,810007
28,19,female,Belgian,2,40,ITC,neutral,10,right,8,ITC_wait,0,undefined,0,0,99,407729,810009
28,19,female,Belgian,2,40,ITC,neutral,10,right,8,ITC_collect,421,k,0,0,99,407307,810431
28,19,female,Belgian,2,40,ITC,neutral,10,right,8,ITC_outcome,0,undefined,0,0,107,406298,811440
28,19,female,Belgian,2,41,guess,win,5,left,6,guess_start,618,space,0,0,107,405679,812059
28,19,female,Belgian,2,41,guess,win,5,left,6,guess_choice,1184,f,0,0,107,404493,813245
28,19,female,Belgian,2,41,guess,win,5,left,6,guess_outcome,0,undefined,0,0,127,402933,814805
28,19,female,Belgian,2,41,ITC,win,5,left,6,ITC_start,789,space,0,0,127,402143,815595
28,19,female,Belgian,2,41,ITC,win,5,left,6,ITC_choice,2792,f,0,0,127,399350,818388
28,19,female,Belgian,2,41,ITC,win,5,left,6,ITC_wait,0,undefined,0,0,127,394336,823402
28,19,female,Belgian,2,41,ITC,win,5,left,6,ITC_collect,661,k,0,0,127,393673,824065
28,19,female,Belgian,2,41,ITC,win,5,left,6,ITC_outcome,0,undefined,0,0,147,392656,825082
28,19,female,Belgian,2,42,guess,win,5,right,10,guess_start,268,space,0,0,147,392387,825351
28,19,female,Belgian,2,42,guess,win,5,right,10,guess_choice,1371,f,0,0,147,391013,826725
28,19,female,Belgian,2,42,guess,win,5,right,10,guess_outcome,0,undefined,0,0,167,389459,828279
28,19,female,Belgian,2,42,ITC,win,5,right,10,ITC_start,876,space,0,0,167,388582,829156
28,19,female,Belgian,2,42,ITC,win,5,right,10,ITC_choice,1382,j,0,0,167,387199,830539
28,19,female,Belgian,2,42,ITC,win,5,right,10,ITC_wait,0,undefined,0,0,167,382189,835549
28,19,female,Belgian,2,42,ITC,win,5,right,10,ITC_collect,466,k,0,0,167,381721,836017
28,19,female,Belgian,2,42,ITC,win,5,right,10,ITC_outcome,0,undefined,0,0,187,380711,837027
28,19,female,Belgian,2,43,guess,loss,10,left,5,guess_start,274,space,0,0,187,380436,837302
28,19,female,Belgian,2,43,guess,loss,10,left,5,guess_choice,1158,j,0,0,187,379276,838462
28,19,female,Belgian,2,43,guess,loss,10,left,5,guess_outcome,0,undefined,0,0,172,377723,840015
28,19,female,Belgian,2,43,ITC,loss,10,left,5,ITC_start,1159,space,0,0,172,376563,841175
28,19,female,Belgian,2,43,ITC,loss,10,left,5,ITC_choice,1644,j,0,0,172,374918,842820
28,19,female,Belgian,2,43,ITC,loss,10,left,5,ITC_wait,0,undefined,0,0,172,374916,842822
28,19,female,Belgian,2,43,ITC,loss,10,left,5,ITC_collect,665,k,0,0,172,374250,843488
28,19,female,Belgian,2,43,ITC,loss,10,left,5,ITC_outcome,0,undefined,0,0,177,373235,844503
28,19,female,Belgian,2,44,guess,win,10,left,8,guess_start,555,space,0,0,177,372679,845059
28,19,female,Belgian,2,44,guess,win,10,left,8,guess_choice,1032,j,0,0,177,371645,846093
28,19,female,Belgian,2,44,guess,win,10,left,8,guess_outcome,0,undefined,0,0,197,370084,847654
28,19,female,Belgian,2,44,ITC,win,10,left,8,ITC_start,947,space,0,0,197,369136,848602
28,19,female,Belgian,2,44,ITC,win,10,left,8,ITC_choice,1976,j,0,0,197,367159,850579
28,19,female,Belgian,2,44,ITC,win,10,left,8,ITC_wait,0,undefined,0,0,197,367157,850581
28,19,female,Belgian,2,44,ITC,win,10,left,8,ITC_collect,334,k,0,0,197,366822,850916
28,19,female,Belgian,2,44,ITC,win,10,left,8,ITC_outcome,0,undefined,0,0,205,365808,851930
28,19,female,Belgian,2,45,guess,win,5,left,8,guess_start,498,space,0,0,205,365309,852429
28,19,female,Belgian,2,45,guess,win,5,left,8,guess_choice,1215,f,0,0,205,364093,853645
28,19,female,Belgian,2,45,guess,win,5,left,8,guess_outcome,0,undefined,0,0,225,362525,855213
28,19,female,Belgian,2,45,ITC,win,5,left,8,ITC_start,761,space,0,0,225,361763,855975
28,19,female,Belgian,2,45,ITC,win,5,left,8,ITC_choice,1314,f,0,0,225,360448,857290
28,19,female,Belgian,2,45,ITC,win,5,left,8,ITC_wait,0,undefined,0,0,225,355439,862299
28,19,female,Belgian,2,45,ITC,win,5,left,8,ITC_collect,489,k,0,0,225,354949,862789
28,19,female,Belgian,2,45,ITC,win,5,left,8,ITC_outcome,0,undefined,0,0,245,353946,863792
28,19,female,Belgian,2,46,guess,loss,5,right,10,guess_start,238,space,0,0,245,353707,864031
28,19,female,Belgian,2,46,guess,loss,5,right,10,guess_choice,1550,j,0,0,245,352155,865583
28,19,female,Belgian,2,46,guess,loss,5,right,10,guess_outcome,0,undefined,0,0,230,350593,867145
28,19,female,Belgian,2,46,ITC,loss,5,right,10,ITC_start,797,space,0,0,230,349795,867943
28,19,female,Belgian,2,46,ITC,loss,5,right,10,ITC_choice,1076,j,0,0,230,348718,869020
28,19,female,Belgian,2,46,ITC,loss,5,right,10,ITC_wait,0,undefined,0,0,230,343702,874036
28,19,female,Belgian,2,46,ITC,loss,5,right,10,ITC_collect,399,k,0,0,230,343301,874437
28,19,female,Belgian,2,46,ITC,loss,5,right,10,ITC_outcome,0,undefined,0,0,250,342284,875454
28,19,female,Belgian,2,47,guess,neutral,5,left,7,guess_start,464,space,0,0,250,341818,875920
28,19,female,Belgian,2,47,guess,neutral,5,left,7,guess_choice,767,f,0,0,250,341048,876690
28,19,female,Belgian,2,47,guess,neutral,5,left,7,guess_outcome,0,undefined,0,0,250,339481,878257
28,19,female,Belgian,2,47,ITC,neutral,5,left,7,ITC_start,311,space,0,0,250,339168,878570
28,19,female,Belgian,2,47,ITC,neutral,5,left,7,ITC_choice,1348,f,0,0,250,337819,879919
28,19,female,Belgian,2,47,ITC,neutral,5,left,7,ITC_wait,0,undefined,0,0,250,332812,884926
28,19,female,Belgian,2,47,ITC,neutral,5,left,7,ITC_collect,855,k,0,0,250,331956,885782
28,19,female,Belgian,2,47,ITC,neutral,5,left,7,ITC_outcome,0,undefined,0,0,270,330942,886796
28,19,female,Belgian,2,48,guess,win,10,left,5,guess_start,315,space,0,0,270,330627,887111
28,19,female,Belgian,2,48,guess,win,10,left,5,guess_choice,1169,j,0,0,270,329455,888283
28,19,female,Belgian,2,48,guess,win,10,left,5,guess_outcome,0,undefined,0,0,290,327902,889836
28,19,female,Belgian,2,48,ITC,win,10,left,5,ITC_start,928,space,0,0,290,326973,890765
28,19,female,Belgian,2,48,ITC,win,10,left,5,ITC_choice,1834,j,0,0,290,325138,892600
28,19,female,Belgian,2,48,ITC,win,10,left,5,ITC_wait,0,undefined,0,0,290,325136,892602
28,19,female,Belgian,2,48,ITC,win,10,left,5,ITC_collect,873,k,0,0,290,324262,893476
28,19,female,Belgian,2,48,ITC,win,10,left,5,ITC_outcome,0,undefined,0,0,295,323255,894483
28,19,female,Belgian,2,49,guess,loss,5,left,16,guess_start,263,space,0,0,295,322991,894747
28,19,female,Belgian,2,49,guess,loss,5,left,16,guess_choice,997,f,0,0,295,321992,895746
28,19,female,Belgian,2,49,guess,loss,5,left,16,guess_outcome,0,undefined,0,0,280,320429,897309
28,19,female,Belgian,2,49,ITC,loss,5,left,16,ITC_start,833,space,0,0,280,319595,898143
28,19,female,Belgian,2,49,ITC,loss,5,left,16,ITC_choice,1175,f,0,0,280,318419,899319
28,19,female,Belgian,2,49,ITC,loss,5,left,16,ITC_wait,0,undefined,0,0,280,313415,904323
28,19,female,Belgian,2,49,ITC,loss,5,left,16,ITC_collect,378,k,0,0,280,313036,904702
28,19,female,Belgian,2,49,ITC,loss,5,left,16,ITC_outcome,0,undefined,0,0,300,312029,905709
28,19,female,Belgian,2,50,guess,loss,10,right,4,guess_start,270,space,0,0,300,311758,905980
28,19,female,Belgian,2,50,guess,loss,10,right,4,guess_choice,1290,f,0,0,300,310467,907271
28,19,female,Belgian,2,50,guess,loss,10,right,4,guess_outcome,0,undefined,0,0,285,308902,908836
28,19,female,Belgian,2,50,ITC,loss,10,right,4,ITC_start,935,space,0,0,285,307966,909772
28,19,female,Belgian,2,50,ITC,loss,10,right,4,ITC_choice,1071,j,0,0,285,306894,910844
28,19,female,Belgian,2,50,ITC,loss,10,right,4,ITC_wait,0,undefined,0,0,285,296892,920846
28,19,female,Belgian,2,50,ITC,loss,10,right,4,ITC_collect,796,k,0,0,285,296094,921644
28,19,female,Belgian,2,50,ITC,loss,10,right,4,ITC_outcome,0,undefined,0,0,305,295085,922653
28,19,female,Belgian,2,51,guess,loss,5,right,15,guess_start,271,space,0,0,305,294811,922927
28,19,female,Belgian,2,51,guess,loss,5,right,15,guess_choice,1279,f,0,0,305,293530,924208
28,19,female,Belgian,2,51,guess,loss,5,right,15,guess_outcome,0,undefined,0,0,290,291969,925769
28,19,female,Belgian,2,51,ITC,loss,5,right,15,ITC_start,851,space,0,0,290,291117,926621
28,19,female,Belgian,2,51,ITC,loss,5,right,15,ITC_choice,945,j,0,0,290,290171,927567
28,19,female,Belgian,2,51,ITC,loss,5,right,15,ITC_wait,0,undefined,0,0,290,285160,932578
28,19,female,Belgian,2,51,ITC,loss,5,right,15,ITC_collect,537,k,0,0,290,284622,933116
28,19,female,Belgian,2,51,ITC,loss,5,right,15,ITC_outcome,0,undefined,0,0,310,283607,934131
28,19,female,Belgian,2,52,guess,loss,5,left,2,guess_start,367,space,0,0,310,283239,934499
28,19,female,Belgian,2,52,guess,loss,5,left,2,guess_choice,1359,f,0,0,310,281877,935861
28,19,female,Belgian,2,52,guess,loss,5,left,2,guess_outcome,0,undefined,0,0,295,280321,937417
28,19,female,Belgian,2,52,ITC,loss,5,left,2,ITC_start,949,space,0,0,295,279370,938368
28,19,female,Belgian,2,52,ITC,loss,5,left,2,ITC_choice,999,f,0,0,295,278369,939369
28,19,female,Belgian,2,52,ITC,loss,5,left,2,ITC_wait,0,undefined,0,0,295,273364,944374
28,19,female,Belgian,2,52,ITC,loss,5,left,2,ITC_collect,278,k,0,0,295,273085,944653
28,19,female,Belgian,2,52,ITC,loss,5,left,2,ITC_outcome,0,undefined,0,0,315,272072,945666
28,19,female,Belgian,2,53,guess,neutral,10,right,7,guess_start,738,space,0,0,315,271333,946405
28,19,female,Belgian,2,53,guess,neutral,10,right,7,guess_choice,744,j,0,0,315,270586,947152
28,19,female,Belgian,2,53,guess,neutral,10,right,7,guess_outcome,0,undefined,0,0,315,269023,948715
28,19,female,Belgian,2,53,ITC,neutral,10,right,7,ITC_start,249,space,0,0,315,268773,948965
28,19,female,Belgian,2,53,ITC,neutral,10,right,7,ITC_choice,1180,f,0,0,315,267591,950147
28,19,female,Belgian,2,53,ITC,neutral,10,right,7,ITC_wait,0,undefined,0,0,315,267589,950149
28,19,female,Belgian,2,53,ITC,neutral,10,right,7,ITC_collect,600,k,0,0,315,266988,950750
28,19,female,Belgian,2,53,ITC,neutral,10,right,7,ITC_outcome,0,undefined,0,0,322,265971,951767
28,19,female,Belgian,2,54,guess,loss,5,left,1,guess_start,449,space,0,0,322,265520,952218
28,19,female,Belgian,2,54,guess,loss,5,left,1,guess_choice,1107,f,0,0,322,264410,953328
28,19,female,Belgian,2,54,guess,loss,5,left,1,guess_outcome,0,undefined,0,0,307,262853,954885
28,19,female,Belgian,2,54,ITC,loss,5,left,1,ITC_start,965,space,0,0,307,261886,955852
28,19,female,Belgian,2,54,ITC,loss,5,left,1,ITC_choice,1194,f,0,0,307,260692,957046
28,19,female,Belgian,2,54,ITC,loss,5,left,1,ITC_wait,0,undefined,0,0,307,255681,962057
28,19,female,Belgian,2,54,ITC,loss,5,left,1,ITC_collect,302,k,0,0,307,255378,962360
28,19,female,Belgian,2,54,ITC,loss,5,left,1,ITC_outcome,0,undefined,0,0,327,254361,963377
28,19,female,Belgian,2,55,guess,loss,10,left,3,guess_start,585,space,0,0,327,253774,963964
28,19,female,Belgian,2,55,guess,loss,10,left,3,guess_choice,1043,f,0,0,327,252729,965009
28,19,female,Belgian,2,55,guess,loss,10,left,3,guess_outcome,0,undefined,0,0,312,251173,966565
28,19,female,Belgian,2,55,ITC,loss,10,left,3,ITC_start,802,space,0,0,312,250371,967367
28,19,female,Belgian,2,55,ITC,loss,10,left,3,ITC_choice,1412,f,0,0,312,248958,968780
28,19,female,Belgian,2,55,ITC,loss,10,left,3,ITC_wait,0,undefined,0,0,312,238951,978787
28,19,female,Belgian,2,55,ITC,loss,10,left,3,ITC_collect,1010,k,0,0,312,237939,979799
28,19,female,Belgian,2,55,ITC,loss,10,left,3,ITC_outcome,0,undefined,0,0,332,236929,980809
28,19,female,Belgian,2,56,guess,loss,5,right,7,guess_start,859,space,0,0,332,236069,981669
28,19,female,Belgian,2,56,guess,loss,5,right,7,guess_choice,1339,j,0,0,332,234728,983010
28,19,female,Belgian,2,56,guess,loss,5,right,7,guess_outcome,0,undefined,0,0,317,233162,984576
28,19,female,Belgian,2,56,ITC,loss,5,right,7,ITC_start,999,space,0,0,317,232161,985577
28,19,female,Belgian,2,56,ITC,loss,5,right,7,ITC_choice,1237,j,0,0,317,230923,986815
28,19,female,Belgian,2,56,ITC,loss,5,right,7,ITC_wait,0,undefined,0,0,317,225921,991817
28,19,female,Belgian,2,56,ITC,loss,5,right,7,ITC_collect,327,k,0,0,317,225592,992146
28,19,female,Belgian,2,56,ITC,loss,5,right,7,ITC_outcome,0,undefined,0,0,337,224581,993157
28,19,female,Belgian,2,57,guess,neutral,5,left,9,guess_start,674,space,0,0,337,223906,993832
28,19,female,Belgian,2,57,guess,neutral,5,left,9,guess_choice,398,j,0,0,337,223506,994232
28,19,female,Belgian,2,57,guess,neutral,5,left,9,guess_outcome,0,undefined,0,0,337,221950,995788
28,19,female,Belgian,2,57,ITC,neutral,5,left,9,ITC_start,1285,space,0,0,337,220663,997075
28,19,female,Belgian,2,57,ITC,neutral,5,left,9,ITC_choice,976,f,0,0,337,219686,998052
28,19,female,Belgian,2,57,ITC,neutral,5,left,9,ITC_wait,0,undefined,0,0,337,214680,1003058
28,19,female,Belgian,2,57,ITC,neutral,5,left,9,ITC_collect,491,k,0,0,337,214188,1003550
28,19,female,Belgian,2,57,ITC,neutral,5,left,9,ITC_outcome,0,undefined,0,0,357,213174,1004564
28,19,female,Belgian,2,58,guess,neutral,10,right,1,guess_start,301,space,0,0,357,212871,1004867
28,19,female,Belgian,2,58,guess,neutral,10,right,1,guess_choice,745,j,0,0,357,212124,1005614
28,19,female,Belgian,2,58,guess,neutral,10,right,1,guess_outcome,0,undefined,0,0,357,210570,1007168
28,19,female,Belgian,2,58,ITC,neutral,10,right,1,ITC_start,562,space,0,0,357,210007,1007731
28,19,female,Belgian,2,58,ITC,neutral,10,right,1,ITC_choice,844,j,0,0,357,209162,1008576
28,19,female,Belgian,2,58,ITC,neutral,10,right,1,ITC_wait,0,undefined,0,0,357,199151,1018587
28,19,female,Belgian,2,58,ITC,neutral,10,right,1,ITC_collect,1407,k,0,0,357,197743,1019995
28,19,female,Belgian,2,58,ITC,neutral,10,right,1,ITC_outcome,0,undefined,0,0,377,196729,1021009
28,19,female,Belgian,2,59,guess,win,5,right,13,guess_start,784,space,0,0,377,195944,1021794
28,19,female,Belgian,2,59,guess,win,5,right,13,guess_choice,885,f,0,0,377,195056,1022682
28,19,female,Belgian,2,59,guess,win,5,right,13,guess_outcome,0,undefined,0,0,397,193498,1024240
28,19,female,Belgian,2,59,ITC,win,5,right,13,ITC_start,674,space,0,0,397,192823,1024915
28,19,female,Belgian,2,59,ITC,win,5,right,13,ITC_choice,1791,f,0,0,397,191030,1026708
28,19,female,Belgian,2,59,ITC,win,5,right,13,ITC_wait,0,undefined,0,0,397,191028,1026710
28,19,female,Belgian,2,59,ITC,win,5,right,13,ITC_collect,750,k,0,0,397,190277,1027461
28,19,female,Belgian,2,59,ITC,win,5,right,13,ITC_outcome,0,undefined,0,0,410,189269,1028469
28,19,female,Belgian,2,60,guess,neutral,5,left,3,guess_start,579,space,0,0,410,188689,1029049
28,19,female,Belgian,2,60,guess,neutral,5,left,3,guess_choice,752,j,0,0,410,187934,1029804
28,19,female,Belgian,2,60,guess,neutral,5,left,3,guess_outcome,0,undefined,0,0,410,186377,1031361
28,19,female,Belgian,2,60,ITC,neutral,5,left,3,ITC_start,938,space,0,0,410,185439,1032299
28,19,female,Belgian,2,60,ITC,neutral,5,left,3,ITC_choice,1423,f,0,0,410,184014,1033724
28,19,female,Belgian,2,60,ITC,neutral,5,left,3,ITC_wait,0,undefined,0,0,410,179009,1038729
28,19,female,Belgian,2,60,ITC,neutral,5,left,3,ITC_collect,339,k,0,0,410,178669,1039069
28,19,female,Belgian,2,60,ITC,neutral,5,left,3,ITC_outcome,0,undefined,0,0,430,177654,1040084
28,19,female,Belgian,2,61,guess,neutral,5,right,15,guess_start,416,space,0,0,430,177238,1040500
28,19,female,Belgian,2,61,guess,neutral,5,right,15,guess_choice,636,j,0,0,430,176600,1041138
28,19,female,Belgian,2,61,guess,neutral,5,right,15,guess_outcome,0,undefined,0,0,430,175041,1042697
28,19,female,Belgian,2,61,ITC,neutral,5,right,15,ITC_start,249,space,0,0,430,174791,1042947
28,19,female,Belgian,2,61,ITC,neutral,5,right,15,ITC_choice,919,j,0,0,430,173870,1043868
28,19,female,Belgian,2,61,ITC,neutral,5,right,15,ITC_wait,0,undefined,0,0,430,168867,1048871
28,19,female,Belgian,2,61,ITC,neutral,5,right,15,ITC_collect,339,k,0,0,430,168527,1049211
28,19,female,Belgian,2,61,ITC,neutral,5,right,15,ITC_outcome,0,undefined,0,0,450,167514,1050224
28,19,female,Belgian,2,62,guess,neutral,5,right,16,guess_start,873,space,0,0,450,166639,1051099
28,19,female,Belgian,2,62,guess,neutral,5,right,16,guess_choice,569,j,0,0,450,166068,1051670
28,19,female,Belgian,2,62,guess,neutral,5,right,16,guess_outcome,0,undefined,0,0,450,164512,1053226
28,19,female,Belgian,2,62,ITC,neutral,5,right,16,ITC_start,978,space,0,0,450,163534,1054204
28,19,female,Belgian,2,62,ITC,neutral,5,right,16,ITC_choice,1343,f,0,0,450,162189,1055549
28,19,female,Belgian,2,62,ITC,neutral,5,right,16,ITC_wait,0,undefined,0,0,450,162187,1055551
28,19,female,Belgian,2,62,ITC,neutral,5,right,16,ITC_collect,1377,k,0,0,450,160809,1056929
28,19,female,Belgian,2,62,ITC,neutral,5,right,16,ITC_outcome,0,undefined,0,0,466,159798,1057940
28,19,female,Belgian,2,63,guess,loss,10,left,6,guess_start,553,space,0,0,466,159244,1058494
28,19,female,Belgian,2,63,guess,loss,10,left,6,guess_choice,1069,f,0,0,466,158174,1059564
28,19,female,Belgian,2,63,guess,loss,10,left,6,guess_outcome,0,undefined,0,0,451,156618,1061120
28,19,female,Belgian,2,63,ITC,loss,10,left,6,ITC_start,1499,space,0,0,451,155118,1062620
28,19,female,Belgian,2,63,ITC,loss,10,left,6,ITC_choice,1963,f,0,0,451,153155,1064583
28,19,female,Belgian,2,63,ITC,loss,10,left,6,ITC_wait,0,undefined,0,0,451,143146,1074592
28,19,female,Belgian,2,63,ITC,loss,10,left,6,ITC_collect,469,k,0,0,451,142676,1075062
28,19,female,Belgian,2,63,ITC,loss,10,left,6,ITC_outcome,0,undefined,0,0,471,141671,1076067
28,19,female,Belgian,2,64,guess,neutral,5,left,13,guess_start,647,space,0,0,471,141022,1076716
28,19,female,Belgian,2,64,guess,neutral,5,left,13,guess_choice,647,j,0,0,471,140373,1077365
28,19,female,Belgian,2,64,guess,neutral,5,left,13,guess_outcome,0,undefined,0,0,471,138807,1078931
28,19,female,Belgian,2,64,ITC,neutral,5,left,13,ITC_start,704,space,0,0,471,138102,1079636
28,19,female,Belgian,2,64,ITC,neutral,5,left,13,ITC_choice,1074,f,0,0,471,137027,1080711
28,19,female,Belgian,2,64,ITC,neutral,5,left,13,ITC_wait,0,undefined,0,0,471,132020,1085718
28,19,female,Belgian,2,64,ITC,neutral,5,left,13,ITC_collect,351,k,0,0,471,131668,1086070
28,19,female,Belgian,2,64,ITC,neutral,5,left,13,ITC_outcome,0,undefined,0,0,491,130652,1087086
28,19,female,Belgian,2,65,guess,win,10,right,1,guess_start,955,space,0,0,491,129695,1088043
28,19,female,Belgian,2,65,guess,win,10,right,1,guess_choice,943,j,0,0,491,128750,1088988
28,19,female,Belgian,2,65,guess,win,10,right,1,guess_outcome,0,undefined,0,0,511,127191,1090547
28,19,female,Belgian,2,65,ITC,win,10,right,1,ITC_start,692,space,0,0,511,126498,1091240
28,19,female,Belgian,2,65,ITC,win,10,right,1,ITC_choice,1069,j,0,0,511,125428,1092310
28,19,female,Belgian,2,65,ITC,win,10,right,1,ITC_wait,0,undefined,0,0,511,115417,1102321
28,19,female,Belgian,2,65,ITC,win,10,right,1,ITC_collect,845,k,0,0,511,114571,1103167
28,19,female,Belgian,2,65,ITC,win,10,right,1,ITC_outcome,0,undefined,0,0,531,113567,1104171
28,19,female,Belgian,2,66,guess,win,10,right,4,guess_start,530,space,0,0,531,113035,1104703
28,19,female,Belgian,2,66,guess,win,10,right,4,guess_choice,784,f,0,0,531,112250,1105488
28,19,female,Belgian,2,66,guess,win,10,right,4,guess_outcome,0,undefined,0,0,551,110684,1107054
28,19,female,Belgian,2,66,ITC,win,10,right,4,ITC_start,810,space,0,0,551,109873,1107865
28,19,female,Belgian,2,66,ITC,win,10,right,4,ITC_choice,858,j,0,0,551,109014,1108724
28,19,female,Belgian,2,66,ITC,win,10,right,4,ITC_wait,0,undefined,0,0,551,99007,1118731
28,19,female,Belgian,2,66,ITC,win,10,right,4,ITC_collect,800,k,0,0,551,98206,1119532
28,19,female,Belgian,2,66,ITC,win,10,right,4,ITC_outcome,0,undefined,0,0,571,97201,1120537
28,19,female,Belgian,2,67,guess,loss,5,right,6,guess_start,626,space,0,0,571,96574,1121164
28,19,female,Belgian,2,67,guess,loss,5,right,6,guess_choice,770,j,0,0,571,95801,1121937
28,19,female,Belgian,2,67,guess,loss,5,right,6,guess_outcome,0,undefined,0,0,556,94241,1123497
28,19,female,Belgian,2,67,ITC,loss,5,right,6,ITC_start,443,space,0,0,556,93797,1123941
28,19,female,Belgian,2,67,ITC,loss,5,right,6,ITC_choice,907,j,0,0,556,92888,1124850
28,19,female,Belgian,2,67,ITC,loss,5,right,6,ITC_wait,0,undefined,0,0,556,87886,1129852
28,19,female,Belgian,2,67,ITC,loss,5,right,6,ITC_collect,277,k,0,0,556,87606,1130132
28,19,female,Belgian,2,67,ITC,loss,5,right,6,ITC_outcome,0,undefined,0,0,576,86592,1131146
28,19,female,Belgian,2,68,guess,win,10,right,7,guess_start,498,space,0,0,576,86092,1131646
28,19,female,Belgian,2,68,guess,win,10,right,7,guess_choice,1227,f,0,0,576,84863,1132875
28,19,female,Belgian,2,68,guess,win,10,right,7,guess_outcome,0,undefined,0,0,596,83308,1134430
28,19,female,Belgian,2,68,ITC,win,10,right,7,ITC_start,992,space,0,0,596,82315,1135423
28,19,female,Belgian,2,68,ITC,win,10,right,7,ITC_choice,1668,f,0,0,596,80645,1137093
28,19,female,Belgian,2,68,ITC,win,10,right,7,ITC_wait,0,undefined,0,0,596,80643,1137095
28,19,female,Belgian,2,68,ITC,win,10,right,7,ITC_collect,436,k,0,0,596,80206,1137532
28,19,female,Belgian,2,68,ITC,win,10,right,7,ITC_outcome,0,undefined,0,0,603,79196,1138542
28,19,female,Belgian,2,69,guess,win,5,left,9,guess_start,556,space,0,0,603,78638,1139100
28,19,female,Belgian,2,69,guess,win,5,left,9,guess_choice,969,j,0,0,603,77667,1140071
28,19,female,Belgian,2,69,guess,win,5,left,9,guess_outcome,0,undefined,0,0,623,76112,1141626
28,19,female,Belgian,2,69,ITC,win,5,left,9,ITC_start,399,space,0,0,623,75712,1142026
28,19,female,Belgian,2,69,ITC,win,5,left,9,ITC_choice,1727,j,0,0,623,73984,1143754
28,19,female,Belgian,2,69,ITC,win,5,left,9,ITC_wait,0,undefined,0,0,623,73982,1143756
28,19,female,Belgian,2,69,ITC,win,5,left,9,ITC_collect,468,k,0,0,623,73513,1144225
28,19,female,Belgian,2,69,ITC,win,5,left,9,ITC_outcome,0,undefined,0,0,632,72498,1145240
28,19,female,Belgian,2,70,guess,win,5,right,3,guess_start,511,space,0,0,632,71986,1145752
28,19,female,Belgian,2,70,guess,win,5,right,3,guess_choice,917,j,0,0,632,71067,1146671
28,19,female,Belgian,2,70,guess,win,5,right,3,guess_outcome,0,undefined,0,0,652,69509,1148229
28,19,female,Belgian,2,70,ITC,win,5,right,3,ITC_start,945,space,0,0,652,68562,1149176
28,19,female,Belgian,2,70,ITC,win,5,right,3,ITC_choice,1683,j,0,0,652,66878,1150860
28,19,female,Belgian,2,70,ITC,win,5,right,3,ITC_wait,0,undefined,0,0,652,61873,1155865
28,19,female,Belgian,2,70,ITC,win,5,right,3,ITC_collect,925,k,0,0,652,60947,1156791
28,19,female,Belgian,2,70,ITC,win,5,right,3,ITC_outcome,0,undefined,0,0,672,59939,1157799
28,19,female,Belgian,2,71,guess,win,5,right,16,guess_start,833,space,0,0,672,59105,1158633
28,19,female,Belgian,2,71,guess,win,5,right,16,guess_choice,819,f,0,0,672,58284,1159454
28,19,female,Belgian,2,71,guess,win,5,right,16,guess_outcome,0,undefined,0,0,692,56725,1161013
28,19,female,Belgian,2,71,ITC,win,5,right,16,ITC_start,855,space,0,0,692,55869,1161869
28,19,female,Belgian,2,71,ITC,win,5,right,16,ITC_choice,1066,j,0,0,692,54801,1162937
28,19,female,Belgian,2,71,ITC,win,5,right,16,ITC_wait,0,undefined,0,0,692,49793,1167945
28,19,female,Belgian,2,71,ITC,win,5,right,16,ITC_collect,767,k,0,0,692,49025,1168713
28,19,female,Belgian,2,71,ITC,win,5,right,16,ITC_outcome,0,undefined,0,0,712,48018,1169720
28,19,female,Belgian,2,72,guess,neutral,5,right,4,guess_start,682,space,0,0,712,47335,1170403
28,19,female,Belgian,2,72,guess,neutral,5,right,4,guess_choice,669,f,0,0,712,46664,1171074
28,19,female,Belgian,2,72,guess,neutral,5,right,4,guess_outcome,0,undefined,0,0,712,45109,1172629
28,19,female,Belgian,2,72,ITC,neutral,5,right,4,ITC_start,275,space,0,0,712,44832,1172906
28,19,female,Belgian,2,72,ITC,neutral,5,right,4,ITC_choice,1467,j,0,0,712,43364,1174374
28,19,female,Belgian,2,72,ITC,neutral,5,right,4,ITC_wait,0,undefined,0,0,712,38350,1179388
28,19,female,Belgian,2,72,ITC,neutral,5,right,4,ITC_collect,406,k,0,0,712,37942,1179796
28,19,female,Belgian,2,72,ITC,neutral,5,right,4,ITC_outcome,0,undefined,0,0,732,36937,1180801
28,19,female,Belgian,2,73,guess,neutral,5,left,16,guess_start,395,space,0,0,732,36540,1181198
28,19,female,Belgian,2,73,guess,neutral,5,left,16,guess_choice,631,j,0,0,732,35908,1181830
28,19,female,Belgian,2,73,guess,neutral,5,left,16,guess_outcome,0,undefined,0,0,732,34353,1183385
28,19,female,Belgian,2,73,ITC,neutral,5,left,16,ITC_start,242,space,0,0,732,34110,1183628
28,19,female,Belgian,2,73,ITC,neutral,5,left,16,ITC_choice,1045,j,0,0,732,33064,1184674
28,19,female,Belgian,2,73,ITC,neutral,5,left,16,ITC_wait,0,undefined,0,0,732,33062,1184676
28,19,female,Belgian,2,73,ITC,neutral,5,left,16,ITC_collect,811,k,0,0,732,32250,1185488
28,19,female,Belgian,2,73,ITC,neutral,5,left,16,ITC_outcome,0,undefined,0,0,748,31237,1186501
28,19,female,Belgian,2,74,guess,win,10,right,1,guess_start,421,space,0,0,748,30815,1186923
28,19,female,Belgian,2,74,guess,win,10,right,1,guess_choice,818,f,0,0,748,29994,1187744
28,19,female,Belgian,2,74,guess,win,10,right,1,guess_outcome,0,undefined,0,0,768,28436,1189302
28,19,female,Belgian,2,74,ITC,win,10,right,1,ITC_start,656,space,0,0,768,27779,1189959
28,19,female,Belgian,2,74,ITC,win,10,right,1,ITC_choice,1237,j,0,0,768,26541,1191197
28,19,female,Belgian,2,74,ITC,win,10,right,1,ITC_wait,0,undefined,0,0,768,16535,1201203
28,19,female,Belgian,2,74,ITC,win,10,right,1,ITC_collect,923,k,0,0,768,15610,1202128
28,19,female,Belgian,2,74,ITC,win,10,right,1,ITC_outcome,0,undefined,0,0,788,14606,1203132
28,19,female,Belgian,2,75,guess,loss,5,right,16,guess_start,732,space,0,0,788,13872,1203866
28,19,female,Belgian,2,75,guess,loss,5,right,16,guess_choice,829,j,0,0,788,13042,1204696
28,19,female,Belgian,2,75,guess,loss,5,right,16,guess_outcome,0,undefined,0,0,773,11476,1206262
28,19,female,Belgian,2,75,ITC,loss,5,right,16,ITC_start,510,space,0,0,773,10964,1206774
28,19,female,Belgian,2,75,ITC,loss,5,right,16,ITC_choice,1546,f,0,0,773,9417,1208321
28,19,female,Belgian,2,75,ITC,loss,5,right,16,ITC_wait,0,undefined,0,0,773,9415,1208323
28,19,female,Belgian,2,75,ITC,loss,5,right,16,ITC_collect,1185,k,0,0,773,8229,1209509
28,19,female,Belgian,2,75,ITC,loss,5,right,16,ITC_outcome,0,undefined,0,0,789,7222,1210516
28,19,female,Belgian,2,76,guess,loss,5,left,14,guess_start,594,space,0,0,789,6627,1211111
28,19,female,Belgian,2,76,guess,loss,5,left,14,guess_choice,1262,j,0,0,789,5363,1212375
28,19,female,Belgian,2,76,guess,loss,5,left,14,guess_outcome,0,undefined,0,0,774,3802,1213936
28,19,female,Belgian,2,76,ITC,loss,5,left,14,ITC_start,1161,space,0,0,774,2639,1215099
28,19,female,Belgian,2,76,ITC,loss,5,left,14,ITC_choice,1340,j,0,0,774,1299,1216439
28,19,female,Belgian,2,76,ITC,loss,5,left,14,ITC_wait,0,undefined,0,0,774,1296,1216442
28,19,female,Belgian,2,76,ITC,loss,5,left,14,ITC_collect,932,k,0,0,774,363,1217375
28,19,female,Belgian,2,76,ITC,loss,5,left,14,ITC_outcome,0,undefined,0,0,788,-4,1217742
28,19,female,Belgian,3,77,guess,win,5,left,7,guess_start,3627,space,0,0,0,476373,1225452
28,19,female,Belgian,3,77,guess,win,5,left,7,guess_choice,1183,j,0,0,0,475188,1226637
28,19,female,Belgian,3,77,guess,win,5,left,7,guess_outcome,0,undefined,0,0,20,473635,1228190
28,19,female,Belgian,3,77,ITC,win,5,left,7,ITC_start,1027,space,0,0,20,472606,1229219
28,19,female,Belgian,3,77,ITC,win,5,left,7,ITC_choice,1002,f,0,0,20,471603,1230222
28,19,female,Belgian,3,77,ITC,win,5,left,7,ITC_wait,0,undefined,0,0,20,466599,1235226
28,19,female,Belgian,3,77,ITC,win,5,left,7,ITC_collect,454,k,0,0,20,466143,1235682
28,19,female,Belgian,3,77,ITC,win,5,left,7,ITC_outcome,0,undefined,0,0,40,465132,1236693
28,19,female,Belgian,3,78,guess,neutral,5,right,11,guess_start,1007,space,0,0,40,464124,1237701
28,19,female,Belgian,3,78,guess,neutral,5,right,11,guess_choice,756,f,0,0,40,463366,1238459
28,19,female,Belgian,3,78,guess,neutral,5,right,11,guess_outcome,0,undefined,0,0,40,461808,1240017
28,19,female,Belgian,3,78,ITC,neutral,5,right,11,ITC_start,407,space,0,0,40,461400,1240425
28,19,female,Belgian,3,78,ITC,neutral,5,right,11,ITC_choice,1247,f,0,0,40,460151,1241674
28,19,female,Belgian,3,78,ITC,neutral,5,right,11,ITC_wait,0,undefined,0,0,40,460149,1241676
28,19,female,Belgian,3,78,ITC,neutral,5,right,11,ITC_collect,483,k,0,0,40,459665,1242160
28,19,female,Belgian,3,78,ITC,neutral,5,right,11,ITC_outcome,0,undefined,0,0,51,458656,1243169
28,19,female,Belgian,3,79,guess,win,10,left,3,guess_start,736,space,0,0,51,457919,1243906
28,19,female,Belgian,3,79,guess,win,10,left,3,guess_choice,1560,j,0,0,51,456356,1245469
28,19,female,Belgian,3,79,guess,win,10,left,3,guess_outcome,0,undefined,0,0,71,454797,1247028
28,19,female,Belgian,3,79,ITC,win,10,left,3,ITC_start,904,space,0,0,71,453892,1247933
28,19,female,Belgian,3,79,ITC,win,10,left,3,ITC_choice,1223,j,0,0,71,452668,1249157
28,19,female,Belgian,3,79,ITC,win,10,left,3,ITC_wait,0,undefined,0,0,71,452666,1249159
28,19,female,Belgian,3,79,ITC,win,10,left,3,ITC_collect,412,k,0,0,71,452252,1249573
28,19,female,Belgian,3,79,ITC,win,10,left,3,ITC_outcome,0,undefined,0,0,74,451242,1250583
28,19,female,Belgian,3,80,guess,win,5,right,10,guess_start,925,space,0,0,74,450316,1251509
28,19,female,Belgian,3,80,guess,win,5,right,10,guess_choice,945,j,0,0,74,449370,1252455
28,19,female,Belgian,3,80,guess,win,5,right,10,guess_outcome,0,undefined,0,0,94,447815,1254010
28,19,female,Belgian,3,80,ITC,win,5,right,10,ITC_start,605,space,0,0,94,447209,1254616
28,19,female,Belgian,3,80,ITC,win,5,right,10,ITC_choice,1075,j,0,0,94,446133,1255692
28,19,female,Belgian,3,80,ITC,win,5,right,10,ITC_wait,0,undefined,0,0,94,441127,1260698
28,19,female,Belgian,3,80,ITC,win,5,right,10,ITC_collect,905,k,0,0,94,440221,1261604
28,19,female,Belgian,3,80,ITC,win,5,right,10,ITC_outcome,0,undefined,0,0,114,439208,1262617
28,19,female,Belgian,3,81,guess,loss,10,right,4,guess_start,905,space,0,0,114,438302,1263523
28,19,female,Belgian,3,81,guess,loss,10,right,4,guess_choice,706,f,0,0,114,437594,1264231
28,19,female,Belgian,3,81,guess,loss,10,right,4,guess_outcome,0,undefined,0,0,99,436029,1265796
28,19,female,Belgian,3,81,ITC,loss,10,right,4,ITC_start,779,space,0,0,99,435248,1266577
28,19,female,Belgian,3,81,ITC,loss,10,right,4,ITC_choice,1798,f,0,0,99,433449,1268376
28,19,female,Belgian,3,81,ITC,loss,10,right,4,ITC_wait,0,undefined,0,0,99,433447,1268378
28,19,female,Belgian,3,81,ITC,loss,10,right,4,ITC_collect,394,k,0,0,99,433052,1268773
28,19,female,Belgian,3,81,ITC,loss,10,right,4,ITC_outcome,0,undefined,0,0,103,432037,1269788
28,19,female,Belgian,3,82,guess,win,5,right,8,guess_start,743,space,0,0,103,431293,1270532
28,19,female,Belgian,3,82,guess,win,5,right,8,guess_choice,1178,f,0,0,103,430113,1271712
28,19,female,Belgian,3,82,guess,win,5,right,8,guess_outcome,0,undefined,0,0,123,428554,1273271
28,19,female,Belgian,3,82,ITC,win,5,right,8,ITC_start,804,space,0,0,123,427749,1274076
28,19,female,Belgian,3,82,ITC,win,5,right,8,ITC_choice,1056,j,0,0,123,426692,1275133
28,19,female,Belgian,3,82,ITC,win,5,right,8,ITC_wait,0,undefined,0,0,123,421676,1280149
28,19,female,Belgian,3,82,ITC,win,5,right,8,ITC_collect,456,k,0,0,123,421218,1280607
28,19,female,Belgian,3,82,ITC,win,5,right,8,ITC_outcome,0,undefined,0,0,143,420212,1281613
28,19,female,Belgian,3,83,guess,loss,5,left,13,guess_start,725,space,0,0,143,419485,1282340
28,19,female,Belgian,3,83,guess,loss,5,left,13,guess_choice,733,f,0,0,143,418751,1283074
28,19,female,Belgian,3,83,guess,loss,5,left,13,guess_outcome,0,undefined,0,0,128,417193,1284632
28,19,female,Belgian,3,83,ITC,loss,5,left,13,ITC_start,408,space,0,0,128,416784,1285041
28,19,female,Belgian,3,83,ITC,loss,5,left,13,ITC_choice,1207,j,0,0,128,415576,1286249
28,19,female,Belgian,3,83,ITC,loss,5,left,13,ITC_wait,0,undefined,0,0,128,415574,1286251
28,19,female,Belgian,3,83,ITC,loss,5,left,13,ITC_collect,703,k,0,0,128,414870,1286955
28,19,female,Belgian,3,83,ITC,loss,5,left,13,ITC_outcome,0,undefined,0,0,141,413860,1287965
28,19,female,Belgian,3,84,guess,neutral,10,right,4,guess_start,468,space,0,0,141,413391,1288434
28,19,female,Belgian,3,84,guess,neutral,10,right,4,guess_choice,598,j,0,0,141,412791,1289034
28,19,female,Belgian,3,84,guess,neutral,10,right,4,guess_outcome,0,undefined,0,0,141,411235,1290590
28,19,female,Belgian,3,84,ITC,neutral,10,right,4,ITC_start,724,space,0,0,141,410510,1291315
28,19,female,Belgian,3,84,ITC,neutral,10,right,4,ITC_choice,1422,f,0,0,141,409086,1292739
28,19,female,Belgian,3,84,ITC,neutral,10,right,4,ITC_wait,0,undefined,0,0,141,409084,1292741
28,19,female,Belgian,3,84,ITC,neutral,10,right,4,ITC_collect,433,k,0,0,141,408650,1293175
28,19,female,Belgian,3,84,ITC,neutral,10,right,4,ITC_outcome,0,undefined,0,0,145,407641,1294184
28,19,female,Belgian,3,85,guess,loss,5,left,9,guess_start,561,space,0,0,145,407079,1294746
28,19,female,Belgian,3,85,guess,loss,5,left,9,guess_choice,1087,j,0,0,145,405990,1295835
28,19,female,Belgian,3,85,guess,loss,5,left,9,guess_outcome,0,undefined,0,0,130,404436,1297389
28,19,female,Belgian,3,85,ITC,loss,5,left,9,ITC_start,898,space,0,0,130,403536,1298289
28,19,female,Belgian,3,85,ITC,loss,5,left,9,ITC_choice,766,j,0,0,130,402769,1299056
28,19,female,Belgian,3,85,ITC,loss,5,left,9,ITC_wait,0,undefined,0,0,130,402766,1299059
28,19,female,Belgian,3,85,ITC,loss,5,left,9,ITC_collect,359,k,0,0,130,402405,1299420
28,19,female,Belgian,3,85,ITC,loss,5,left,9,ITC_outcome,0,undefined,0,0,139,401388,1300437
28,19,female,Belgian,3,86,guess,win,10,right,5,guess_start,701,space,0,0,139,400685,1301140
28,19,female,Belgian,3,86,guess,win,10,right,5,guess_choice,710,f,0,0,139,399973,1301852
28,19,female,Belgian,3,86,guess,win,10,right,5,guess_outcome,0,undefined,0,0,159,398412,1303413
28,19,female,Belgian,3,86,ITC,win,10,right,5,ITC_start,321,space,0,0,159,398089,1303736
28,19,female,Belgian,3,86,ITC,win,10,right,5,ITC_choice,1382,f,0,0,159,396706,1305119
28,19,female,Belgian,3,86,ITC,win,10,right,5,ITC_wait,0,undefined,0,0,159,396704,1305121
28,19,female,Belgian,3,86,ITC,win,10,right,5,ITC_collect,290,k,0,0,159,396413,1305412
28,19,female,Belgian,3,86,ITC,win,10,right,5,ITC_outcome,0,undefined,0,0,164,395409,1306416
28,19,female,Belgian,3,87,guess,neutral,5,right,12,guess_start,624,space,0,0,164,394783,1307042
28,19,female,Belgian,3,87,guess,neutral,5,right,12,guess_choice,964,f,0,0,164,393817,1308008
28,19,female,Belgian,3,87,guess,neutral,5,right,12,guess_outcome,0,undefined,0,0,164,392258,1309567
28,19,female,Belgian,3,87,ITC,neutral,5,right,12,ITC_start,342,space,0,0,164,391914,1309911
28,19,female,Belgian,3,87,ITC,neutral,5,right,12,ITC_choice,928,j,0,0,164,390984,1310841
28,19,female,Belgian,3,87,ITC,neutral,5,right,12,ITC_wait,0,undefined,0,0,164,385974,1315851
28,19,female,Belgian,3,87,ITC,neutral,5,right,12,ITC_collect,388,k,0,0,164,385585,1316240
28,19,female,Belgian,3,87,ITC,neutral,5,right,12,ITC_outcome,0,undefined,0,0,184,384570,1317255
28,19,female,Belgian,3,88,guess,loss,10,left,5,guess_start,750,space,0,0,184,383819,1318006
28,19,female,Belgian,3,88,guess,loss,10,left,5,guess_choice,1145,f,0,0,184,382671,1319154
28,19,female,Belgian,3,88,guess,loss,10,left,5,guess_outcome,0,undefined,0,0,169,381112,1320713
28,19,female,Belgian,3,88,ITC,loss,10,left,5,ITC_start,876,space,0,0,169,380235,1321590
28,19,female,Belgian,3,88,ITC,loss,10,left,5,ITC_choice,1815,j,0,0,169,378419,1323406
28,19,female,Belgian,3,88,ITC,loss,10,left,5,ITC_wait,0,undefined,0,0,169,378417,1323408
28,19,female,Belgian,3,88,ITC,loss,10,left,5,ITC_collect,317,k,0,0,169,378100,1323725
28,19,female,Belgian,3,88,ITC,loss,10,left,5,ITC_outcome,0,undefined,0,0,174,377093,1324732
28,19,female,Belgian,3,89,guess,neutral,10,right,7,guess_start,600,space,0,0,174,376491,1325334
28,19,female,Belgian,3,89,guess,neutral,10,right,7,guess_choice,592,j,0,0,174,375898,1325927
28,19,female,Belgian,3,89,guess,neutral,10,right,7,guess_outcome,0,undefined,0,0,174,374335,1327490
28,19,female,Belgian,3,89,ITC,neutral,10,right,7,ITC_start,575,space,0,0,174,373759,1328066
28,19,female,Belgian,3,89,ITC,neutral,10,right,7,ITC_choice,1201,f,0,0,174,372557,1329268
28,19,female,Belgian,3,89,ITC,neutral,10,right,7,ITC_wait,0,undefined,0,0,174,372555,1329270
28,19,female,Belgian,3,89,ITC,neutral,10,right,7,ITC_collect,309,k,0,0,174,372245,1329580
28,19,female,Belgian,3,89,ITC,neutral,10,right,7,ITC_outcome,0,undefined,0,0,181,371228,1330597
28,19,female,Belgian,3,90,guess,neutral,10,right,6,guess_start,1040,space,0,0,181,370186,1331639
28,19,female,Belgian,3,90,guess,neutral,10,right,6,guess_choice,1003,f,0,0,181,369181,1332644
28,19,female,Belgian,3,90,guess,neutral,10,right,6,guess_outcome,0,undefined,0,0,181,367617,1334208
28,19,female,Belgian,3,90,ITC,neutral,10,right,6,ITC_start,909,space,0,0,181,366707,1335118
28,19,female,Belgian,3,90,ITC,neutral,10,right,6,ITC_choice,1275,f,0,0,181,365430,1336395
28,19,female,Belgian,3,90,ITC,neutral,10,right,6,ITC_wait,0,undefined,0,0,181,365427,1336398
28,19,female,Belgian,3,90,ITC,neutral,10,right,6,ITC_collect,253,k,0,0,181,365174,1336651
28,19,female,Belgian,3,90,ITC,neutral,10,right,6,ITC_outcome,0,undefined,0,0,187,364169,1337656
28,19,female,Belgian,3,91,guess,neutral,10,left,5,guess_start,439,space,0,0,187,363729,1338096
28,19,female,Belgian,3,91,guess,neutral,10,left,5,guess_choice,615,f,0,0,187,363111,1338714
28,19,female,Belgian,3,91,guess,neutral,10,left,5,guess_outcome,0,undefined,0,0,187,361552,1340273
28,19,female,Belgian,3,91,ITC,neutral,10,left,5,ITC_start,730,space,0,0,187,360821,1341004
28,19,female,Belgian,3,91,ITC,neutral,10,left,5,ITC_choice,1220,j,0,0,187,359599,1342226
28,19,female,Belgian,3,91,ITC,neutral,10,left,5,ITC_wait,0,undefined,0,0,187,359597,1342228
28,19,female,Belgian,3,91,ITC,neutral,10,left,5,ITC_collect,416,k,0,0,187,359179,1342646
28,19,female,Belgian,3,91,ITC,neutral,10,left,5,ITC_outcome,0,undefined,0,0,192,358174,1343651
28,19,female,Belgian,3,92,guess,loss,10,right,6,guess_start,405,space,0,0,192,357767,1344058
28,19,female,Belgian,3,92,guess,loss,10,right,6,guess_choice,1540,j,0,0,192,356225,1345600
28,19,female,Belgian,3,92,guess,loss,10,right,6,guess_outcome,0,undefined,0,0,177,354672,1347153
28,19,female,Belgian,3,92,ITC,loss,10,right,6,ITC_start,522,space,0,0,177,354148,1347677
28,19,female,Belgian,3,92,ITC,loss,10,right,6,ITC_choice,979,j,0,0,177,353168,1348657
28,19,female,Belgian,3,92,ITC,loss,10,right,6,ITC_wait,0,undefined,0,0,177,343156,1358669
28,19,female,Belgian,3,92,ITC,loss,10,right,6,ITC_collect,4121,k,0,0,177,339034,1362791
28,19,female,Belgian,3,92,ITC,loss,10,right,6,ITC_outcome,0,undefined,0,0,197,338023,1363802
28,19,female,Belgian,3,93,guess,loss,5,right,11,guess_start,668,space,0,0,197,337354,1364471
28,19,female,Belgian,3,93,guess,loss,5,right,11,guess_choice,899,f,0,0,197,336453,1365372
28,19,female,Belgian,3,93,guess,loss,5,right,11,guess_outcome,0,undefined,0,0,182,334895,1366930
28,19,female,Belgian,3,93,ITC,loss,5,right,11,ITC_start,550,space,0,0,182,334344,1367481
28,19,female,Belgian,3,93,ITC,loss,5,right,11,ITC_choice,1582,f,0,0,182,332761,1369064
28,19,female,Belgian,3,93,ITC,loss,5,right,11,ITC_wait,0,undefined,0,0,182,332758,1369067
28,19,female,Belgian,3,93,ITC,loss,5,right,11,ITC_collect,361,k,0,0,182,332397,1369428
28,19,female,Belgian,3,93,ITC,loss,5,right,11,ITC_outcome,0,undefined,0,0,193,331393,1370432
28,19,female,Belgian,3,94,guess,loss,5,right,3,guess_start,505,space,0,0,193,330886,1370939
28,19,female,Belgian,3,94,guess,loss,5,right,3,guess_choice,1114,f,0,0,193,329769,1372056
28,19,female,Belgian,3,94,guess,loss,5,right,3,guess_outcome,0,undefined,0,0,178,328209,1373616
28,19,female,Belgian,3,94,ITC,loss,5,right,3,ITC_start,738,space,0,0,178,327469,1374356
28,19,female,Belgian,3,94,ITC,loss,5,right,3,ITC_choice,945,j,0,0,178,326523,1375302
28,19,female,Belgian,3,94,ITC,loss,5,right,3,ITC_wait,0,undefined,0,0,178,321510,1380315
28,19,female,Belgian,3,94,ITC,loss,5,right,3,ITC_collect,1190,k,0,0,178,320318,1381507
28,19,female,Belgian,3,94,ITC,loss,5,right,3,ITC_outcome,0,undefined,0,0,198,319303,1382522
28,19,female,Belgian,3,95,guess,loss,5,right,12,guess_start,482,space,0,0,198,318819,1383006
28,19,female,Belgian,3,95,guess,loss,5,right,12,guess_choice,734,j,0,0,198,318083,1383742
28,19,female,Belgian,3,95,guess,loss,5,right,12,guess_outcome,0,undefined,0,0,183,316526,1385299
28,19,female,Belgian,3,95,ITC,loss,5,right,12,ITC_start,820,space,0,0,183,315705,1386120
28,19,female,Belgian,3,95,ITC,loss,5,right,12,ITC_choice,1373,j,0,0,183,314331,1387494
28,19,female,Belgian,3,95,ITC,loss,5,right,12,ITC_wait,0,undefined,0,0,183,309317,1392508
28,19,female,Belgian,3,95,ITC,loss,5,right,12,ITC_collect,376,k,0,0,183,308939,1392886
28,19,female,Belgian,3,95,ITC,loss,5,right,12,ITC_outcome,0,undefined,0,0,203,307933,1393892
28,19,female,Belgian,3,96,guess,loss,10,left,8,guess_start,596,space,0,0,203,307335,1394490
28,19,female,Belgian,3,96,guess,loss,10,left,8,guess_choice,1019,j,0,0,203,306314,1395511
28,19,female,Belgian,3,96,guess,loss,10,left,8,guess_outcome,0,undefined,0,0,188,304752,1397073
28,19,female,Belgian,3,96,ITC,loss,10,left,8,ITC_start,391,space,0,0,188,304359,1397466
28,19,female,Belgian,3,96,ITC,loss,10,left,8,ITC_choice,1257,f,0,0,188,303101,1398724
28,19,female,Belgian,3,96,ITC,loss,10,left,8,ITC_wait,0,undefined,0,0,188,293086,1408739
28,19,female,Belgian,3,96,ITC,loss,10,left,8,ITC_collect,988,k,0,0,188,292096,1409729
28,19,female,Belgian,3,96,ITC,loss,10,left,8,ITC_outcome,0,undefined,0,0,208,291084,1410741
28,19,female,Belgian,3,97,guess,win,5,right,1,guess_start,561,space,0,0,208,290522,1411303
28,19,female,Belgian,3,97,guess,win,5,right,1,guess_choice,1005,f,0,0,208,289514,1412311
28,19,female,Belgian,3,97,guess,win,5,right,1,guess_outcome,0,undefined,0,0,228,287960,1413865
28,19,female,Belgian,3,97,ITC,win,5,right,1,ITC_start,406,space,0,0,228,287553,1414272
28,19,female,Belgian,3,97,ITC,win,5,right,1,ITC_choice,929,j,0,0,228,286623,1415202
28,19,female,Belgian,3,97,ITC,win,5,right,1,ITC_wait,0,undefined,0,0,228,281620,1420205
28,19,female,Belgian,3,97,ITC,win,5,right,1,ITC_collect,461,k,0,0,228,281157,1420668
28,19,female,Belgian,3,97,ITC,win,5,right,1,ITC_outcome,0,undefined,0,0,248,280142,1421683
28,19,female,Belgian,3,98,guess,win,10,left,6,guess_start,608,space,0,0,248,279532,1422293
28,19,female,Belgian,3,98,guess,win,10,left,6,guess_choice,1045,j,0,0,248,278483,1423342
28,19,female,Belgian,3,98,guess,win,10,left,6,guess_outcome,0,undefined,0,0,268,276921,1424904
28,19,female,Belgian,3,98,ITC,win,10,left,6,ITC_start,508,space,0,0,268,276412,1425413
28,19,female,Belgian,3,98,ITC,win,10,left,6,ITC_choice,1163,f,0,0,268,275248,1426577
28,19,female,Belgian,3,98,ITC,win,10,left,6,ITC_wait,0,undefined,0,0,268,265242,1436583
28,19,female,Belgian,3,98,ITC,win,10,left,6,ITC_collect,348,k,0,0,268,264892,1436933
28,19,female,Belgian,3,98,ITC,win,10,left,6,ITC_outcome,0,undefined,0,0,288,263885,1437940
28,19,female,Belgian,3,99,guess,win,5,left,15,guess_start,306,space,0,0,288,263577,1438248
28,19,female,Belgian,3,99,guess,win,5,left,15,guess_choice,1051,f,0,0,288,262524,1439301
28,19,female,Belgian,3,99,guess,win,5,left,15,guess_outcome,0,undefined,0,0,308,260959,1440866
28,19,female,Belgian,3,99,ITC,win,5,left,15,ITC_start,1030,space,0,0,308,259927,1441898
28,19,female,Belgian,3,99,ITC,win,5,left,15,ITC_choice,895,j,0,0,308,259031,1442794
28,19,female,Belgian,3,99,ITC,win,5,left,15,ITC_wait,0,undefined,0,0,308,259028,1442797
28,19,female,Belgian,3,99,ITC,win,5,left,15,ITC_collect,507,k,0,0,308,258520,1443305
28,19,female,Belgian,3,99,ITC,win,5,left,15,ITC_outcome,0,undefined,0,0,323,257509,1444316
28,19,female,Belgian,3,100,guess,neutral,5,left,15,guess_start,467,space,0,0,323,257040,1444785
28,19,female,Belgian,3,100,guess,neutral,5,left,15,guess_choice,888,f,0,0,323,256150,1445675
28,19,female,Belgian,3,100,guess,neutral,5,left,15,guess_outcome,0,undefined,0,0,323,254596,1447229
28,19,female,Belgian,3,100,ITC,neutral,5,left,15,ITC_start,318,space,0,0,323,254277,1447548
28,19,female,Belgian,3,100,ITC,neutral,5,left,15,ITC_choice,884,j,0,0,323,253392,1448433
28,19,female,Belgian,3,100,ITC,neutral,5,left,15,ITC_wait,0,undefined,0,0,323,253389,1448436
28,19,female,Belgian,3,100,ITC,neutral,5,left,15,ITC_collect,344,k,0,0,323,253044,1448781
28,19,female,Belgian,3,100,ITC,neutral,5,left,15,ITC_outcome,0,undefined,0,0,338,252029,1449796
28,19,female,Belgian,3,101,guess,neutral,5,right,13,guess_start,497,space,0,0,338,251530,1450295
28,19,female,Belgian,3,101,guess,neutral,5,right,13,guess_choice,618,f,0,0,338,250910,1450915
28,19,female,Belgian,3,101,guess,neutral,5,right,13,guess_outcome,0,undefined,0,0,338,249351,1452474
28,19,female,Belgian,3,101,ITC,neutral,5,right,13,ITC_start,394,space,0,0,338,248956,1452869
28,19,female,Belgian,3,101,ITC,neutral,5,right,13,ITC_choice,1415,f,0,0,338,247540,1454285
28,19,female,Belgian,3,101,ITC,neutral,5,right,13,ITC_wait,0,undefined,0,0,338,247537,1454288
28,19,female,Belgian,3,101,ITC,neutral,5,right,13,ITC_collect,348,k,0,0,338,247188,1454637
28,19,female,Belgian,3,101,ITC,neutral,5,right,13,ITC_outcome,0,undefined,0,0,351,246181,1455644
28,19,female,Belgian,3,102,guess,neutral,5,right,10,guess_start,605,space,0,0,351,245574,1456251
28,19,female,Belgian,3,102,guess,neutral,5,right,10,guess_choice,563,f,0,0,351,245009,1456816
28,19,female,Belgian,3,102,guess,neutral,5,right,10,guess_outcome,0,undefined,0,0,351,243456,1458369
28,19,female,Belgian,3,102,ITC,neutral,5,right,10,ITC_start,879,space,0,0,351,242575,1459250
28,19,female,Belgian,3,102,ITC,neutral,5,right,10,ITC_choice,1964,f,0,0,351,240610,1461215
28,19,female,Belgian,3,102,ITC,neutral,5,right,10,ITC_wait,0,undefined,0,0,351,240607,1461218
28,19,female,Belgian,3,102,ITC,neutral,5,right,10,ITC_collect,216,k,0,0,351,240390,1461435
28,19,female,Belgian,3,102,ITC,neutral,5,right,10,ITC_outcome,0,undefined,0,0,361,239380,1462445
28,19,female,Belgian,3,103,guess,win,5,left,3,guess_start,587,space,0,0,361,238792,1463033
28,19,female,Belgian,3,103,guess,win,5,left,3,guess_choice,1221,j,0,0,361,237569,1464256
28,19,female,Belgian,3,103,guess,win,5,left,3,guess_outcome,0,undefined,0,0,381,236013,1465812
28,19,female,Belgian,3,103,ITC,win,5,left,3,ITC_start,773,space,0,0,381,235239,1466586
28,19,female,Belgian,3,103,ITC,win,5,left,3,ITC_choice,1384,f,0,0,381,233855,1467970
28,19,female,Belgian,3,103,ITC,win,5,left,3,ITC_wait,0,undefined,0,0,381,228846,1472979
28,19,female,Belgian,3,103,ITC,win,5,left,3,ITC_collect,426,k,0,0,381,228418,1473407
28,19,female,Belgian,3,103,ITC,win,5,left,3,ITC_outcome,0,undefined,0,0,401,227401,1474424
28,19,female,Belgian,3,104,guess,win,5,left,16,guess_start,749,space,0,0,401,226650,1475175
28,19,female,Belgian,3,104,guess,win,5,left,16,guess_choice,1014,f,0,0,401,225634,1476191
28,19,female,Belgian,3,104,guess,win,5,left,16,guess_outcome,0,undefined,0,0,421,224069,1477756
28,19,female,Belgian,3,104,ITC,win,5,left,16,ITC_start,480,space,0,0,421,223588,1478237
28,19,female,Belgian,3,104,ITC,win,5,left,16,ITC_choice,935,j,0,0,421,222652,1479173
28,19,female,Belgian,3,104,ITC,win,5,left,16,ITC_wait,0,undefined,0,0,421,222650,1479175
28,19,female,Belgian,3,104,ITC,win,5,left,16,ITC_collect,208,k,0,0,421,222440,1479385
28,19,female,Belgian,3,104,ITC,win,5,left,16,ITC_outcome,0,undefined,0,0,437,221438,1480387
28,19,female,Belgian,3,105,guess,neutral,10,right,8,guess_start,377,space,0,0,437,221059,1480766
28,19,female,Belgian,3,105,guess,neutral,10,right,8,guess_choice,648,f,0,0,437,220409,1481416
28,19,female,Belgian,3,105,guess,neutral,10,right,8,guess_outcome,0,undefined,0,0,437,218842,1482983
28,19,female,Belgian,3,105,ITC,neutral,10,right,8,ITC_start,278,space,0,0,437,218563,1483262
28,19,female,Belgian,3,105,ITC,neutral,10,right,8,ITC_choice,1414,j,0,0,437,217149,1484676
28,19,female,Belgian,3,105,ITC,neutral,10,right,8,ITC_wait,0,undefined,0,0,437,207146,1494679
28,19,female,Belgian,3,105,ITC,neutral,10,right,8,ITC_collect,426,k,0,0,437,206719,1495106
28,19,female,Belgian,3,105,ITC,neutral,10,right,8,ITC_outcome,0,undefined,0,0,457,205713,1496112
28,19,female,Belgian,3,106,guess,win,10,left,8,guess_start,510,space,0,0,457,205201,1496624
28,19,female,Belgian,3,106,guess,win,10,left,8,guess_choice,925,j,0,0,457,204275,1497550
28,19,female,Belgian,3,106,guess,win,10,left,8,guess_outcome,0,undefined,0,0,477,202717,1499108
28,19,female,Belgian,3,106,ITC,win,10,left,8,ITC_start,701,space,0,0,477,202014,1499811
28,19,female,Belgian,3,106,ITC,win,10,left,8,ITC_choice,1529,f,0,0,477,200483,1501342
28,19,female,Belgian,3,106,ITC,win,10,left,8,ITC_wait,0,undefined,0,0,477,190469,1511356
28,19,female,Belgian,3,106,ITC,win,10,left,8,ITC_collect,432,k,0,0,477,190036,1511789
28,19,female,Belgian,3,106,ITC,win,10,left,8,ITC_outcome,0,undefined,0,0,497,189023,1512802
28,19,female,Belgian,3,107,guess,loss,5,right,4,guess_start,717,space,0,0,497,188304,1513521
28,19,female,Belgian,3,107,guess,loss,5,right,4,guess_choice,773,j,0,0,497,187530,1514295
28,19,female,Belgian,3,107,guess,loss,5,right,4,guess_outcome,0,undefined,0,0,482,185974,1515851
28,19,female,Belgian,3,107,ITC,loss,5,right,4,ITC_start,446,space,0,0,482,185526,1516299
28,19,female,Belgian,3,107,ITC,loss,5,right,4,ITC_choice,924,j,0,0,482,184601,1517224
28,19,female,Belgian,3,107,ITC,loss,5,right,4,ITC_wait,0,undefined,0,0,482,179590,1522235
28,19,female,Belgian,3,107,ITC,loss,5,right,4,ITC_collect,327,k,0,0,482,179261,1522564
28,19,female,Belgian,3,107,ITC,loss,5,right,4,ITC_outcome,0,undefined,0,0,502,178254,1523571
28,19,female,Belgian,3,108,guess,win,5,right,13,guess_start,640,space,0,0,502,177613,1524212
28,19,female,Belgian,3,108,guess,win,5,right,13,guess_choice,1105,j,0,0,502,176506,1525319
28,19,female,Belgian,3,108,guess,win,5,right,13,guess_outcome,0,undefined,0,0,522,174943,1526882
28,19,female,Belgian,3,108,ITC,win,5,right,13,ITC_start,361,space,0,0,522,174581,1527244
28,19,female,Belgian,3,108,ITC,win,5,right,13,ITC_choice,1661,f,0,0,522,172918,1528907
28,19,female,Belgian,3,108,ITC,win,5,right,13,ITC_wait,0,undefined,0,0,522,172916,1528909
28,19,female,Belgian,3,108,ITC,win,5,right,13,ITC_collect,261,k,0,0,522,172654,1529171
28,19,female,Belgian,3,108,ITC,win,5,right,13,ITC_outcome,0,undefined,0,0,535,171646,1530179
28,19,female,Belgian,3,109,guess,loss,5,right,8,guess_start,434,space,0,0,535,171211,1530614
28,19,female,Belgian,3,109,guess,loss,5,right,8,guess_choice,1036,j,0,0,535,170173,1531652
28,19,female,Belgian,3,109,guess,loss,5,right,8,guess_outcome,0,undefined,0,0,520,168609,1533216
28,19,female,Belgian,3,109,ITC,loss,5,right,8,ITC_start,512,space,0,0,520,168096,1533729
28,19,female,Belgian,3,109,ITC,loss,5,right,8,ITC_choice,756,j,0,0,520,167339,1534486
28,19,female,Belgian,3,109,ITC,loss,5,right,8,ITC_wait,0,undefined,0,0,520,162334,1539491
28,19,female,Belgian,3,109,ITC,loss,5,right,8,ITC_collect,301,k,0,0,520,162032,1539793
28,19,female,Belgian,3,109,ITC,loss,5,right,8,ITC_outcome,0,undefined,0,0,540,161027,1540798
28,19,female,Belgian,3,110,guess,win,5,left,4,guess_start,958,space,0,0,540,160067,1541758
28,19,female,Belgian,3,110,guess,win,5,left,4,guess_choice,1281,j,0,0,540,158784,1543041
28,19,female,Belgian,3,110,guess,win,5,left,4,guess_outcome,0,undefined,0,0,560,157232,1544593
28,19,female,Belgian,3,110,ITC,win,5,left,4,ITC_start,564,space,0,0,560,156667,1545158
28,19,female,Belgian,3,110,ITC,win,5,left,4,ITC_choice,940,f,0,0,560,155725,1546100
28,19,female,Belgian,3,110,ITC,win,5,left,4,ITC_wait,0,undefined,0,0,560,150722,1551103
28,19,female,Belgian,3,110,ITC,win,5,left,4,ITC_collect,344,k,0,0,560,150377,1551448
28,19,female,Belgian,3,110,ITC,win,5,left,4,ITC_outcome,0,undefined,0,0,580,149364,1552461
28,19,female,Belgian,3,111,guess,neutral,5,right,1,guess_start,322,space,0,0,580,149040,1552785
28,19,female,Belgian,3,111,guess,neutral,5,right,1,guess_choice,941,j,0,0,580,148097,1553728
28,19,female,Belgian,3,111,guess,neutral,5,right,1,guess_outcome,0,undefined,0,0,580,146541,1555284
28,19,female,Belgian,3,111,ITC,neutral,5,right,1,ITC_start,263,space,0,0,580,146277,1555548
28,19,female,Belgian,3,111,ITC,neutral,5,right,1,ITC_choice,776,j,0,0,580,145501,1556324
28,19,female,Belgian,3,111,ITC,neutral,5,right,1,ITC_wait,0,undefined,0,0,580,140492,1561333
28,19,female,Belgian,3,111,ITC,neutral,5,right,1,ITC_collect,319,k,0,0,580,140171,1561654
28,19,female,Belgian,3,111,ITC,neutral,5,right,1,ITC_outcome,0,undefined,0,0,600,139168,1562657
28,19,female,Belgian,3,112,guess,loss,5,right,15,guess_start,295,space,0,0,600,138871,1562954
28,19,female,Belgian,3,112,guess,loss,5,right,15,guess_choice,666,f,0,0,600,138203,1563622
28,19,female,Belgian,3,112,guess,loss,5,right,15,guess_outcome,0,undefined,0,0,585,136646,1565179
28,19,female,Belgian,3,112,ITC,loss,5,right,15,ITC_start,1025,space,0,0,585,135619,1566206
28,19,female,Belgian,3,112,ITC,loss,5,right,15,ITC_choice,771,j,0,0,585,134847,1566978
28,19,female,Belgian,3,112,ITC,loss,5,right,15,ITC_wait,0,undefined,0,0,585,129836,1571989
28,19,female,Belgian,3,112,ITC,loss,5,right,15,ITC_collect,572,k,0,0,585,129263,1572562
28,19,female,Belgian,3,112,ITC,loss,5,right,15,ITC_outcome,0,undefined,0,0,605,128261,1573564
28,19,female,Belgian,3,113,guess,neutral,5,right,2,guess_start,407,space,0,0,605,127853,1573972
28,19,female,Belgian,3,113,guess,neutral,5,right,2,guess_choice,707,j,0,0,605,127144,1574681
28,19,female,Belgian,3,113,guess,neutral,5,right,2,guess_outcome,0,undefined,0,0,605,125582,1576243
28,19,female,Belgian,3,113,ITC,neutral,5,right,2,ITC_start,518,space,0,0,605,125064,1576761
28,19,female,Belgian,3,113,ITC,neutral,5,right,2,ITC_choice,1054,j,0,0,605,124008,1577817
28,19,female,Belgian,3,113,ITC,neutral,5,right,2,ITC_wait,0,undefined,0,0,605,119000,1582825
28,19,female,Belgian,3,113,ITC,neutral,5,right,2,ITC_collect,421,k,0,0,605,118577,1583248
28,19,female,Belgian,3,113,ITC,neutral,5,right,2,ITC_outcome,0,undefined,0,0,625,117563,1584262
28,19,female,Belgian,3,114,guess,win,5,right,6,guess_start,1043,space,0,0,625,116518,1585307
28,19,female,Belgian,3,114,guess,win,5,right,6,guess_choice,953,f,0,0,625,115563,1586262
28,19,female,Belgian,3,114,guess,win,5,right,6,guess_outcome,0,undefined,0,0,645,114006,1587819
28,19,female,Belgian,3,114,ITC,win,5,right,6,ITC_start,358,space,0,0,645,113647,1588178
28,19,female,Belgian,3,114,ITC,win,5,right,6,ITC_choice,918,j,0,0,645,112727,1589098
28,19,female,Belgian,3,114,ITC,win,5,right,6,ITC_wait,0,undefined,0,0,645,107715,1594110
28,19,female,Belgian,3,114,ITC,win,5,right,6,ITC_collect,313,k,0,0,645,107400,1594425
28,19,female,Belgian,3,114,ITC,win,5,right,6,ITC_outcome,0,undefined,0,0,665,106393,1595432
28,19,female,Belgian,3,115,guess,neutral,5,left,6,guess_start,504,space,0,0,665,105888,1595937
28,19,female,Belgian,3,115,guess,neutral,5,left,6,guess_choice,569,j,0,0,665,105316,1596509
28,19,female,Belgian,3,115,guess,neutral,5,left,6,guess_outcome,0,undefined,0,0,665,103762,1598063
28,19,female,Belgian,3,115,ITC,neutral,5,left,6,ITC_start,556,space,0,0,665,103205,1598620
28,19,female,Belgian,3,115,ITC,neutral,5,left,6,ITC_choice,955,f,0,0,665,102248,1599577
28,19,female,Belgian,3,115,ITC,neutral,5,left,6,ITC_wait,0,undefined,0,0,665,97235,1604590
28,19,female,Belgian,3,115,ITC,neutral,5,left,6,ITC_collect,458,k,0,0,665,96776,1605049
28,19,female,Belgian,3,115,ITC,neutral,5,left,6,ITC_outcome,0,undefined,0,0,685,95770,1606055
28,19,female,Belgian,3,116,guess,neutral,5,right,14,guess_start,504,space,0,0,685,95264,1606561
28,19,female,Belgian,3,116,guess,neutral,5,right,14,guess_choice,567,j,0,0,685,94696,1607129
28,19,female,Belgian,3,116,guess,neutral,5,right,14,guess_outcome,0,undefined,0,0,685,93138,1608687
28,19,female,Belgian,3,116,ITC,neutral,5,right,14,ITC_start,533,space,0,0,685,92604,1609221
28,19,female,Belgian,3,116,ITC,neutral,5,right,14,ITC_choice,917,j,0,0,685,91685,1610140
28,19,female,Belgian,3,116,ITC,neutral,5,right,14,ITC_wait,0,undefined,0,0,685,86678,1615147
28,19,female,Belgian,3,116,ITC,neutral,5,right,14,ITC_collect,1386,k,0,0,685,85290,1616535
28,19,female,Belgian,3,116,ITC,neutral,5,right,14,ITC_outcome,0,undefined,0,0,705,84275,1617550
28,19,female,Belgian,3,117,guess,win,10,right,7,guess_start,512,space,0,0,705,83762,1618063
28,19,female,Belgian,3,117,guess,win,10,right,7,guess_choice,1037,j,0,0,705,82722,1619103
28,19,female,Belgian,3,117,guess,win,10,right,7,guess_outcome,0,undefined,0,0,725,81158,1620667
28,19,female,Belgian,3,117,ITC,win,10,right,7,ITC_start,318,space,0,0,725,80838,1620987
28,19,female,Belgian,3,117,ITC,win,10,right,7,ITC_choice,1457,f,0,0,725,79380,1622445
28,19,female,Belgian,3,117,ITC,win,10,right,7,ITC_wait,0,undefined,0,0,725,79378,1622447
28,19,female,Belgian,3,117,ITC,win,10,right,7,ITC_collect,394,k,0,0,725,78983,1622842
28,19,female,Belgian,3,117,ITC,win,10,right,7,ITC_outcome,0,undefined,0,0,732,77967,1623858
28,19,female,Belgian,3,118,guess,neutral,5,right,7,guess_start,525,space,0,0,732,77441,1624384
28,19,female,Belgian,3,118,guess,neutral,5,right,7,guess_choice,877,f,0,0,732,76562,1625263
28,19,female,Belgian,3,118,guess,neutral,5,right,7,guess_outcome,0,undefined,0,0,732,75000,1626825
28,19,female,Belgian,3,118,ITC,neutral,5,right,7,ITC_start,555,space,0,0,732,74444,1627381
28,19,female,Belgian,3,118,ITC,neutral,5,right,7,ITC_choice,799,j,0,0,732,73643,1628182
28,19,female,Belgian,3,118,ITC,neutral,5,right,7,ITC_wait,0,undefined,0,0,732,68637,1633188
28,19,female,Belgian,3,118,ITC,neutral,5,right,7,ITC_collect,291,k,0,0,732,68344,1633481
28,19,female,Belgian,3,118,ITC,neutral,5,right,7,ITC_outcome,0,undefined,0,0,752,67329,1634496
28,19,female,Belgian,3,119,guess,neutral,5,right,9,guess_start,541,space,0,0,752,66786,1635039
28,19,female,Belgian,3,119,guess,neutral,5,right,9,guess_choice,654,f,0,0,752,66130,1635695
28,19,female,Belgian,3,119,guess,neutral,5,right,9,guess_outcome,0,undefined,0,0,752,64574,1637251
28,19,female,Belgian,3,119,ITC,neutral,5,right,9,ITC_start,265,space,0,0,752,64308,1637517
28,19,female,Belgian,3,119,ITC,neutral,5,right,9,ITC_choice,903,j,0,0,752,63403,1638422
28,19,female,Belgian,3,119,ITC,neutral,5,right,9,ITC_wait,0,undefined,0,0,752,58395,1643430
28,19,female,Belgian,3,119,ITC,neutral,5,right,9,ITC_collect,296,k,0,0,752,58098,1643727
28,19,female,Belgian,3,119,ITC,neutral,5,right,9,ITC_outcome,0,undefined,0,0,772,57089,1644736
28,19,female,Belgian,3,120,guess,win,5,left,14,guess_start,648,space,0,0,772,56439,1645386
28,19,female,Belgian,3,120,guess,win,5,left,14,guess_choice,692,j,0,0,772,55744,1646081
28,19,female,Belgian,3,120,guess,win,5,left,14,guess_outcome,0,undefined,0,0,792,54186,1647639
28,19,female,Belgian,3,120,ITC,win,5,left,14,ITC_start,440,space,0,0,792,53745,1648080
28,19,female,Belgian,3,120,ITC,win,5,left,14,ITC_choice,1154,f,0,0,792,52590,1649235
28,19,female,Belgian,3,120,ITC,win,5,left,14,ITC_wait,0,undefined,0,0,792,47587,1654238
28,19,female,Belgian,3,120,ITC,win,5,left,14,ITC_collect,352,k,0,0,792,47235,1654590
28,19,female,Belgian,3,120,ITC,win,5,left,14,ITC_outcome,0,undefined,0,0,812,46232,1655593
28,19,female,Belgian,3,121,guess,loss,10,right,1,guess_start,550,space,0,0,812,45680,1656145
28,19,female,Belgian,3,121,guess,loss,10,right,1,guess_choice,1056,j,0,0,812,44623,1657202
28,19,female,Belgian,3,121,guess,loss,10,right,1,guess_outcome,0,undefined,0,0,797,43061,1658764
28,19,female,Belgian,3,121,ITC,loss,10,right,1,ITC_start,409,space,0,0,797,42650,1659175
28,19,female,Belgian,3,121,ITC,loss,10,right,1,ITC_choice,971,j,0,0,797,41678,1660147
28,19,female,Belgian,3,121,ITC,loss,10,right,1,ITC_wait,0,undefined,0,0,797,31671,1670154
28,19,female,Belgian,3,121,ITC,loss,10,right,1,ITC_collect,1039,k,0,0,797,30630,1671195
28,19,female,Belgian,3,121,ITC,loss,10,right,1,ITC_outcome,0,undefined,0,0,817,29615,1672210
28,19,female,Belgian,3,122,guess,neutral,5,left,3,guess_start,766,space,0,0,817,28847,1672978
28,19,female,Belgian,3,122,guess,neutral,5,left,3,guess_choice,627,j,0,0,817,28218,1673607
28,19,female,Belgian,3,122,guess,neutral,5,left,3,guess_outcome,0,undefined,0,0,817,26658,1675167
28,19,female,Belgian,3,122,ITC,neutral,5,left,3,ITC_start,627,space,0,0,817,26029,1675796
28,19,female,Belgian,3,122,ITC,neutral,5,left,3,ITC_choice,1145,f,0,0,817,24883,1676942
28,19,female,Belgian,3,122,ITC,neutral,5,left,3,ITC_wait,0,undefined,0,0,817,19869,1681956
28,19,female,Belgian,3,122,ITC,neutral,5,left,3,ITC_collect,346,k,0,0,817,19521,1682304
28,19,female,Belgian,3,122,ITC,neutral,5,left,3,ITC_outcome,0,undefined,0,0,837,18516,1683309
28,19,female,Belgian,3,123,guess,loss,10,right,3,guess_start,462,space,0,0,837,18053,1683772
28,19,female,Belgian,3,123,guess,loss,10,right,3,guess_choice,933,j,0,0,837,17118,1684707
28,19,female,Belgian,3,123,guess,loss,10,right,3,guess_outcome,0,undefined,0,0,822,15553,1686272
28,19,female,Belgian,3,123,ITC,loss,10,right,3,ITC_start,577,space,0,0,822,14975,1686850
28,19,female,Belgian,3,123,ITC,loss,10,right,3,ITC_choice,1664,f,0,0,822,13309,1688516
28,19,female,Belgian,3,123,ITC,loss,10,right,3,ITC_wait,0,undefined,0,0,822,13307,1688518
28,19,female,Belgian,3,123,ITC,loss,10,right,3,ITC_collect,156,k,0,0,822,13150,1688675
28,19,female,Belgian,3,123,ITC,loss,10,right,3,ITC_outcome,0,undefined,0,0,825,12135,1689690
28,19,female,Belgian,3,124,guess,loss,5,right,7,guess_start,650,space,0,0,825,11484,1690341
28,19,female,Belgian,3,124,guess,loss,5,right,7,guess_choice,1348,j,0,0,825,10133,1691692
28,19,female,Belgian,3,124,guess,loss,5,right,7,guess_outcome,0,undefined,0,0,810,8567,1693258
28,19,female,Belgian,3,124,ITC,loss,5,right,7,ITC_start,833,space,0,0,810,7733,1694092
28,19,female,Belgian,3,124,ITC,loss,5,right,7,ITC_choice,849,j,0,0,810,6882,1694943
28,19,female,Belgian,3,124,ITC,loss,5,right,7,ITC_wait,0,undefined,0,0,810,1866,1699959
28,19,female,Belgian,3,124,ITC,loss,5,right,7,ITC_collect,350,k,0,0,810,1515,1700310
28,19,female,Belgian,3,124,ITC,loss,5,right,7,ITC_outcome,0,undefined,0,0,830,512,1701313
28,19,female,Belgian,3,125,guess,win,10,left,2,guess_start,514,space,0,0,830,-3,1701828
28,19,female,Belgian,4,126,guess,neutral,5,left,8,guess_start,834,space,0,0,0,479165,1754537
28,19,female,Belgian,4,126,guess,neutral,5,left,8,guess_choice,776,j,0,0,0,478386,1755316
28,19,female,Belgian,4,126,guess,neutral,5,left,8,guess_outcome,0,undefined,0,0,0,476832,1756870
28,19,female,Belgian,4,126,ITC,neutral,5,left,8,ITC_start,840,space,0,0,0,475990,1757712
28,19,female,Belgian,4,126,ITC,neutral,5,left,8,ITC_choice,1053,f,0,0,0,474936,1758766
28,19,female,Belgian,4,126,ITC,neutral,5,left,8,ITC_wait,0,undefined,0,0,0,469926,1763776
28,19,female,Belgian,4,126,ITC,neutral,5,left,8,ITC_collect,649,k,0,0,0,469274,1764428
28,19,female,Belgian,4,126,ITC,neutral,5,left,8,ITC_outcome,0,undefined,0,0,20,468261,1765441
28,19,female,Belgian,4,127,guess,neutral,10,left,2,guess_start,919,space,0,0,20,467341,1766361
28,19,female,Belgian,4,127,guess,neutral,10,left,2,guess_choice,611,f,0,0,20,466728,1766974
28,19,female,Belgian,4,127,guess,neutral,10,left,2,guess_outcome,0,undefined,0,0,20,465168,1768534
28,19,female,Belgian,4,127,ITC,neutral,10,left,2,ITC_start,626,space,0,0,20,464540,1769162
28,19,female,Belgian,4,127,ITC,neutral,10,left,2,ITC_choice,1527,j,0,0,20,463012,1770690
28,19,female,Belgian,4,127,ITC,neutral,10,left,2,ITC_wait,0,undefined,0,0,20,463010,1770692
28,19,female,Belgian,4,127,ITC,neutral,10,left,2,ITC_collect,346,k,0,0,20,462662,1771040
28,19,female,Belgian,4,127,ITC,neutral,10,left,2,ITC_outcome,0,undefined,0,0,22,461646,1772056
28,19,female,Belgian,4,128,guess,win,5,left,12,guess_start,520,space,0,0,22,461125,1772577
28,19,female,Belgian,4,128,guess,win,5,left,12,guess_choice,744,j,0,0,22,460379,1773323
28,19,female,Belgian,4,128,guess,win,5,left,12,guess_outcome,0,undefined,0,0,42,458815,1774887
28,19,female,Belgian,4,128,ITC,win,5,left,12,ITC_start,405,space,0,0,42,458410,1775292
28,19,female,Belgian,4,128,ITC,win,5,left,12,ITC_choice,1045,j,0,0,42,457363,1776339
28,19,female,Belgian,4,128,ITC,win,5,left,12,ITC_wait,0,undefined,0,0,42,457361,1776341
28,19,female,Belgian,4,128,ITC,win,5,left,12,ITC_collect,268,k,0,0,42,457091,1776611
28,19,female,Belgian,4,128,ITC,win,5,left,12,ITC_outcome,0,undefined,0,0,54,456079,1777623
28,19,female,Belgian,4,129,guess,win,5,left,5,guess_start,413,space,0,0,54,455665,1778037
28,19,female,Belgian,4,129,guess,win,5,left,5,guess_choice,751,f,0,0,54,454911,1778791
28,19,female,Belgian,4,129,guess,win,5,left,5,guess_outcome,0,undefined,0,0,74,453353,1780349
28,19,female,Belgian,4,129,ITC,win,5,left,5,ITC_start,323,space,0,0,74,453029,1780673
28,19,female,Belgian,4,129,ITC,win,5,left,5,ITC_choice,1005,j,0,0,74,452022,1781680
28,19,female,Belgian,4,129,ITC,win,5,left,5,ITC_wait,0,undefined,0,0,74,452019,1781683
28,19,female,Belgian,4,129,ITC,win,5,left,5,ITC_collect,311,k,0,0,74,451707,1781995
28,19,female,Belgian,4,129,ITC,win,5,left,5,ITC_outcome,0,undefined,0,0,79,450692,1783010
28,19,female,Belgian,4,130,guess,neutral,10,right,3,guess_start,415,space,0,0,79,450275,1783427
28,19,female,Belgian,4,130,guess,neutral,10,right,3,guess_choice,624,j,0,0,79,449649,1784053
28,19,female,Belgian,4,130,guess,neutral,10,right,3,guess_outcome,0,undefined,0,0,79,448089,1785613
28,19,female,Belgian,4,130,ITC,neutral,10,right,3,ITC_start,291,space,0,0,79,447797,1785905
28,19,female,Belgian,4,130,ITC,neutral,10,right,3,ITC_choice,1039,j,0,0,79,446757,1786945
28,19,female,Belgian,4,130,ITC,neutral,10,right,3,ITC_wait,0,undefined,0,0,79,436741,1796961
28,19,female,Belgian,4,130,ITC,neutral,10,right,3,ITC_collect,399,k,0,0,79,436340,1797362
28,19,female,Belgian,4,130,ITC,neutral,10,right,3,ITC_outcome,0,undefined,0,0,99,435336,1798366
28,19,female,Belgian,4,131,guess,neutral,10,left,1,guess_start,275,space,0,0,99,435059,1798643
28,19,female,Belgian,4,131,guess,neutral,10,left,1,guess_choice,535,j,0,0,99,434522,1799180
28,19,female,Belgian,4,131,guess,neutral,10,left,1,guess_outcome,0,undefined,0,0,99,432956,1800746
28,19,female,Belgian,4,131,ITC,neutral,10,left,1,ITC_start,362,space,0,0,99,432592,1801110
28,19,female,Belgian,4,131,ITC,neutral,10,left,1,ITC_choice,1090,f,0,0,99,431501,1802201
28,19,female,Belgian,4,131,ITC,neutral,10,left,1,ITC_wait,0,undefined,0,0,99,421486,1812216
28,19,female,Belgian,4,131,ITC,neutral,10,left,1,ITC_collect,383,k,0,0,99,421102,1812600
28,19,female,Belgian,4,131,ITC,neutral,10,left,1,ITC_outcome,0,undefined,0,0,119,420085,1813617
28,19,female,Belgian,4,132,guess,loss,5,left,6,guess_start,413,space,0,0,119,419670,1814032
28,19,female,Belgian,4,132,guess,loss,5,left,6,guess_choice,938,f,0,0,119,418730,1814972
28,19,female,Belgian,4,132,guess,loss,5,left,6,guess_outcome,0,undefined,0,0,104,417165,1816537
28,19,female,Belgian,4,132,ITC,loss,5,left,6,ITC_start,624,space,0,0,104,416540,1817162
28,19,female,Belgian,4,132,ITC,loss,5,left,6,ITC_choice,1707,f,0,0,104,414833,1818869
28,19,female,Belgian,4,132,ITC,loss,5,left,6,ITC_wait,0,undefined,0,0,104,409823,1823879
28,19,female,Belgian,4,132,ITC,loss,5,left,6,ITC_collect,410,k,0,0,104,409412,1824290
28,19,female,Belgian,4,132,ITC,loss,5,left,6,ITC_outcome,0,undefined,0,0,124,408396,1825306
28,19,female,Belgian,4,133,guess,loss,5,right,2,guess_start,276,space,0,0,124,408118,1825584
28,19,female,Belgian,4,133,guess,loss,5,right,2,guess_choice,1338,f,0,0,124,406778,1826924
28,19,female,Belgian,4,133,guess,loss,5,right,2,guess_outcome,0,undefined,0,0,109,405222,1828480
28,19,female,Belgian,4,133,ITC,loss,5,right,2,ITC_start,359,space,0,0,109,404862,1828840
28,19,female,Belgian,4,133,ITC,loss,5,right,2,ITC_choice,898,j,0,0,109,403963,1829739
28,19,female,Belgian,4,133,ITC,loss,5,right,2,ITC_wait,0,undefined,0,0,109,398960,1834742
28,19,female,Belgian,4,133,ITC,loss,5,right,2,ITC_collect,331,k,0,0,109,398627,1835075
28,19,female,Belgian,4,133,ITC,loss,5,right,2,ITC_outcome,0,undefined,0,0,129,397620,1836082
28,19,female,Belgian,4,134,guess,loss,5,left,10,guess_start,557,space,0,0,129,397061,1836641
28,19,female,Belgian,4,134,guess,loss,5,left,10,guess_choice,610,j,0,0,129,396449,1837253
28,19,female,Belgian,4,134,guess,loss,5,left,10,guess_outcome,0,undefined,0,0,114,394886,1838816
28,19,female,Belgian,4,134,ITC,loss,5,left,10,ITC_start,443,space,0,0,114,394441,1839261
28,19,female,Belgian,4,134,ITC,loss,5,left,10,ITC_choice,980,j,0,0,114,393461,1840241
28,19,female,Belgian,4,134,ITC,loss,5,left,10,ITC_wait,0,undefined,0,0,114,393458,1840244
28,19,female,Belgian,4,134,ITC,loss,5,left,10,ITC_collect,280,k,0,0,114,393178,1840524
28,19,female,Belgian,4,134,ITC,loss,5,left,10,ITC_outcome,0,undefined,0,0,124,392169,1841533
28,19,female,Belgian,4,135,guess,win,5,left,2,guess_start,454,space,0,0,124,391713,1841989
28,19,female,Belgian,4,135,guess,win,5,left,2,guess_choice,946,j,0,0,124,390764,1842938
28,19,female,Belgian,4,135,guess,win,5,left,2,guess_outcome,0,undefined,0,0,144,389200,1844502
28,19,female,Belgian,4,135,ITC,win,5,left,2,ITC_start,604,space,0,0,144,388595,1845107
28,19,female,Belgian,4,135,ITC,win,5,left,2,ITC_choice,907,f,0,0,144,387686,1846016
28,19,female,Belgian,4,135,ITC,win,5,left,2,ITC_wait,0,undefined,0,0,144,382673,1851029
28,19,female,Belgian,4,135,ITC,win,5,left,2,ITC_collect,407,k,0,0,144,382264,1851438
28,19,female,Belgian,4,135,ITC,win,5,left,2,ITC_outcome,0,undefined,0,0,164,381257,1852445
28,19,female,Belgian,4,136,guess,loss,10,left,7,guess_start,654,space,0,0,164,380601,1853101
28,19,female,Belgian,4,136,guess,loss,10,left,7,guess_choice,1205,f,0,0,164,379394,1854308
28,19,female,Belgian,4,136,guess,loss,10,left,7,guess_outcome,0,undefined,0,0,149,377835,1855867
28,19,female,Belgian,4,136,ITC,loss,10,left,7,ITC_start,942,space,0,0,149,376891,1856811
28,19,female,Belgian,4,136,ITC,loss,10,left,7,ITC_choice,1097,f,0,0,149,375793,1857909
28,19,female,Belgian,4,136,ITC,loss,10,left,7,ITC_wait,0,undefined,0,0,149,365785,1867917
28,19,female,Belgian,4,136,ITC,loss,10,left,7,ITC_collect,442,k,0,0,149,365341,1868361
28,19,female,Belgian,4,136,ITC,loss,10,left,7,ITC_outcome,0,undefined,0,0,169,364338,1869364
28,19,female,Belgian,4,137,guess,loss,10,right,2,guess_start,511,space,0,0,169,363825,1869877
28,19,female,Belgian,4,137,guess,loss,10,right,2,guess_choice,696,j,0,0,169,363127,1870575
28,19,female,Belgian,4,137,guess,loss,10,right,2,guess_outcome,0,undefined,0,0,154,361565,1872137
28,19,female,Belgian,4,137,ITC,loss,10,right,2,ITC_start,433,space,0,0,154,361131,1872571
28,19,female,Belgian,4,137,ITC,loss,10,right,2,ITC_choice,1124,j,0,0,154,360005,1873697
28,19,female,Belgian,4,137,ITC,loss,10,right,2,ITC_wait,0,undefined,0,0,154,349999,1883703
28,19,female,Belgian,4,137,ITC,loss,10,right,2,ITC_collect,622,k,0,0,154,349376,1884326
28,19,female,Belgian,4,137,ITC,loss,10,right,2,ITC_outcome,0,undefined,0,0,174,348362,1885340
28,19,female,Belgian,4,138,guess,loss,5,left,5,guess_start,422,space,0,0,174,347938,1885764
28,19,female,Belgian,4,138,guess,loss,5,left,5,guess_choice,897,f,0,0,174,347039,1886663
28,19,female,Belgian,4,138,guess,loss,5,left,5,guess_outcome,0,undefined,0,0,159,345480,1888222
28,19,female,Belgian,4,138,ITC,loss,5,left,5,ITC_start,383,space,0,0,159,345095,1888607
28,19,female,Belgian,4,138,ITC,loss,5,left,5,ITC_choice,936,f,0,0,159,344158,1889544
28,19,female,Belgian,4,138,ITC,loss,5,left,5,ITC_wait,0,undefined,0,0,159,339143,1894559
28,19,female,Belgian,4,138,ITC,loss,5,left,5,ITC_collect,402,k,0,0,159,338740,1894962
28,19,female,Belgian,4,138,ITC,loss,5,left,5,ITC_outcome,0,undefined,0,0,179,337738,1895964
28,19,female,Belgian,4,139,guess,neutral,5,right,5,guess_start,339,space,0,0,179,337397,1896305
28,19,female,Belgian,4,139,guess,neutral,5,right,5,guess_choice,761,j,0,0,179,336634,1897068
28,19,female,Belgian,4,139,guess,neutral,5,right,5,guess_outcome,0,undefined,0,0,179,335074,1898628
28,19,female,Belgian,4,139,ITC,neutral,5,right,5,ITC_start,251,space,0,0,179,334822,1898880
28,19,female,Belgian,4,139,ITC,neutral,5,right,5,ITC_choice,834,j,0,0,179,333987,1899715
28,19,female,Belgian,4,139,ITC,neutral,5,right,5,ITC_wait,0,undefined,0,0,179,328975,1904727
28,19,female,Belgian,4,139,ITC,neutral,5,right,5,ITC_collect,391,k,0,0,179,328583,1905119
28,19,female,Belgian,4,139,ITC,neutral,5,right,5,ITC_outcome,0,undefined,0,0,199,327571,1906131
28,19,female,Belgian,4,140,guess,neutral,5,left,4,guess_start,365,space,0,0,199,327205,1906497
28,19,female,Belgian,4,140,guess,neutral,5,left,4,guess_choice,595,f,0,0,199,326608,1907094
28,19,female,Belgian,4,140,guess,neutral,5,left,4,guess_outcome,0,undefined,0,0,199,325045,1908657
28,19,female,Belgian,4,140,ITC,neutral,5,left,4,ITC_start,244,space,0,0,199,324800,1908902
28,19,female,Belgian,4,140,ITC,neutral,5,left,4,ITC_choice,1061,f,0,0,199,323738,1909964
28,19,female,Belgian,4,140,ITC,neutral,5,left,4,ITC_wait,0,undefined,0,0,199,318726,1914976
