subjectID,age,gender,nationality,block_number,trial_number,trial_type,guess_outcome,delay_time,delay_pos,immediate_amount,stage,respRT,respKey,blur_count,focus_count,total_points,remaining_duration,time_elapsed
12,20,female,Belgian,1,1,guess,win,5,right,8,guess_start,1096,space,0,0,0,478902,178777
12,20,female,Belgian,1,1,guess,win,5,right,8,guess_choice,1129,f,0,0,0,477767,179912
12,20,female,Belgian,1,1,guess,win,5,right,8,guess_outcome,0,undefined,0,0,20,476209,181470
12,20,female,Belgian,1,1,ITC,win,5,right,8,ITC_start,1329,space,0,0,20,474878,182801
12,20,female,Belgian,1,1,ITC,win,5,right,8,ITC_choice,1230,j,0,0,20,473645,184034
12,20,female,Belgian,1,1,ITC,win,5,right,8,ITC_wait,0,undefined,0,0,20,468638,189041
12,20,female,Belgian,1,1,ITC,win,5,right,8,ITC_collect,635,k,0,0,20,468001,189678
12,20,female,Belgian,1,1,ITC,win,5,right,8,ITC_outcome,0,undefined,0,0,40,466994,190685
12,20,female,Belgian,1,2,guess,loss,10,right,8,guess_start,1466,space,0,0,40,465524,192155
12,20,female,Belgian,1,2,guess,loss,10,right,8,guess_choice,802,j,0,0,40,464717,192962
12,20,female,Belgian,1,2,guess,loss,10,right,8,guess_outcome,0,undefined,0,0,25,463161,194518
12,20,female,Belgian,1,2,ITC,loss,10,right,8,ITC_start,927,space,0,0,25,462232,195447
12,20,female,Belgian,1,2,ITC,loss,10,right,8,ITC_choice,1773,j,0,0,25,460457,197222
12,20,female,Belgian,1,2,ITC,loss,10,right,8,ITC_wait,0,undefined,0,0,25,450453,207226
12,20,female,Belgian,1,2,ITC,loss,10,right,8,ITC_collect,304,k,0,0,25,450146,207533
12,20,female,Belgian,1,2,ITC,loss,10,right,8,ITC_outcome,0,undefined,0,0,45,449142,208537
12,20,female,Belgian,1,3,guess,win,5,left,6,guess_start,739,space,0,0,45,448401,209278
12,20,female,Belgian,1,3,guess,win,5,left,6,guess_choice,532,f,0,0,45,447865,209814
12,20,female,Belgian,1,3,guess,win,5,left,6,guess_outcome,0,undefined,0,0,65,446306,211373
12,20,female,Belgian,1,3,ITC,win,5,left,6,ITC_start,757,space,0,0,65,445547,212132
12,20,female,Belgian,1,3,ITC,win,5,left,6,ITC_choice,791,f,0,0,65,444754,212925
12,20,female,Belgian,1,3,ITC,win,5,left,6,ITC_wait,0,undefined,0,0,65,439749,217930
12,20,female,Belgian,1,3,ITC,win,5,left,6,ITC_collect,506,k,0,0,65,439240,218439
12,20,female,Belgian,1,3,ITC,win,5,left,6,ITC_outcome,0,undefined,0,0,85,438234,219445
12,20,female,Belgian,1,4,guess,loss,5,right,12,guess_start,747,space,0,0,85,437484,220195
12,20,female,Belgian,1,4,guess,loss,5,right,12,guess_choice,573,j,0,0,85,436907,220772
12,20,female,Belgian,1,4,guess,loss,5,right,12,guess_outcome,0,undefined,0,0,70,435349,222330
12,20,female,Belgian,1,4,ITC,loss,5,right,12,ITC_start,1028,space,0,0,70,434319,223360
12,20,female,Belgian,1,4,ITC,loss,5,right,12,ITC_choice,743,j,0,0,70,433573,224106
12,20,female,Belgian,1,4,ITC,loss,5,right,12,ITC_wait,0,undefined,0,0,70,428567,229112
12,20,female,Belgian,1,4,ITC,loss,5,right,12,ITC_collect,316,k,0,0,70,428249,229430
12,20,female,Belgian,1,4,ITC,loss,5,right,12,ITC_outcome,0,undefined,0,0,90,427241,230438
12,20,female,Belgian,1,5,guess,neutral,10,left,8,guess_start,684,space,0,0,90,426554,231125
12,20,female,Belgian,1,5,guess,neutral,10,left,8,guess_choice,925,j,0,0,90,425626,232053
12,20,female,Belgian,1,5,guess,neutral,10,left,8,guess_outcome,0,undefined,0,0,90,424069,233610
12,20,female,Belgian,1,5,ITC,neutral,10,left,8,ITC_start,654,space,0,0,90,423412,234267
12,20,female,Belgian,1,5,ITC,neutral,10,left,8,ITC_choice,731,f,0,0,90,422680,234999
12,20,female,Belgian,1,5,ITC,neutral,10,left,8,ITC_wait,0,undefined,0,0,90,412672,245007
12,20,female,Belgian,1,5,ITC,neutral,10,left,8,ITC_collect,290,k,0,0,90,412379,245300
12,20,female,Belgian,1,5,ITC,neutral,10,left,8,ITC_outcome,0,undefined,0,0,110,411372,246307
12,20,female,Belgian,1,6,guess,loss,5,right,16,guess_start,603,space,0,0,110,410767,246912
12,20,female,Belgian,1,6,guess,loss,5,right,16,guess_choice,724,j,0,0,110,410038,247641
12,20,female,Belgian,1,6,guess,loss,5,right,16,guess_outcome,0,undefined,0,0,95,408479,249200
12,20,female,Belgian,1,6,ITC,loss,5,right,16,ITC_start,1115,space,0,0,95,407362,250317
12,20,female,Belgian,1,6,ITC,loss,5,right,16,ITC_choice,674,j,0,0,95,406686,250993
12,20,female,Belgian,1,6,ITC,loss,5,right,16,ITC_wait,0,undefined,0,0,95,401680,255999
12,20,female,Belgian,1,6,ITC,loss,5,right,16,ITC_collect,342,k,0,0,95,401336,256343
12,20,female,Belgian,1,6,ITC,loss,5,right,16,ITC_outcome,0,undefined,0,0,115,400332,257347
12,20,female,Belgian,1,7,guess,win,10,right,3,guess_start,594,space,0,0,115,399735,257944
12,20,female,Belgian,1,7,guess,win,10,right,3,guess_choice,592,f,0,0,115,399140,258539
12,20,female,Belgian,1,7,guess,win,10,right,3,guess_outcome,0,undefined,0,0,135,397580,260099
12,20,female,Belgian,1,7,ITC,win,10,right,3,ITC_start,685,space,0,0,135,396893,260786
12,20,female,Belgian,1,7,ITC,win,10,right,3,ITC_choice,1991,j,0,0,135,394899,262780
12,20,female,Belgian,1,7,ITC,win,10,right,3,ITC_wait,0,undefined,0,0,135,384893,272786
12,20,female,Belgian,1,7,ITC,win,10,right,3,ITC_collect,378,k,0,0,135,384513,273166
12,20,female,Belgian,1,7,ITC,win,10,right,3,ITC_outcome,0,undefined,0,0,155,383509,274170
12,20,female,Belgian,1,8,guess,loss,5,right,8,guess_start,665,space,0,0,155,382842,274837
12,20,female,Belgian,1,8,guess,loss,5,right,8,guess_choice,510,f,0,0,155,382326,275353
12,20,female,Belgian,1,8,guess,loss,5,right,8,guess_outcome,0,undefined,0,0,140,380771,276908
12,20,female,Belgian,1,8,ITC,loss,5,right,8,ITC_start,952,space,0,0,140,379817,277862
12,20,female,Belgian,1,8,ITC,loss,5,right,8,ITC_choice,797,f,0,0,140,379018,278661
12,20,female,Belgian,1,8,ITC,loss,5,right,8,ITC_wait,0,undefined,0,0,140,379015,278664
12,20,female,Belgian,1,8,ITC,loss,5,right,8,ITC_collect,768,k,0,0,140,378245,279434
12,20,female,Belgian,1,8,ITC,loss,5,right,8,ITC_outcome,0,undefined,0,0,148,377240,280439
12,20,female,Belgian,1,9,guess,win,10,right,1,guess_start,608,space,0,0,148,376630,281049
12,20,female,Belgian,1,9,guess,win,10,right,1,guess_choice,567,j,0,0,148,376058,281621
12,20,female,Belgian,1,9,guess,win,10,right,1,guess_outcome,0,undefined,0,0,168,374498,283181
12,20,female,Belgian,1,9,ITC,win,10,right,1,ITC_start,708,space,0,0,168,373788,283891
12,20,female,Belgian,1,9,ITC,win,10,right,1,ITC_choice,1015,j,0,0,168,372770,284909
12,20,female,Belgian,1,9,ITC,win,10,right,1,ITC_wait,0,undefined,0,0,168,362766,294913
12,20,female,Belgian,1,9,ITC,win,10,right,1,ITC_collect,380,k,0,0,168,362383,295296
12,20,female,Belgian,1,9,ITC,win,10,right,1,ITC_outcome,0,undefined,0,0,188,361376,296303
12,20,female,Belgian,1,10,guess,win,5,right,4,guess_start,700,space,0,0,188,360673,297006
12,20,female,Belgian,1,10,guess,win,5,right,4,guess_choice,720,j,0,0,188,359948,297731
12,20,female,Belgian,1,10,guess,win,5,right,4,guess_outcome,0,undefined,0,0,208,358390,299289
12,20,female,Belgian,1,10,ITC,win,5,right,4,ITC_start,714,space,0,0,208,357673,300006
12,20,female,Belgian,1,10,ITC,win,5,right,4,ITC_choice,867,j,0,0,208,356804,300875
12,20,female,Belgian,1,10,ITC,win,5,right,4,ITC_wait,0,undefined,0,0,208,351799,305880
12,20,female,Belgian,1,10,ITC,win,5,right,4,ITC_collect,368,k,0,0,208,351429,306250
12,20,female,Belgian,1,10,ITC,win,5,right,4,ITC_outcome,0,undefined,0,0,228,350422,307257
12,20,female,Belgian,1,11,guess,neutral,10,right,5,guess_start,585,space,0,0,228,349835,307844
12,20,female,Belgian,1,11,guess,neutral,10,right,5,guess_choice,600,f,0,0,228,349231,308448
12,20,female,Belgian,1,11,guess,neutral,10,right,5,guess_outcome,0,undefined,0,0,228,347673,310006
12,20,female,Belgian,1,11,ITC,neutral,10,right,5,ITC_start,545,space,0,0,228,347127,310552
12,20,female,Belgian,1,11,ITC,neutral,10,right,5,ITC_choice,790,f,0,0,228,346335,311344
12,20,female,Belgian,1,11,ITC,neutral,10,right,5,ITC_wait,0,undefined,0,0,228,346332,311347
12,20,female,Belgian,1,11,ITC,neutral,10,right,5,ITC_collect,954,k,0,0,228,345377,312302
12,20,female,Belgian,1,11,ITC,neutral,10,right,5,ITC_outcome,0,undefined,0,0,233,344369,313310
12,20,female,Belgian,1,12,guess,neutral,10,right,7,guess_start,915,space,0,0,233,343452,314227
12,20,female,Belgian,1,12,guess,neutral,10,right,7,guess_choice,575,j,0,0,233,342873,314806
12,20,female,Belgian,1,12,guess,neutral,10,right,7,guess_outcome,0,undefined,0,0,233,341315,316364
12,20,female,Belgian,1,12,ITC,neutral,10,right,7,ITC_start,615,space,0,0,233,340698,316981
12,20,female,Belgian,1,12,ITC,neutral,10,right,7,ITC_choice,1371,j,0,0,233,339325,318354
12,20,female,Belgian,1,12,ITC,neutral,10,right,7,ITC_wait,0,undefined,0,0,233,329319,328360
12,20,female,Belgian,1,12,ITC,neutral,10,right,7,ITC_collect,408,k,0,0,233,328908,328771
12,20,female,Belgian,1,12,ITC,neutral,10,right,7,ITC_outcome,0,undefined,0,0,253,327902,329777
12,20,female,Belgian,1,13,guess,loss,5,left,9,guess_start,760,space,0,0,253,327140,330539
12,20,female,Belgian,1,13,guess,loss,5,left,9,guess_choice,1056,f,0,0,253,326080,331599
12,20,female,Belgian,1,13,guess,loss,5,left,9,guess_outcome,0,undefined,0,0,238,324526,333153
12,20,female,Belgian,1,13,ITC,loss,5,left,9,ITC_start,777,space,0,0,238,323747,333932
12,20,female,Belgian,1,13,ITC,loss,5,left,9,ITC_choice,1599,f,0,0,238,322146,335533
12,20,female,Belgian,1,13,ITC,loss,5,left,9,ITC_wait,0,undefined,0,0,238,317140,340539
12,20,female,Belgian,1,13,ITC,loss,5,left,9,ITC_collect,538,k,0,0,238,316600,341079
12,20,female,Belgian,1,13,ITC,loss,5,left,9,ITC_outcome,0,undefined,0,0,258,315597,342082
12,20,female,Belgian,1,14,guess,loss,5,left,10,guess_start,573,space,0,0,258,315022,342657
12,20,female,Belgian,1,14,guess,loss,5,left,10,guess_choice,528,j,0,0,258,314490,343189
12,20,female,Belgian,1,14,guess,loss,5,left,10,guess_outcome,0,undefined,0,0,243,312933,344746
12,20,female,Belgian,1,14,ITC,loss,5,left,10,ITC_start,4328,space,0,0,243,308604,349075
12,20,female,Belgian,1,14,ITC,loss,5,left,10,ITC_choice,777,f,0,0,243,307825,349854
12,20,female,Belgian,1,14,ITC,loss,5,left,10,ITC_wait,0,undefined,0,0,243,302820,354859
12,20,female,Belgian,1,14,ITC,loss,5,left,10,ITC_collect,476,k,0,0,243,302341,355338
12,20,female,Belgian,1,14,ITC,loss,5,left,10,ITC_outcome,0,undefined,0,0,263,301335,356344
12,20,female,Belgian,1,15,guess,neutral,10,left,2,guess_start,616,space,0,0,263,300716,356963
12,20,female,Belgian,1,15,guess,neutral,10,left,2,guess_choice,608,j,0,0,263,300104,357575
12,20,female,Belgian,1,15,guess,neutral,10,left,2,guess_outcome,0,undefined,0,0,263,298547,359132
12,20,female,Belgian,1,15,ITC,neutral,10,left,2,ITC_start,474,space,0,0,263,298071,359608
12,20,female,Belgian,1,15,ITC,neutral,10,left,2,ITC_choice,724,f,0,0,263,297345,360334
12,20,female,Belgian,1,15,ITC,neutral,10,left,2,ITC_wait,0,undefined,0,0,263,287338,370341
12,20,female,Belgian,1,15,ITC,neutral,10,left,2,ITC_collect,407,k,0,0,263,286928,370751
12,20,female,Belgian,1,15,ITC,neutral,10,left,2,ITC_outcome,0,undefined,0,0,283,285922,371757
12,20,female,Belgian,1,16,guess,neutral,5,left,14,guess_start,1361,space,0,0,283,284559,373120
12,20,female,Belgian,1,16,guess,neutral,5,left,14,guess_choice,614,j,0,0,283,283941,373738
12,20,female,Belgian,1,16,guess,neutral,5,left,14,guess_outcome,0,undefined,0,0,283,282383,375296
12,20,female,Belgian,1,16,ITC,neutral,5,left,14,ITC_start,1154,space,0,0,283,281227,376452
12,20,female,Belgian,1,16,ITC,neutral,5,left,14,ITC_choice,678,f,0,0,283,280547,377132
12,20,female,Belgian,1,16,ITC,neutral,5,left,14,ITC_wait,0,undefined,0,0,283,275544,382135
12,20,female,Belgian,1,16,ITC,neutral,5,left,14,ITC_collect,1074,k,0,0,283,274468,383211
12,20,female,Belgian,1,16,ITC,neutral,5,left,14,ITC_outcome,0,undefined,0,0,303,273462,384217
12,20,female,Belgian,1,17,guess,win,5,right,13,guess_start,688,space,0,0,303,272772,384907
12,20,female,Belgian,1,17,guess,win,5,right,13,guess_choice,812,f,0,0,303,271956,385723
12,20,female,Belgian,1,17,guess,win,5,right,13,guess_outcome,0,undefined,0,0,323,270400,387279
12,20,female,Belgian,1,17,ITC,win,5,right,13,ITC_start,635,space,0,0,323,269763,387916
12,20,female,Belgian,1,17,ITC,win,5,right,13,ITC_choice,849,j,0,0,323,268912,388767
12,20,female,Belgian,1,17,ITC,win,5,right,13,ITC_wait,0,undefined,0,0,323,263906,393773
12,20,female,Belgian,1,17,ITC,win,5,right,13,ITC_collect,392,k,0,0,323,263512,394167
12,20,female,Belgian,1,17,ITC,win,5,right,13,ITC_outcome,0,undefined,0,0,343,262505,395174
12,20,female,Belgian,1,18,guess,neutral,10,left,1,guess_start,1224,space,0,0,343,261279,396400
12,20,female,Belgian,1,18,guess,neutral,10,left,1,guess_choice,644,f,0,0,343,260631,397048
12,20,female,Belgian,1,18,guess,neutral,10,left,1,guess_outcome,0,undefined,0,0,343,259075,398604
12,20,female,Belgian,1,18,ITC,neutral,10,left,1,ITC_start,1259,space,0,0,343,257814,399865
12,20,female,Belgian,1,18,ITC,neutral,10,left,1,ITC_choice,712,f,0,0,343,257100,400579
12,20,female,Belgian,1,18,ITC,neutral,10,left,1,ITC_wait,0,undefined,0,0,343,247095,410584
12,20,female,Belgian,1,18,ITC,neutral,10,left,1,ITC_collect,498,k,0,0,343,246594,411085
12,20,female,Belgian,1,18,ITC,neutral,10,left,1,ITC_outcome,0,undefined,0,0,363,245588,412091
12,20,female,Belgian,1,19,guess,neutral,5,left,11,guess_start,844,space,0,0,363,244743,412936
12,20,female,Belgian,1,19,guess,neutral,5,left,11,guess_choice,650,f,0,0,363,244089,413590
12,20,female,Belgian,1,19,guess,neutral,5,left,11,guess_outcome,0,undefined,0,0,363,242531,415148
12,20,female,Belgian,1,19,ITC,neutral,5,left,11,ITC_start,2810,space,0,0,363,239718,417961
12,20,female,Belgian,1,19,ITC,neutral,5,left,11,ITC_choice,696,f,0,0,363,239020,418659
12,20,female,Belgian,1,19,ITC,neutral,5,left,11,ITC_wait,0,undefined,0,0,363,234018,423661
12,20,female,Belgian,1,19,ITC,neutral,5,left,11,ITC_collect,570,k,0,0,363,233445,424234
12,20,female,Belgian,1,19,ITC,neutral,5,left,11,ITC_outcome,0,undefined,0,0,383,232440,425239
12,20,female,Belgian,1,20,guess,win,5,right,9,guess_start,585,space,0,0,383,231853,425826
12,20,female,Belgian,1,20,guess,win,5,right,9,guess_choice,767,f,0,0,383,231083,426596
12,20,female,Belgian,1,20,guess,win,5,right,9,guess_outcome,0,undefined,0,0,403,229527,428152
12,20,female,Belgian,1,20,ITC,win,5,right,9,ITC_start,767,space,0,0,403,228758,428921
12,20,female,Belgian,1,20,ITC,win,5,right,9,ITC_choice,627,j,0,0,403,228129,429550
12,20,female,Belgian,1,20,ITC,win,5,right,9,ITC_wait,0,undefined,0,0,403,223122,434557
12,20,female,Belgian,1,20,ITC,win,5,right,9,ITC_collect,530,k,0,0,403,222590,435089
12,20,female,Belgian,1,20,ITC,win,5,right,9,ITC_outcome,0,undefined,0,0,423,221586,436093
12,20,female,Belgian,1,21,guess,win,5,right,10,guess_start,604,space,0,0,423,220979,436700
12,20,female,Belgian,1,21,guess,win,5,right,10,guess_choice,706,f,0,0,423,220269,437410
12,20,female,Belgian,1,21,guess,win,5,right,10,guess_outcome,0,undefined,0,0,443,218711,438968
12,20,female,Belgian,1,21,ITC,win,5,right,10,ITC_start,604,space,0,0,443,218105,439574
12,20,female,Belgian,1,21,ITC,win,5,right,10,ITC_choice,1020,j,0,0,443,217082,440597
12,20,female,Belgian,1,21,ITC,win,5,right,10,ITC_wait,0,undefined,0,0,443,212076,445603
12,20,female,Belgian,1,21,ITC,win,5,right,10,ITC_collect,436,k,0,0,443,211638,446041
12,20,female,Belgian,1,21,ITC,win,5,right,10,ITC_outcome,0,undefined,0,0,463,210632,447047
12,20,female,Belgian,1,22,guess,neutral,5,left,4,guess_start,449,space,0,0,463,210181,447498
12,20,female,Belgian,1,22,guess,neutral,5,left,4,guess_choice,586,f,0,0,463,209590,448089
12,20,female,Belgian,1,22,guess,neutral,5,left,4,guess_outcome,0,undefined,0,0,463,208031,449648
12,20,female,Belgian,1,22,ITC,neutral,5,left,4,ITC_start,793,space,0,0,463,207235,450444
12,20,female,Belgian,1,22,ITC,neutral,5,left,4,ITC_choice,1316,f,0,0,463,205917,451762
12,20,female,Belgian,1,22,ITC,neutral,5,left,4,ITC_wait,0,undefined,0,0,463,200915,456764
12,20,female,Belgian,1,22,ITC,neutral,5,left,4,ITC_collect,481,k,0,0,463,200431,457248
12,20,female,Belgian,1,22,ITC,neutral,5,left,4,ITC_outcome,0,undefined,0,0,483,199427,458252
12,20,female,Belgian,1,23,guess,neutral,5,right,10,guess_start,479,space,0,0,483,198946,458733
12,20,female,Belgian,1,23,guess,neutral,5,right,10,guess_choice,578,j,0,0,483,198364,459315
12,20,female,Belgian,1,23,guess,neutral,5,right,10,guess_outcome,0,undefined,0,0,483,196809,460870
12,20,female,Belgian,1,23,ITC,neutral,5,right,10,ITC_start,1029,space,0,0,483,195778,461901
12,20,female,Belgian,1,23,ITC,neutral,5,right,10,ITC_choice,687,j,0,0,483,195089,462590
12,20,female,Belgian,1,23,ITC,neutral,5,right,10,ITC_wait,0,undefined,0,0,483,190084,467595
12,20,female,Belgian,1,23,ITC,neutral,5,right,10,ITC_collect,422,k,0,0,483,189659,468020
12,20,female,Belgian,1,23,ITC,neutral,5,right,10,ITC_outcome,0,undefined,0,0,503,188656,469023
12,20,female,Belgian,1,24,guess,win,10,right,5,guess_start,598,space,0,0,503,188054,469625
12,20,female,Belgian,1,24,guess,win,10,right,5,guess_choice,663,f,0,0,503,187387,470292
12,20,female,Belgian,1,24,guess,win,10,right,5,guess_outcome,0,undefined,0,0,523,185829,471850
12,20,female,Belgian,1,24,ITC,win,10,right,5,ITC_start,833,space,0,0,523,184995,472684
12,20,female,Belgian,1,24,ITC,win,10,right,5,ITC_choice,766,j,0,0,523,184226,473453
12,20,female,Belgian,1,24,ITC,win,10,right,5,ITC_wait,0,undefined,0,0,523,174223,483456
12,20,female,Belgian,1,24,ITC,win,10,right,5,ITC_collect,449,k,0,0,523,173772,483907
12,20,female,Belgian,1,24,ITC,win,10,right,5,ITC_outcome,0,undefined,0,0,543,172764,484915
12,20,female,Belgian,1,25,guess,win,5,right,7,guess_start,462,space,0,0,543,172300,485379
12,20,female,Belgian,1,25,guess,win,5,right,7,guess_choice,665,f,0,0,543,171630,486049
12,20,female,Belgian,1,25,guess,win,5,right,7,guess_outcome,0,undefined,0,0,563,170074,487605
12,20,female,Belgian,1,25,ITC,win,5,right,7,ITC_start,1112,space,0,0,563,168960,488719
12,20,female,Belgian,1,25,ITC,win,5,right,7,ITC_choice,686,j,0,0,563,168272,489407
12,20,female,Belgian,1,25,ITC,win,5,right,7,ITC_wait,0,undefined,0,0,563,163266,494413
12,20,female,Belgian,1,25,ITC,win,5,right,7,ITC_collect,392,k,0,0,563,162871,494808
12,20,female,Belgian,1,25,ITC,win,5,right,7,ITC_outcome,0,undefined,0,0,583,161865,495814
12,20,female,Belgian,1,26,guess,win,10,left,2,guess_start,518,space,0,0,583,161344,496335
12,20,female,Belgian,1,26,guess,win,10,left,2,guess_choice,565,f,0,0,583,160776,496903
12,20,female,Belgian,1,26,guess,win,10,left,2,guess_outcome,0,undefined,0,0,603,159221,498458
12,20,female,Belgian,1,26,ITC,win,10,left,2,ITC_start,673,space,0,0,603,158547,499132
12,20,female,Belgian,1,26,ITC,win,10,left,2,ITC_choice,601,f,0,0,603,157944,499735
12,20,female,Belgian,1,26,ITC,win,10,left,2,ITC_wait,0,undefined,0,0,603,147937,509742
12,20,female,Belgian,1,26,ITC,win,10,left,2,ITC_collect,523,k,0,0,603,147412,510267
12,20,female,Belgian,1,26,ITC,win,10,left,2,ITC_outcome,0,undefined,0,0,623,146409,511270
12,20,female,Belgian,1,27,guess,win,5,right,15,guess_start,650,space,0,0,623,145757,511922
12,20,female,Belgian,1,27,guess,win,5,right,15,guess_choice,640,f,0,0,623,145112,512567
12,20,female,Belgian,1,27,guess,win,5,right,15,guess_outcome,0,undefined,0,0,643,143557,514122
12,20,female,Belgian,1,27,ITC,win,5,right,15,ITC_start,693,space,0,0,643,142862,514817
12,20,female,Belgian,1,27,ITC,win,5,right,15,ITC_choice,975,j,0,0,643,141885,515794
12,20,female,Belgian,1,27,ITC,win,5,right,15,ITC_wait,0,undefined,0,0,643,136880,520799
12,20,female,Belgian,1,27,ITC,win,5,right,15,ITC_collect,706,k,0,0,643,136172,521507
12,20,female,Belgian,1,27,ITC,win,5,right,15,ITC_outcome,0,undefined,0,0,663,135165,522514
12,20,female,Belgian,1,28,guess,win,5,left,3,guess_start,512,space,0,0,663,134650,523029
12,20,female,Belgian,1,28,guess,win,5,left,3,guess_choice,616,f,0,0,663,134030,523649
12,20,female,Belgian,1,28,guess,win,5,left,3,guess_outcome,0,undefined,0,0,683,132474,525205
12,20,female,Belgian,1,28,ITC,win,5,left,3,ITC_start,1173,space,0,0,683,131299,526380
12,20,female,Belgian,1,28,ITC,win,5,left,3,ITC_choice,1252,f,0,0,683,130045,527634
12,20,female,Belgian,1,28,ITC,win,5,left,3,ITC_wait,0,undefined,0,0,683,125043,532636
12,20,female,Belgian,1,28,ITC,win,5,left,3,ITC_collect,742,k,0,0,683,124299,533380
12,20,female,Belgian,1,28,ITC,win,5,left,3,ITC_outcome,0,undefined,0,0,703,123295,534384
12,20,female,Belgian,1,29,guess,win,10,left,7,guess_start,491,space,0,0,703,122802,534877
12,20,female,Belgian,1,29,guess,win,10,left,7,guess_choice,589,f,0,0,703,122209,535470
12,20,female,Belgian,1,29,guess,win,10,left,7,guess_outcome,0,undefined,0,0,723,120651,537028
12,20,female,Belgian,1,29,ITC,win,10,left,7,ITC_start,870,space,0,0,723,119780,537899
12,20,female,Belgian,1,29,ITC,win,10,left,7,ITC_choice,894,f,0,0,723,118883,538796
12,20,female,Belgian,1,29,ITC,win,10,left,7,ITC_wait,0,undefined,0,0,723,108878,548801
12,20,female,Belgian,1,29,ITC,win,10,left,7,ITC_collect,535,k,0,0,723,108340,549339
12,20,female,Belgian,1,29,ITC,win,10,left,7,ITC_outcome,0,undefined,0,0,743,107334,550345
12,20,female,Belgian,1,30,guess,neutral,10,right,3,guess_start,633,space,0,0,743,106698,550981
12,20,female,Belgian,1,30,guess,neutral,10,right,3,guess_choice,593,f,0,0,743,106101,551578
12,20,female,Belgian,1,30,guess,neutral,10,right,3,guess_outcome,0,undefined,0,0,743,104543,553136
12,20,female,Belgian,1,30,ITC,neutral,10,right,3,ITC_start,833,space,0,0,743,103708,553971
12,20,female,Belgian,1,30,ITC,neutral,10,right,3,ITC_choice,818,j,0,0,743,102888,554791
12,20,female,Belgian,1,30,ITC,neutral,10,right,3,ITC_wait,0,undefined,0,0,743,92881,564798
12,20,female,Belgian,1,30,ITC,neutral,10,right,3,ITC_collect,449,k,0,0,743,92430,565249
12,20,female,Belgian,1,30,ITC,neutral,10,right,3,ITC_outcome,0,undefined,0,0,763,91423,566256
12,20,female,Belgian,1,31,guess,neutral,5,left,8,guess_start,534,space,0,0,763,90886,566793
12,20,female,Belgian,1,31,guess,neutral,5,left,8,guess_choice,577,j,0,0,763,90305,567374
12,20,female,Belgian,1,31,guess,neutral,5,left,8,guess_outcome,0,undefined,0,0,763,88748,568931
12,20,female,Belgian,1,31,ITC,neutral,5,left,8,ITC_start,618,space,0,0,763,88128,569551
12,20,female,Belgian,1,31,ITC,neutral,5,left,8,ITC_choice,1268,f,0,0,763,86858,570821
12,20,female,Belgian,1,31,ITC,neutral,5,left,8,ITC_wait,0,undefined,0,0,763,81853,575826
12,20,female,Belgian,1,31,ITC,neutral,5,left,8,ITC_collect,633,k,0,0,763,81218,576461
12,20,female,Belgian,1,31,ITC,neutral,5,left,8,ITC_outcome,0,undefined,0,0,783,80213,577466
12,20,female,Belgian,1,32,guess,win,10,left,4,guess_start,823,space,0,0,783,79387,578292
12,20,female,Belgian,1,32,guess,win,10,left,4,guess_choice,687,f,0,0,783,78695,578984
12,20,female,Belgian,1,32,guess,win,10,left,4,guess_outcome,0,undefined,0,0,803,77141,580538
12,20,female,Belgian,1,32,ITC,win,10,left,4,ITC_start,709,space,0,0,803,76430,581249
12,20,female,Belgian,1,32,ITC,win,10,left,4,ITC_choice,616,f,0,0,803,75813,581866
12,20,female,Belgian,1,32,ITC,win,10,left,4,ITC_wait,0,undefined,0,0,803,65804,591875
12,20,female,Belgian,1,32,ITC,win,10,left,4,ITC_collect,662,k,0,0,803,65140,592539
12,20,female,Belgian,1,32,ITC,win,10,left,4,ITC_outcome,0,undefined,0,0,823,64135,593544
12,20,female,Belgian,1,33,guess,win,5,right,14,guess_start,1039,space,0,0,823,63093,594586
12,20,female,Belgian,1,33,guess,win,5,right,14,guess_choice,685,f,0,0,823,62404,595275
12,20,female,Belgian,1,33,guess,win,5,right,14,guess_outcome,0,undefined,0,0,843,60846,596833
12,20,female,Belgian,1,33,ITC,win,5,right,14,ITC_start,701,space,0,0,843,60142,597537
12,20,female,Belgian,1,33,ITC,win,5,right,14,ITC_choice,1111,j,0,0,843,59030,598649
12,20,female,Belgian,1,33,ITC,win,5,right,14,ITC_wait,0,undefined,0,0,843,54026,603653
12,20,female,Belgian,1,33,ITC,win,5,right,14,ITC_collect,504,k,0,0,843,53520,604159
12,20,female,Belgian,1,33,ITC,win,5,right,14,ITC_outcome,0,undefined,0,0,863,52513,605166
12,20,female,Belgian,1,34,guess,neutral,5,right,16,guess_start,526,space,0,0,863,51985,605694
12,20,female,Belgian,1,34,guess,neutral,5,right,16,guess_choice,683,j,0,0,863,51298,606381
12,20,female,Belgian,1,34,guess,neutral,5,right,16,guess_outcome,0,undefined,0,0,863,49740,607939
12,20,female,Belgian,1,34,ITC,neutral,5,right,16,ITC_start,815,space,0,0,863,48923,608756
12,20,female,Belgian,1,34,ITC,neutral,5,right,16,ITC_choice,1441,f,0,0,863,47480,610199
12,20,female,Belgian,1,34,ITC,neutral,5,right,16,ITC_wait,0,undefined,0,0,863,47477,610202
12,20,female,Belgian,1,34,ITC,neutral,5,right,16,ITC_collect,1250,k,0,0,863,46225,611454
12,20,female,Belgian,1,34,ITC,neutral,5,right,16,ITC_outcome,0,undefined,0,0,879,45222,612457
12,20,female,Belgian,1,35,guess,loss,10,right,5,guess_start,523,space,0,0,879,44696,612983
12,20,female,Belgian,1,35,guess,loss,10,right,5,guess_choice,677,j,0,0,879,44015,613664
12,20,female,Belgian,1,35,guess,loss,10,right,5,guess_outcome,0,undefined,0,0,864,42457,615222
12,20,female,Belgian,1,35,ITC,loss,10,right,5,ITC_start,974,space,0,0,864,41481,616198
12,20,female,Belgian,1,35,ITC,loss,10,right,5,ITC_choice,1053,j,0,0,864,40425,617254
12,20,female,Belgian,1,35,ITC,loss,10,right,5,ITC_outcome,0,undefined,0,0,884,28926,628753
12,20,female,Belgian,1,36,guess,win,5,left,1,guess_start,584,space,0,0,884,28339,629340
12,20,female,Belgian,1,35,ITC,loss,10,right,5,ITC_wait,0,undefined,0,0,864,30418,627261
12,20,female,Belgian,1,36,guess,win,5,left,1,guess_outcome,0,undefined,0,0,904,26207,631472
12,20,female,Belgian,1,35,ITC,loss,10,right,5,ITC_collect,483,k,0,0,864,29933,627746
12,20,female,Belgian,1,36,guess,win,5,left,1,guess_choice,572,f,0,0,884,27763,629916
12,20,female,Belgian,1,36,ITC,win,5,left,1,ITC_start,643,space,0,0,904,25562,632117
12,20,female,Belgian,1,36,ITC,win,5,left,1,ITC_choice,926,f,0,0,904,24635,633044
12,20,female,Belgian,1,36,ITC,win,5,left,1,ITC_wait,0,undefined,0,0,904,19633,638046
12,20,female,Belgian,1,36,ITC,win,5,left,1,ITC_collect,391,k,0,0,904,19239,638440
12,20,female,Belgian,1,36,ITC,win,5,left,1,ITC_outcome,0,undefined,0,0,924,18236,639443
12,20,female,Belgian,1,37,guess,loss,5,left,11,guess_start,471,space,0,0,924,17763,639916
12,20,female,Belgian,1,37,guess,loss,5,left,11,guess_choice,573,f,0,0,924,17186,640493
12,20,female,Belgian,1,37,guess,loss,5,left,11,guess_outcome,0,undefined,0,0,909,15626,642053
12,20,female,Belgian,1,37,ITC,loss,5,left,11,ITC_start,894,space,0,0,909,14731,642948
12,20,female,Belgian,1,37,ITC,loss,5,left,11,ITC_choice,972,f,0,0,909,13757,643922
12,20,female,Belgian,1,37,ITC,loss,5,left,11,ITC_wait,0,undefined,0,0,909,8751,648928
12,20,female,Belgian,1,37,ITC,loss,5,left,11,ITC_collect,380,k,0,0,909,8370,649309
12,20,female,Belgian,1,37,ITC,loss,5,left,11,ITC_outcome,0,undefined,0,0,929,7362,650317
12,20,female,Belgian,1,38,guess,loss,10,right,1,guess_start,608,space,0,0,929,6751,650928
12,20,female,Belgian,1,38,guess,loss,10,right,1,guess_choice,429,f,0,0,929,6318,651361
12,20,female,Belgian,1,38,guess,loss,10,right,1,guess_outcome,0,undefined,0,0,914,4763,652916
12,20,female,Belgian,1,38,ITC,loss,10,right,1,ITC_start,738,space,0,0,914,4023,653656
12,20,female,Belgian,1,38,ITC,loss,10,right,1,ITC_choice,1021,j,0,0,914,3000,654679
12,20,female,Belgian,1,38,ITC,loss,10,right,1,ITC_wait,0,undefined,0,0,914,-7,657686
12,20,female,Belgian,2,39,guess,loss,10,right,4,guess_start,884,space,0,0,0,479115,851456
12,20,female,Belgian,2,39,guess,loss,10,right,4,guess_choice,669,f,0,0,0,478442,852129
12,20,female,Belgian,2,39,guess,loss,10,right,4,guess_outcome,0,undefined,0,0,-15,476887,853684
12,20,female,Belgian,2,39,ITC,loss,10,right,4,ITC_start,661,space,0,0,-15,476224,854347
12,20,female,Belgian,2,39,ITC,loss,10,right,4,ITC_choice,622,j,0,0,-15,475601,854970
12,20,female,Belgian,2,39,ITC,loss,10,right,4,ITC_wait,0,undefined,0,0,-15,465598,864973
12,20,female,Belgian,2,39,ITC,loss,10,right,4,ITC_collect,294,k,0,0,-15,465301,865270
12,20,female,Belgian,2,39,ITC,loss,10,right,4,ITC_outcome,0,undefined,0,0,5,464294,866277
12,20,female,Belgian,2,40,guess,neutral,10,right,6,guess_start,582,space,0,0,5,463709,866862
12,20,female,Belgian,2,40,guess,neutral,10,right,6,guess_choice,625,f,0,0,5,463081,867490
12,20,female,Belgian,2,40,guess,neutral,10,right,6,guess_outcome,0,undefined,0,0,5,461522,869049
12,20,female,Belgian,2,40,ITC,neutral,10,right,6,ITC_start,570,space,0,0,5,460950,869621
12,20,female,Belgian,2,40,ITC,neutral,10,right,6,ITC_choice,889,j,0,0,5,460058,870513
12,20,female,Belgian,2,40,ITC,neutral,10,right,6,ITC_wait,0,undefined,0,0,5,450053,880518
12,20,female,Belgian,2,40,ITC,neutral,10,right,6,ITC_collect,437,k,0,0,5,449613,880958
12,20,female,Belgian,2,40,ITC,neutral,10,right,6,ITC_outcome,0,undefined,0,0,25,448606,881965
12,20,female,Belgian,2,41,guess,neutral,5,left,5,guess_start,667,space,0,0,25,447937,882634
12,20,female,Belgian,2,41,guess,neutral,5,left,5,guess_choice,493,f,0,0,25,447440,883131
12,20,female,Belgian,2,41,guess,neutral,5,left,5,guess_outcome,0,undefined,0,0,25,445882,884689
12,20,female,Belgian,2,41,ITC,neutral,5,left,5,ITC_start,673,space,0,0,25,445207,885364
12,20,female,Belgian,2,41,ITC,neutral,5,left,5,ITC_choice,501,f,0,0,25,444704,885867
12,20,female,Belgian,2,41,ITC,neutral,5,left,5,ITC_wait,0,undefined,0,0,25,439701,890870
12,20,female,Belgian,2,41,ITC,neutral,5,left,5,ITC_collect,424,k,0,0,25,439275,891296
12,20,female,Belgian,2,41,ITC,neutral,5,left,5,ITC_outcome,0,undefined,0,0,45,438269,892302
12,20,female,Belgian,2,42,guess,win,5,right,12,guess_start,557,space,0,0,45,437710,892861
12,20,female,Belgian,2,42,guess,win,5,right,12,guess_choice,622,f,0,0,45,437084,893487
12,20,female,Belgian,2,42,guess,win,5,right,12,guess_outcome,0,undefined,0,0,65,435526,895045
12,20,female,Belgian,2,42,ITC,win,5,right,12,ITC_start,534,space,0,0,65,434990,895581
12,20,female,Belgian,2,42,ITC,win,5,right,12,ITC_choice,868,f,0,0,65,434121,896450
12,20,female,Belgian,2,42,ITC,win,5,right,12,ITC_wait,0,undefined,0,0,65,434118,896453
12,20,female,Belgian,2,42,ITC,win,5,right,12,ITC_collect,901,k,0,0,65,433215,897356
12,20,female,Belgian,2,42,ITC,win,5,right,12,ITC_outcome,0,undefined,0,0,77,432208,898363
12,20,female,Belgian,2,43,guess,loss,5,left,4,guess_start,531,space,0,0,77,431675,898896
12,20,female,Belgian,2,43,guess,loss,5,left,4,guess_choice,545,f,0,0,77,431126,899445
12,20,female,Belgian,2,43,guess,loss,5,left,4,guess_outcome,0,undefined,0,0,62,429571,901000
12,20,female,Belgian,2,43,ITC,loss,5,left,4,ITC_start,414,space,0,0,62,429155,901416
12,20,female,Belgian,2,43,ITC,loss,5,left,4,ITC_choice,711,f,0,0,62,428442,902129
12,20,female,Belgian,2,43,ITC,loss,5,left,4,ITC_wait,0,undefined,0,0,62,423435,907136
12,20,female,Belgian,2,43,ITC,loss,5,left,4,ITC_collect,748,k,0,0,62,422684,907887
12,20,female,Belgian,2,43,ITC,loss,5,left,4,ITC_outcome,0,undefined,0,0,82,421677,908894
12,20,female,Belgian,2,44,guess,win,5,right,2,guess_start,597,space,0,0,82,421077,909494
12,20,female,Belgian,2,44,guess,win,5,right,2,guess_choice,603,f,0,0,82,420470,910101
12,20,female,Belgian,2,44,guess,win,5,right,2,guess_outcome,0,undefined,0,0,102,418914,911657
12,20,female,Belgian,2,44,ITC,win,5,right,2,ITC_start,550,space,0,0,102,418362,912209
12,20,female,Belgian,2,44,ITC,win,5,right,2,ITC_choice,1061,j,0,0,102,417298,913273
12,20,female,Belgian,2,44,ITC,win,5,right,2,ITC_wait,0,undefined,0,0,102,412292,918279
12,20,female,Belgian,2,44,ITC,win,5,right,2,ITC_collect,532,k,0,0,102,411757,918814
12,20,female,Belgian,2,44,ITC,win,5,right,2,ITC_outcome,0,undefined,0,0,122,410750,919821
12,20,female,Belgian,2,45,guess,loss,5,right,1,guess_start,433,space,0,0,122,410315,920256
12,20,female,Belgian,2,45,guess,loss,5,right,1,guess_choice,514,f,0,0,122,409797,920774
12,20,female,Belgian,2,45,guess,loss,5,right,1,guess_outcome,0,undefined,0,0,107,408243,922328
12,20,female,Belgian,2,45,ITC,loss,5,right,1,ITC_start,482,space,0,0,107,407759,922812
12,20,female,Belgian,2,45,ITC,loss,5,right,1,ITC_choice,840,j,0,0,107,406917,923654
12,20,female,Belgian,2,45,ITC,loss,5,right,1,ITC_wait,0,undefined,0,0,107,401914,928657
12,20,female,Belgian,2,45,ITC,loss,5,right,1,ITC_collect,455,k,0,0,107,401457,929114
12,20,female,Belgian,2,45,ITC,loss,5,right,1,ITC_outcome,0,undefined,0,0,127,400452,930119
12,20,female,Belgian,2,46,guess,loss,5,left,7,guess_start,429,space,0,0,127,400021,930550
12,20,female,Belgian,2,46,guess,loss,5,left,7,guess_choice,516,f,0,0,127,399501,931070
12,20,female,Belgian,2,46,guess,loss,5,left,7,guess_outcome,0,undefined,0,0,112,397946,932625
12,20,female,Belgian,2,46,ITC,loss,5,left,7,ITC_start,542,space,0,0,112,397402,933169
12,20,female,Belgian,2,46,ITC,loss,5,left,7,ITC_choice,766,f,0,0,112,396635,933936
12,20,female,Belgian,2,46,ITC,loss,5,left,7,ITC_wait,0,undefined,0,0,112,391632,938939
12,20,female,Belgian,2,46,ITC,loss,5,left,7,ITC_collect,400,k,0,0,112,391228,939343
12,20,female,Belgian,2,46,ITC,loss,5,left,7,ITC_outcome,0,undefined,0,0,132,390224,940347
12,20,female,Belgian,2,47,guess,neutral,5,right,15,guess_start,439,space,0,0,132,389783,940788
12,20,female,Belgian,2,47,guess,neutral,5,right,15,guess_choice,567,j,0,0,132,389212,941359
12,20,female,Belgian,2,47,guess,neutral,5,right,15,guess_outcome,0,undefined,0,0,132,387656,942915
12,20,female,Belgian,2,47,ITC,neutral,5,right,15,ITC_start,1360,space,0,0,132,386294,944277
12,20,female,Belgian,2,47,ITC,neutral,5,right,15,ITC_choice,997,f,0,0,132,385294,945277
12,20,female,Belgian,2,47,ITC,neutral,5,right,15,ITC_wait,0,undefined,0,0,132,385291,945280
12,20,female,Belgian,2,47,ITC,neutral,5,right,15,ITC_collect,680,k,0,0,132,384609,945962
12,20,female,Belgian,2,47,ITC,neutral,5,right,15,ITC_outcome,0,undefined,0,0,147,383603,946968
12,20,female,Belgian,2,48,guess,neutral,10,right,4,guess_start,27,space,0,0,147,383576,946995
12,20,female,Belgian,2,48,guess,neutral,10,right,4,guess_choice,731,j,0,0,147,382842,947729
12,20,female,Belgian,2,48,guess,neutral,10,right,4,guess_outcome,0,undefined,0,0,147,381286,949285
12,20,female,Belgian,2,48,ITC,neutral,10,right,4,ITC_start,409,space,0,0,147,380875,949696
12,20,female,Belgian,2,48,ITC,neutral,10,right,4,ITC_choice,804,j,0,0,147,380069,950502
12,20,female,Belgian,2,48,ITC,neutral,10,right,4,ITC_wait,0,undefined,0,0,147,370062,960509
12,20,female,Belgian,2,48,ITC,neutral,10,right,4,ITC_collect,454,k,0,0,147,369605,960966
12,20,female,Belgian,2,48,ITC,neutral,10,right,4,ITC_outcome,0,undefined,0,0,167,368599,961972
12,20,female,Belgian,2,49,guess,win,10,left,6,guess_start,572,space,0,0,167,368024,962547
12,20,female,Belgian,2,49,guess,win,10,left,6,guess_choice,610,f,0,0,167,367410,963161
12,20,female,Belgian,2,49,guess,win,10,left,6,guess_outcome,0,undefined,0,0,187,365853,964718
12,20,female,Belgian,2,49,ITC,win,10,left,6,ITC_start,1656,space,0,0,187,364195,966376
12,20,female,Belgian,2,49,ITC,win,10,left,6,ITC_choice,626,f,0,0,187,363566,967005
12,20,female,Belgian,2,49,ITC,win,10,left,6,ITC_wait,0,undefined,0,0,187,353562,977009
12,20,female,Belgian,2,49,ITC,win,10,left,6,ITC_collect,507,k,0,0,187,353052,977519
12,20,female,Belgian,2,49,ITC,win,10,left,6,ITC_outcome,0,undefined,0,0,207,352047,978524
12,20,female,Belgian,2,50,guess,neutral,5,left,9,guess_start,511,space,0,0,207,351533,979038
12,20,female,Belgian,2,50,guess,neutral,5,left,9,guess_choice,528,f,0,0,207,351002,979569
12,20,female,Belgian,2,50,guess,neutral,5,left,9,guess_outcome,0,undefined,0,0,207,349445,981126
12,20,female,Belgian,2,50,ITC,neutral,5,left,9,ITC_start,537,space,0,0,207,348906,981665
12,20,female,Belgian,2,50,ITC,neutral,5,left,9,ITC_wait,0,undefined,0,0,207,348026,982545
12,20,female,Belgian,2,50,ITC,neutral,5,left,9,ITC_choice,875,j,0,0,207,348029,982542
12,20,female,Belgian,2,50,ITC,neutral,5,left,9,ITC_collect,1033,k,0,0,207,346991,983580
12,20,female,Belgian,2,50,ITC,neutral,5,left,9,ITC_outcome,0,undefined,0,0,216,345988,984583
12,20,female,Belgian,2,51,guess,loss,5,right,6,guess_start,433,space,0,0,216,345552,985019
12,20,female,Belgian,2,51,guess,loss,5,right,6,guess_choice,565,f,0,0,216,344982,985589
12,20,female,Belgian,2,51,guess,loss,5,right,6,guess_outcome,0,undefined,0,0,201,343428,987143
12,20,female,Belgian,2,51,ITC,loss,5,right,6,ITC_start,383,space,0,0,201,343043,987528
12,20,female,Belgian,2,51,ITC,loss,5,right,6,ITC_choice,717,j,0,0,201,342324,988247
12,20,female,Belgian,2,51,ITC,loss,5,right,6,ITC_wait,0,undefined,0,0,201,337317,993254
12,20,female,Belgian,2,51,ITC,loss,5,right,6,ITC_collect,339,k,0,0,201,336976,993595
12,20,female,Belgian,2,51,ITC,loss,5,right,6,ITC_outcome,0,undefined,0,0,221,335972,994599
12,20,female,Belgian,2,52,guess,loss,10,left,7,guess_start,505,space,0,0,221,335464,995107
12,20,female,Belgian,2,52,guess,loss,10,left,7,guess_choice,631,f,0,0,221,334829,995742
12,20,female,Belgian,2,52,guess,loss,10,left,7,guess_outcome,0,undefined,0,0,206,333273,997298
12,20,female,Belgian,2,52,ITC,loss,10,left,7,ITC_start,489,space,0,0,206,332783,997788
12,20,female,Belgian,2,52,ITC,loss,10,left,7,ITC_choice,738,f,0,0,206,332043,998528
12,20,female,Belgian,2,52,ITC,loss,10,left,7,ITC_wait,0,undefined,0,0,206,322038,1008533
12,20,female,Belgian,2,52,ITC,loss,10,left,7,ITC_collect,426,k,0,0,206,321609,1008962
12,20,female,Belgian,2,52,ITC,loss,10,left,7,ITC_outcome,0,undefined,0,0,226,320604,1009967
12,20,female,Belgian,2,53,guess,loss,5,right,14,guess_start,425,space,0,0,226,320176,1010395
12,20,female,Belgian,2,53,guess,loss,5,right,14,guess_choice,632,j,0,0,226,319540,1011031
12,20,female,Belgian,2,53,guess,loss,5,right,14,guess_outcome,0,undefined,0,0,211,317981,1012590
12,20,female,Belgian,2,53,ITC,loss,5,right,14,ITC_start,561,space,0,0,211,317419,1013152
12,20,female,Belgian,2,53,ITC,loss,5,right,14,ITC_choice,883,f,0,0,211,316534,1014037
12,20,female,Belgian,2,53,ITC,loss,5,right,14,ITC_wait,0,undefined,0,0,211,316531,1014040
12,20,female,Belgian,2,53,ITC,loss,5,right,14,ITC_collect,613,k,0,0,211,315916,1014655
12,20,female,Belgian,2,53,ITC,loss,5,right,14,ITC_outcome,0,undefined,0,0,225,314910,1015661
12,20,female,Belgian,2,54,guess,win,10,right,8,guess_start,405,space,0,0,225,314502,1016069
12,20,female,Belgian,2,54,guess,win,10,right,8,guess_choice,606,j,0,0,225,313891,1016680
12,20,female,Belgian,2,54,guess,win,10,right,8,guess_outcome,0,undefined,0,0,245,312333,1018238
12,20,female,Belgian,2,54,ITC,win,10,right,8,ITC_start,519,space,0,0,245,311812,1018759
12,20,female,Belgian,2,54,ITC,win,10,right,8,ITC_choice,884,j,0,0,245,310926,1019645
12,20,female,Belgian,2,54,ITC,win,10,right,8,ITC_wait,0,undefined,0,0,245,300919,1029652
12,20,female,Belgian,2,54,ITC,win,10,right,8,ITC_collect,379,k,0,0,245,300538,1030033
12,20,female,Belgian,2,54,ITC,win,10,right,8,ITC_outcome,0,undefined,0,0,265,299529,1031042
12,20,female,Belgian,2,55,guess,loss,10,right,3,guess_start,337,space,0,0,265,299190,1031381
12,20,female,Belgian,2,55,guess,loss,10,right,3,guess_choice,688,j,0,0,265,298498,1032073
12,20,female,Belgian,2,55,guess,loss,10,right,3,guess_outcome,0,undefined,0,0,250,296941,1033630
12,20,female,Belgian,2,55,ITC,loss,10,right,3,ITC_start,654,space,0,0,250,296285,1034286
12,20,female,Belgian,2,55,ITC,loss,10,right,3,ITC_choice,915,j,0,0,250,295368,1035203
12,20,female,Belgian,2,55,ITC,loss,10,right,3,ITC_wait,0,undefined,0,0,250,285361,1045210
12,20,female,Belgian,2,55,ITC,loss,10,right,3,ITC_collect,321,k,0,0,250,285038,1045533
12,20,female,Belgian,2,55,ITC,loss,10,right,3,ITC_outcome,0,undefined,0,0,270,284030,1046541
12,20,female,Belgian,2,56,guess,loss,5,right,13,guess_start,370,space,0,0,270,283658,1046913
12,20,female,Belgian,2,56,guess,loss,5,right,13,guess_choice,562,j,0,0,270,283091,1047480
12,20,female,Belgian,2,56,guess,loss,5,right,13,guess_outcome,0,undefined,0,0,255,281537,1049034
12,20,female,Belgian,2,56,ITC,loss,5,right,13,ITC_start,977,space,0,0,255,280557,1050014
12,20,female,Belgian,2,56,ITC,loss,5,right,13,ITC_choice,1057,f,0,0,255,279498,1051073
12,20,female,Belgian,2,56,ITC,loss,5,right,13,ITC_wait,0,undefined,0,0,255,279495,1051076
12,20,female,Belgian,2,56,ITC,loss,5,right,13,ITC_collect,597,k,0,0,255,278895,1051676
12,20,female,Belgian,2,56,ITC,loss,5,right,13,ITC_outcome,0,undefined,0,0,268,277888,1052683
12,20,female,Belgian,2,57,guess,neutral,5,left,13,guess_start,353,space,0,0,268,277532,1053039
12,20,female,Belgian,2,57,guess,neutral,5,left,13,guess_choice,656,j,0,0,268,276872,1053699
12,20,female,Belgian,2,57,guess,neutral,5,left,13,guess_outcome,0,undefined,0,0,268,275315,1055256
12,20,female,Belgian,2,57,ITC,neutral,5,left,13,ITC_start,482,space,0,0,268,274831,1055740
12,20,female,Belgian,2,57,ITC,neutral,5,left,13,ITC_choice,1152,j,0,0,268,273677,1056894
12,20,female,Belgian,2,57,ITC,neutral,5,left,13,ITC_wait,0,undefined,0,0,268,273674,1056897
12,20,female,Belgian,2,57,ITC,neutral,5,left,13,ITC_collect,1030,k,0,0,268,272643,1057928
12,20,female,Belgian,2,57,ITC,neutral,5,left,13,ITC_outcome,0,undefined,0,0,281,271639,1058932
12,20,female,Belgian,2,58,guess,win,5,left,5,guess_start,374,space,0,0,281,271263,1059308
12,20,female,Belgian,2,58,guess,win,5,left,5,guess_choice,610,f,0,0,281,270649,1059922
12,20,female,Belgian,2,58,guess,win,5,left,5,guess_outcome,0,undefined,0,0,301,269091,1061480
12,20,female,Belgian,2,58,ITC,win,5,left,5,ITC_start,206,space,0,0,301,268883,1061688
12,20,female,Belgian,2,58,ITC,win,5,left,5,ITC_choice,893,f,0,0,301,267989,1062582
12,20,female,Belgian,2,58,ITC,win,5,left,5,ITC_wait,0,undefined,0,0,301,262986,1067585
12,20,female,Belgian,2,58,ITC,win,5,left,5,ITC_collect,655,k,0,0,301,262328,1068243
12,20,female,Belgian,2,58,ITC,win,5,left,5,ITC_outcome,0,undefined,0,0,321,261324,1069247
12,20,female,Belgian,2,59,guess,neutral,5,right,1,guess_start,618,space,0,0,321,260704,1069867
12,20,female,Belgian,2,59,guess,neutral,5,right,1,guess_choice,640,j,0,0,321,260060,1070511
12,20,female,Belgian,2,59,guess,neutral,5,right,1,guess_outcome,0,undefined,0,0,321,258504,1072067
12,20,female,Belgian,2,59,ITC,neutral,5,right,1,ITC_start,553,space,0,0,321,257949,1072622
12,20,female,Belgian,2,59,ITC,neutral,5,right,1,ITC_choice,731,j,0,0,321,257216,1073355
12,20,female,Belgian,2,59,ITC,neutral,5,right,1,ITC_wait,0,undefined,0,0,321,252212,1078359
12,20,female,Belgian,2,59,ITC,neutral,5,right,1,ITC_collect,921,k,0,0,321,251289,1079282
12,20,female,Belgian,2,59,ITC,neutral,5,right,1,ITC_outcome,0,undefined,0,0,341,250282,1080289
12,20,female,Belgian,2,60,guess,neutral,5,left,12,guess_start,624,space,0,0,341,249656,1080915
12,20,female,Belgian,2,60,guess,neutral,5,left,12,guess_choice,611,j,0,0,341,249041,1081530
12,20,female,Belgian,2,60,guess,neutral,5,left,12,guess_outcome,0,undefined,0,0,341,247485,1083086
12,20,female,Belgian,2,60,ITC,neutral,5,left,12,ITC_start,541,space,0,0,341,246942,1083629
12,20,female,Belgian,2,60,ITC,neutral,5,left,12,ITC_choice,941,j,0,0,341,246000,1084571
12,20,female,Belgian,2,60,ITC,neutral,5,left,12,ITC_wait,0,undefined,0,0,341,245997,1084574
12,20,female,Belgian,2,60,ITC,neutral,5,left,12,ITC_collect,636,k,0,0,341,245359,1085212
12,20,female,Belgian,2,60,ITC,neutral,5,left,12,ITC_outcome,0,undefined,0,0,353,244352,1086219
12,20,female,Belgian,2,61,guess,win,5,left,16,guess_start,115,space,0,0,353,244235,1086336
12,20,female,Belgian,2,61,guess,win,5,left,16,guess_choice,666,j,0,0,353,243566,1087005
12,20,female,Belgian,2,61,guess,win,5,left,16,guess_outcome,0,undefined,0,0,373,242008,1088563
12,20,female,Belgian,2,61,ITC,win,5,left,16,ITC_start,482,space,0,0,373,241524,1089047
12,20,female,Belgian,2,61,ITC,win,5,left,16,ITC_choice,824,j,0,0,373,240697,1089874
12,20,female,Belgian,2,61,ITC,win,5,left,16,ITC_wait,0,undefined,0,0,373,240694,1089877
12,20,female,Belgian,2,61,ITC,win,5,left,16,ITC_collect,642,k,0,0,373,240050,1090521
12,20,female,Belgian,2,61,ITC,win,5,left,16,ITC_outcome,0,undefined,0,0,389,239043,1091528
12,20,female,Belgian,2,62,guess,win,5,right,11,guess_start,364,space,0,0,389,238676,1091895
12,20,female,Belgian,2,62,guess,win,5,right,11,guess_choice,648,f,0,0,389,238025,1092546
12,20,female,Belgian,2,62,guess,win,5,right,11,guess_outcome,0,undefined,0,0,409,236470,1094101
12,20,female,Belgian,2,62,ITC,win,5,right,11,ITC_start,448,space,0,0,409,236021,1094550
12,20,female,Belgian,2,62,ITC,win,5,right,11,ITC_choice,778,j,0,0,409,235241,1095330
12,20,female,Belgian,2,62,ITC,win,5,right,11,ITC_wait,0,undefined,0,0,409,230239,1100332
12,20,female,Belgian,2,62,ITC,win,5,right,11,ITC_collect,380,k,0,0,409,229856,1100715
12,20,female,Belgian,2,62,ITC,win,5,right,11,ITC_outcome,0,undefined,0,0,429,228849,1101722
12,20,female,Belgian,2,63,guess,neutral,5,right,6,guess_start,356,space,0,0,429,228490,1102081
12,20,female,Belgian,2,63,guess,neutral,5,right,6,guess_choice,527,j,0,0,429,227960,1102611
12,20,female,Belgian,2,63,guess,neutral,5,right,6,guess_outcome,0,undefined,0,0,429,226404,1104167
12,20,female,Belgian,2,63,ITC,neutral,5,right,6,ITC_start,570,space,0,0,429,225832,1104739
12,20,female,Belgian,2,63,ITC,neutral,5,right,6,ITC_choice,645,j,0,0,429,225185,1105386
12,20,female,Belgian,2,63,ITC,neutral,5,right,6,ITC_wait,0,undefined,0,0,429,220179,1110392
12,20,female,Belgian,2,63,ITC,neutral,5,right,6,ITC_collect,432,k,0,0,429,219745,1110826
12,20,female,Belgian,2,63,ITC,neutral,5,right,6,ITC_outcome,0,undefined,0,0,449,218739,1111832
12,20,female,Belgian,2,64,guess,loss,5,left,15,guess_start,352,space,0,0,449,218384,1112187
12,20,female,Belgian,2,64,guess,loss,5,left,15,guess_choice,599,j,0,0,449,217781,1112790
12,20,female,Belgian,2,64,guess,loss,5,left,15,guess_outcome,0,undefined,0,0,434,216225,1114346
12,20,female,Belgian,2,64,ITC,loss,5,left,15,ITC_start,404,space,0,0,434,215819,1114752
12,20,female,Belgian,2,64,ITC,loss,5,left,15,ITC_choice,749,f,0,0,434,215067,1115504
12,20,female,Belgian,2,64,ITC,loss,5,left,15,ITC_wait,0,undefined,0,0,434,210065,1120506
12,20,female,Belgian,2,64,ITC,loss,5,left,15,ITC_collect,457,k,0,0,434,209605,1120966
12,20,female,Belgian,2,64,ITC,loss,5,left,15,ITC_outcome,0,undefined,0,0,454,208602,1121969
12,20,female,Belgian,2,65,guess,loss,10,left,6,guess_start,410,space,0,0,454,208190,1122381
12,20,female,Belgian,2,65,guess,loss,10,left,6,guess_choice,590,f,0,0,454,207595,1122976
12,20,female,Belgian,2,65,guess,loss,10,left,6,guess_outcome,0,undefined,0,0,439,206042,1124529
12,20,female,Belgian,2,65,ITC,loss,10,left,6,ITC_start,523,space,0,0,439,205518,1125053
12,20,female,Belgian,2,65,ITC,loss,10,left,6,ITC_choice,798,f,0,0,439,204718,1125853
12,20,female,Belgian,2,65,ITC,loss,10,left,6,ITC_wait,0,undefined,0,0,439,194713,1135858
12,20,female,Belgian,2,65,ITC,loss,10,left,6,ITC_collect,444,k,0,0,439,194266,1136305
12,20,female,Belgian,2,65,ITC,loss,10,left,6,ITC_outcome,0,undefined,0,0,459,193259,1137312
12,20,female,Belgian,2,66,guess,neutral,5,left,7,guess_start,770,space,0,0,459,192487,1138084
12,20,female,Belgian,2,66,guess,neutral,5,left,7,guess_choice,581,f,0,0,459,191901,1138670
12,20,female,Belgian,2,66,guess,neutral,5,left,7,guess_outcome,0,undefined,0,0,459,190343,1140228
12,20,female,Belgian,2,66,ITC,neutral,5,left,7,ITC_start,594,space,0,0,459,189747,1140824
12,20,female,Belgian,2,66,ITC,neutral,5,left,7,ITC_choice,549,f,0,0,459,189196,1141375
12,20,female,Belgian,2,66,ITC,neutral,5,left,7,ITC_wait,0,undefined,0,0,459,184193,1146378
12,20,female,Belgian,2,66,ITC,neutral,5,left,7,ITC_collect,403,k,0,0,459,183787,1146784
12,20,female,Belgian,2,66,ITC,neutral,5,left,7,ITC_outcome,0,undefined,0,0,479,182784,1147787
12,20,female,Belgian,2,67,guess,loss,5,left,2,guess_start,396,space,0,0,479,182385,1148186
12,20,female,Belgian,2,67,guess,loss,5,left,2,guess_choice,505,f,0,0,479,181876,1148695
12,20,female,Belgian,2,67,guess,loss,5,left,2,guess_outcome,0,undefined,0,0,464,180319,1150252
12,20,female,Belgian,2,67,ITC,loss,5,left,2,ITC_start,646,space,0,0,464,179671,1150900
12,20,female,Belgian,2,67,ITC,loss,5,left,2,ITC_choice,987,f,0,0,464,178681,1151890
12,20,female,Belgian,2,67,ITC,loss,5,left,2,ITC_wait,0,undefined,0,0,464,173676,1156895
12,20,female,Belgian,2,67,ITC,loss,5,left,2,ITC_collect,456,k,0,0,464,173218,1157353
12,20,female,Belgian,2,67,ITC,loss,5,left,2,ITC_outcome,0,undefined,0,0,484,172215,1158356
12,20,female,Belgian,2,68,guess,loss,5,right,5,guess_start,623,space,0,0,484,171589,1158982
12,20,female,Belgian,2,68,guess,loss,5,right,5,guess_choice,584,f,0,0,484,171001,1159570
12,20,female,Belgian,2,68,guess,loss,5,right,5,guess_outcome,0,undefined,0,0,469,169442,1161129
12,20,female,Belgian,2,68,ITC,loss,5,right,5,ITC_start,341,space,0,0,469,169099,1161472
12,20,female,Belgian,2,68,ITC,loss,5,right,5,ITC_choice,761,j,0,0,469,168335,1162236
12,20,female,Belgian,2,68,ITC,loss,5,right,5,ITC_wait,0,undefined,0,0,469,163333,1167238
12,20,female,Belgian,2,68,ITC,loss,5,right,5,ITC_collect,338,k,0,0,469,162993,1167578
12,20,female,Belgian,2,68,ITC,loss,5,right,5,ITC_outcome,0,undefined,0,0,489,161987,1168584
12,20,female,Belgian,2,69,guess,loss,5,right,3,guess_start,749,space,0,0,489,161236,1169335
12,20,female,Belgian,2,69,guess,loss,5,right,3,guess_choice,597,f,0,0,489,160635,1169936
12,20,female,Belgian,2,69,guess,loss,5,right,3,guess_outcome,0,undefined,0,0,474,159076,1171495
12,20,female,Belgian,2,69,ITC,loss,5,right,3,ITC_start,1560,space,0,0,474,157513,1173058
12,20,female,Belgian,2,69,ITC,loss,5,right,3,ITC_choice,814,j,0,0,474,156697,1173874
12,20,female,Belgian,2,69,ITC,loss,5,right,3,ITC_wait,0,undefined,0,0,474,151689,1178882
12,20,female,Belgian,2,69,ITC,loss,5,right,3,ITC_collect,657,k,0,0,474,151030,1179541
12,20,female,Belgian,2,69,ITC,loss,5,right,3,ITC_outcome,0,undefined,0,0,494,150025,1180546
12,20,female,Belgian,2,70,guess,loss,10,left,2,guess_start,724,space,0,0,494,149299,1181272
12,20,female,Belgian,2,70,guess,loss,10,left,2,guess_choice,563,f,0,0,494,148732,1181839
12,20,female,Belgian,2,70,guess,loss,10,left,2,guess_outcome,0,undefined,0,0,479,147175,1183396
12,20,female,Belgian,2,70,ITC,loss,10,left,2,ITC_start,565,space,0,0,479,146609,1183962
12,20,female,Belgian,2,70,ITC,loss,10,left,2,ITC_choice,901,f,0,0,479,145705,1184866
12,20,female,Belgian,2,70,ITC,loss,10,left,2,ITC_wait,0,undefined,0,0,479,135703,1194868
12,20,female,Belgian,2,70,ITC,loss,10,left,2,ITC_collect,543,k,0,0,479,135157,1195414
12,20,female,Belgian,2,70,ITC,loss,10,left,2,ITC_outcome,0,undefined,0,0,499,134153,1196418
12,20,female,Belgian,2,71,guess,neutral,5,left,3,guess_start,537,space,0,0,499,133613,1196958
12,20,female,Belgian,2,71,guess,neutral,5,left,3,guess_choice,604,f,0,0,499,133005,1197566
12,20,female,Belgian,2,71,guess,neutral,5,left,3,guess_outcome,0,undefined,0,0,499,131449,1199122
12,20,female,Belgian,2,71,ITC,neutral,5,left,3,ITC_start,2069,space,0,0,499,129378,1201193
12,20,female,Belgian,2,71,ITC,neutral,5,left,3,ITC_choice,774,f,0,0,499,128601,1201970
12,20,female,Belgian,2,71,ITC,neutral,5,left,3,ITC_wait,0,undefined,0,0,499,123599,1206972
12,20,female,Belgian,2,71,ITC,neutral,5,left,3,ITC_collect,524,k,0,0,499,123072,1207499
12,20,female,Belgian,2,71,ITC,neutral,5,left,3,ITC_outcome,0,undefined,0,0,519,122066,1208505
12,20,female,Belgian,2,72,guess,neutral,5,left,2,guess_start,642,space,0,0,519,121421,1209150
12,20,female,Belgian,2,72,guess,neutral,5,left,2,guess_choice,466,f,0,0,519,120951,1209620
12,20,female,Belgian,2,72,guess,neutral,5,left,2,guess_outcome,0,undefined,0,0,519,119392,1211179
12,20,female,Belgian,2,72,ITC,neutral,5,left,2,ITC_start,601,space,0,0,519,118789,1211782
12,20,female,Belgian,2,72,ITC,neutral,5,left,2,ITC_choice,705,f,0,0,519,118081,1212490
12,20,female,Belgian,2,72,ITC,neutral,5,left,2,ITC_wait,0,undefined,0,0,519,113076,1217495
12,20,female,Belgian,2,72,ITC,neutral,5,left,2,ITC_collect,384,k,0,0,519,112690,1217881
12,20,female,Belgian,2,72,ITC,neutral,5,left,2,ITC_outcome,0,undefined,0,0,539,111686,1218885
12,20,female,Belgian,2,73,guess,neutral,5,left,13,guess_start,468,space,0,0,539,111216,1219355
12,20,female,Belgian,2,73,guess,neutral,5,left,13,guess_choice,571,j,0,0,539,110642,1219929
12,20,female,Belgian,2,73,guess,neutral,5,left,13,guess_outcome,0,undefined,0,0,539,109087,1221484
12,20,female,Belgian,2,73,ITC,neutral,5,left,13,ITC_start,2349,space,0,0,539,106735,1223836
12,20,female,Belgian,2,73,ITC,neutral,5,left,13,ITC_choice,634,f,0,0,539,106100,1224471
12,20,female,Belgian,2,73,ITC,neutral,5,left,13,ITC_wait,0,undefined,0,0,539,101092,1229479
12,20,female,Belgian,2,73,ITC,neutral,5,left,13,ITC_collect,427,k,0,0,539,100663,1229908
12,20,female,Belgian,2,73,ITC,neutral,5,left,13,ITC_outcome,0,undefined,0,0,559,99657,1230914
12,20,female,Belgian,2,74,guess,loss,10,left,6,guess_start,502,space,0,0,559,99153,1231418
12,20,female,Belgian,2,74,guess,loss,10,left,6,guess_choice,520,f,0,0,559,98630,1231941
12,20,female,Belgian,2,74,guess,loss,10,left,6,guess_outcome,0,undefined,0,0,544,97075,1233496
12,20,female,Belgian,2,74,ITC,loss,10,left,6,ITC_start,439,space,0,0,544,96634,1233937
12,20,female,Belgian,2,74,ITC,loss,10,left,6,ITC_choice,670,f,0,0,544,95962,1234609
12,20,female,Belgian,2,75,guess,win,5,left,6,guess_start,474,space,0,0,564,84034,1246537
12,20,female,Belgian,2,74,ITC,loss,10,left,6,ITC_wait,0,undefined,0,0,544,85959,1244612
12,20,female,Belgian,2,75,guess,win,5,left,6,guess_choice,482,f,0,0,564,83547,1247024
12,20,female,Belgian,2,74,ITC,loss,10,left,6,ITC_outcome,0,undefined,0,0,564,84511,1246060
12,20,female,Belgian,2,74,ITC,loss,10,left,6,ITC_collect,441,k,0,0,544,85515,1245056
12,20,female,Belgian,2,75,guess,win,5,left,6,guess_outcome,0,undefined,0,0,584,81990,1248581
12,20,female,Belgian,2,75,ITC,win,5,left,6,ITC_start,534,space,0,0,584,81454,1249117
12,20,female,Belgian,2,75,ITC,win,5,left,6,ITC_choice,610,f,0,0,584,80841,1249730
12,20,female,Belgian,2,75,ITC,win,5,left,6,ITC_wait,0,undefined,0,0,584,75839,1254732
12,20,female,Belgian,2,75,ITC,win,5,left,6,ITC_collect,540,k,0,0,584,75296,1255275
12,20,female,Belgian,2,75,ITC,win,5,left,6,ITC_outcome,0,undefined,0,0,604,74289,1256282
12,20,female,Belgian,2,76,guess,loss,5,right,8,guess_start,580,space,0,0,604,73707,1256864
12,20,female,Belgian,2,76,guess,loss,5,right,8,guess_choice,519,f,0,0,604,73184,1257387
12,20,female,Belgian,2,76,guess,loss,5,right,8,guess_outcome,0,undefined,0,0,589,71630,1258941
12,20,female,Belgian,2,76,ITC,loss,5,right,8,ITC_start,454,space,0,0,589,71174,1259397
12,20,female,Belgian,2,76,ITC,loss,5,right,8,ITC_choice,781,j,0,0,589,70391,1260180
12,20,female,Belgian,2,76,ITC,loss,5,right,8,ITC_wait,0,undefined,0,0,589,65386,1265185
12,20,female,Belgian,2,76,ITC,loss,5,right,8,ITC_collect,365,k,0,0,589,65018,1265553
12,20,female,Belgian,2,76,ITC,loss,5,right,8,ITC_outcome,0,undefined,0,0,609,64011,1266560
12,20,female,Belgian,2,77,guess,loss,5,left,11,guess_start,476,space,0,0,609,63532,1267039
12,20,female,Belgian,2,77,guess,loss,5,left,11,guess_choice,477,f,0,0,609,63052,1267519
12,20,female,Belgian,2,77,guess,loss,5,left,11,guess_outcome,0,undefined,0,0,594,61496,1269075
12,20,female,Belgian,2,77,ITC,loss,5,left,11,ITC_start,527,space,0,0,594,60967,1269604
12,20,female,Belgian,2,77,ITC,loss,5,left,11,ITC_choice,590,f,0,0,594,60374,1270197
12,20,female,Belgian,2,77,ITC,loss,5,left,11,ITC_wait,0,undefined,0,0,594,55369,1275202
12,20,female,Belgian,2,77,ITC,loss,5,left,11,ITC_collect,367,k,0,0,594,55000,1275571
12,20,female,Belgian,2,77,ITC,loss,5,left,11,ITC_outcome,0,undefined,0,0,614,53996,1276575
12,20,female,Belgian,2,78,guess,neutral,10,right,6,guess_start,401,space,0,0,614,53593,1276978
12,20,female,Belgian,2,78,guess,neutral,10,right,6,guess_choice,375,j,0,0,614,53214,1277357
12,20,female,Belgian,2,78,guess,neutral,10,right,6,guess_outcome,0,undefined,0,0,614,51658,1278913
12,20,female,Belgian,2,78,ITC,neutral,10,right,6,ITC_start,398,space,0,0,614,51258,1279313
12,20,female,Belgian,2,78,ITC,neutral,10,right,6,ITC_choice,671,j,0,0,614,50584,1279987
12,20,female,Belgian,2,78,ITC,neutral,10,right,6,ITC_wait,0,undefined,0,0,614,40577,1289994
12,20,female,Belgian,2,78,ITC,neutral,10,right,6,ITC_collect,1015,k,0,0,614,39560,1291011
12,20,female,Belgian,2,78,ITC,neutral,10,right,6,ITC_outcome,0,undefined,0,0,634,38557,1292014
12,20,female,Belgian,2,79,guess,loss,10,right,5,guess_start,457,space,0,0,634,38098,1292473
12,20,female,Belgian,2,79,guess,loss,10,right,5,guess_choice,656,f,0,0,634,37438,1293133
12,20,female,Belgian,2,79,guess,loss,10,right,5,guess_outcome,0,undefined,0,0,619,35882,1294689
12,20,female,Belgian,2,79,ITC,loss,10,right,5,ITC_start,692,space,0,0,619,35188,1295383
12,20,female,Belgian,2,79,ITC,loss,10,right,5,ITC_choice,967,j,0,0,619,34219,1296352
12,20,female,Belgian,2,79,ITC,loss,10,right,5,ITC_wait,0,undefined,0,0,619,24211,1306360
12,20,female,Belgian,2,79,ITC,loss,10,right,5,ITC_collect,452,k,0,0,619,23757,1306814
12,20,female,Belgian,2,79,ITC,loss,10,right,5,ITC_outcome,0,undefined,0,0,639,22749,1307822
12,20,female,Belgian,2,80,guess,neutral,5,right,9,guess_start,568,space,0,0,639,22179,1308392
12,20,female,Belgian,2,80,guess,neutral,5,right,9,guess_choice,529,j,0,0,639,21646,1308925
12,20,female,Belgian,2,80,guess,neutral,5,right,9,guess_outcome,0,undefined,0,0,639,20087,1310484
12,20,female,Belgian,2,80,ITC,neutral,5,right,9,ITC_start,591,space,0,0,639,19494,1311077
12,20,female,Belgian,2,80,ITC,neutral,5,right,9,ITC_choice,867,j,0,0,639,18625,1311946
12,20,female,Belgian,2,80,ITC,neutral,5,right,9,ITC_wait,0,undefined,0,0,639,13623,1316948
12,20,female,Belgian,2,80,ITC,neutral,5,right,9,ITC_collect,494,k,0,0,639,13126,1317445
12,20,female,Belgian,2,80,ITC,neutral,5,right,9,ITC_outcome,0,undefined,0,0,659,12118,1318453
12,20,female,Belgian,2,81,guess,neutral,5,left,16,guess_start,470,space,0,0,659,11645,1318926
12,20,female,Belgian,2,81,guess,neutral,5,left,16,guess_choice,552,j,0,0,659,11090,1319481
12,20,female,Belgian,2,81,guess,neutral,5,left,16,guess_outcome,0,undefined,0,0,659,9531,1321040
12,20,female,Belgian,2,81,ITC,neutral,5,left,16,ITC_start,454,space,0,0,659,9074,1321497
12,20,female,Belgian,2,81,ITC,neutral,5,left,16,ITC_choice,705,f,0,0,659,8367,1322204
12,20,female,Belgian,2,81,ITC,neutral,5,left,16,ITC_wait,0,undefined,0,0,659,3364,1327207
12,20,female,Belgian,2,81,ITC,neutral,5,left,16,ITC_collect,371,k,0,0,659,2990,1327581
12,20,female,Belgian,2,81,ITC,neutral,5,left,16,ITC_outcome,0,undefined,0,0,679,1987,1328584
12,20,female,Belgian,2,82,guess,loss,5,left,15,guess_start,383,space,0,0,679,1602,1328969
12,20,female,Belgian,2,82,guess,loss,5,left,15,guess_choice,574,j,0,0,679,1024,1329547
12,20,female,Belgian,2,82,guess,loss,5,left,15,guess_outcome,0,undefined,0,0,664,-8,1330579
12,20,female,Belgian,3,83,guess,neutral,10,left,2,guess_start,460,space,0,0,0,479538,1565315
12,20,female,Belgian,3,83,guess,neutral,10,left,2,guess_choice,645,f,0,0,0,478889,1565964
12,20,female,Belgian,3,83,guess,neutral,10,left,2,guess_outcome,0,undefined,0,0,0,477333,1567520
12,20,female,Belgian,3,83,ITC,neutral,10,left,2,ITC_start,718,space,0,0,0,476613,1568240
12,20,female,Belgian,3,83,ITC,neutral,10,left,2,ITC_choice,819,f,0,0,0,475792,1569061
12,20,female,Belgian,3,83,ITC,neutral,10,left,2,ITC_wait,0,undefined,0,0,0,465789,1579064
12,20,female,Belgian,3,83,ITC,neutral,10,left,2,ITC_collect,600,k,0,0,0,465187,1579666
12,20,female,Belgian,3,83,ITC,neutral,10,left,2,ITC_outcome,0,undefined,0,0,20,464181,1580672
12,20,female,Belgian,3,84,guess,neutral,5,right,3,guess_start,436,space,0,0,20,463743,1581110
12,20,female,Belgian,3,84,guess,neutral,5,right,3,guess_choice,514,j,0,0,20,463225,1581628
12,20,female,Belgian,3,84,guess,neutral,5,right,3,guess_outcome,0,undefined,0,0,20,461670,1583183
12,20,female,Belgian,3,84,ITC,neutral,5,right,3,ITC_start,640,space,0,0,20,461029,1583824
12,20,female,Belgian,3,84,ITC,neutral,5,right,3,ITC_choice,781,j,0,0,20,460246,1584607
12,20,female,Belgian,3,84,ITC,neutral,5,right,3,ITC_wait,0,undefined,0,0,20,455238,1589615
12,20,female,Belgian,3,84,ITC,neutral,5,right,3,ITC_collect,449,k,0,0,20,454787,1590066
12,20,female,Belgian,3,84,ITC,neutral,5,right,3,ITC_outcome,0,undefined,0,0,40,453780,1591073
12,20,female,Belgian,3,85,guess,loss,5,right,9,guess_start,414,space,0,0,40,453362,1591491
12,20,female,Belgian,3,85,guess,loss,5,right,9,guess_choice,604,f,0,0,40,452754,1592099
12,20,female,Belgian,3,85,guess,loss,5,right,9,guess_outcome,0,undefined,0,0,25,451196,1593657
12,20,female,Belgian,3,85,ITC,loss,5,right,9,ITC_start,512,space,0,0,25,450683,1594170
12,20,female,Belgian,3,85,ITC,loss,5,right,9,ITC_choice,799,j,0,0,25,449881,1594972
12,20,female,Belgian,3,85,ITC,loss,5,right,9,ITC_wait,0,undefined,0,0,25,444878,1599975
12,20,female,Belgian,3,85,ITC,loss,5,right,9,ITC_collect,527,k,0,0,25,444349,1600504
12,20,female,Belgian,3,85,ITC,loss,5,right,9,ITC_outcome,0,undefined,0,0,45,443342,1601511
12,20,female,Belgian,3,86,guess,loss,5,right,2,guess_start,440,space,0,0,45,442899,1601954
12,20,female,Belgian,3,86,guess,loss,5,right,2,guess_choice,430,f,0,0,45,442465,1602388
12,20,female,Belgian,3,86,guess,loss,5,right,2,guess_outcome,0,undefined,0,0,30,440908,1603945
12,20,female,Belgian,3,86,ITC,loss,5,right,2,ITC_start,470,space,0,0,30,440435,1604418
12,20,female,Belgian,3,86,ITC,loss,5,right,2,ITC_choice,825,j,0,0,30,439608,1605245
12,20,female,Belgian,3,86,ITC,loss,5,right,2,ITC_wait,0,undefined,0,0,30,434605,1610248
12,20,female,Belgian,3,86,ITC,loss,5,right,2,ITC_collect,320,k,0,0,30,434283,1610570
12,20,female,Belgian,3,86,ITC,loss,5,right,2,ITC_outcome,0,undefined,0,0,50,433279,1611574
12,20,female,Belgian,3,87,guess,loss,5,right,7,guess_start,423,space,0,0,50,432853,1612000
12,20,female,Belgian,3,87,guess,loss,5,right,7,guess_choice,403,j,0,0,50,432446,1612407
12,20,female,Belgian,3,87,guess,loss,5,right,7,guess_outcome,0,undefined,0,0,35,430886,1613967
12,20,female,Belgian,3,87,ITC,loss,5,right,7,ITC_start,471,space,0,0,35,430413,1614440
12,20,female,Belgian,3,87,ITC,loss,5,right,7,ITC_choice,802,j,0,0,35,429608,1615245
12,20,female,Belgian,3,87,ITC,loss,5,right,7,ITC_wait,0,undefined,0,0,35,424606,1620247
12,20,female,Belgian,3,87,ITC,loss,5,right,7,ITC_collect,361,k,0,0,35,424242,1620611
12,20,female,Belgian,3,87,ITC,loss,5,right,7,ITC_outcome,0,undefined,0,0,55,423236,1621617
12,20,female,Belgian,3,88,guess,win,5,left,15,guess_start,423,space,0,0,55,422811,1622042
12,20,female,Belgian,3,88,guess,win,5,left,15,guess_choice,419,j,0,0,55,422388,1622465
12,20,female,Belgian,3,88,guess,win,5,left,15,guess_outcome,0,undefined,0,0,75,420833,1624020
12,20,female,Belgian,3,88,ITC,win,5,left,15,ITC_start,493,space,0,0,75,420338,1624515
12,20,female,Belgian,3,88,ITC,win,5,left,15,ITC_choice,690,f,0,0,75,419646,1625207
12,20,female,Belgian,3,88,ITC,win,5,left,15,ITC_wait,0,undefined,0,0,75,414643,1630210
12,20,female,Belgian,3,88,ITC,win,5,left,15,ITC_collect,403,k,0,0,75,414238,1630615
12,20,female,Belgian,3,88,ITC,win,5,left,15,ITC_outcome,0,undefined,0,0,95,413233,1631620
12,20,female,Belgian,3,89,guess,loss,5,left,16,guess_start,360,space,0,0,95,412871,1631982
12,20,female,Belgian,3,89,guess,loss,5,left,16,guess_choice,463,f,0,0,95,412404,1632449
12,20,female,Belgian,3,89,guess,loss,5,left,16,guess_outcome,0,undefined,0,0,80,410847,1634006
12,20,female,Belgian,3,89,ITC,loss,5,left,16,ITC_start,514,space,0,0,80,410331,1634522
12,20,female,Belgian,3,89,ITC,loss,5,left,16,ITC_choice,687,j,0,0,80,409642,1635211
12,20,female,Belgian,3,89,ITC,loss,5,left,16,ITC_wait,0,undefined,0,0,80,409639,1635214
12,20,female,Belgian,3,89,ITC,loss,5,left,16,ITC_collect,754,k,0,0,80,408883,1635970
12,20,female,Belgian,3,89,ITC,loss,5,left,16,ITC_outcome,0,undefined,0,0,96,407876,1636977
12,20,female,Belgian,3,90,guess,loss,5,right,13,guess_start,320,space,0,0,96,407554,1637299
12,20,female,Belgian,3,90,guess,loss,5,right,13,guess_choice,559,f,0,0,96,406991,1637862
12,20,female,Belgian,3,90,guess,loss,5,right,13,guess_outcome,0,undefined,0,0,81,405438,1639415
12,20,female,Belgian,3,90,ITC,loss,5,right,13,ITC_start,337,space,0,0,81,405099,1639754
12,20,female,Belgian,3,90,ITC,loss,5,right,13,ITC_choice,822,f,0,0,81,404275,1640578
12,20,female,Belgian,3,90,ITC,loss,5,right,13,ITC_wait,0,undefined,0,0,81,404272,1640581
12,20,female,Belgian,3,90,ITC,loss,5,right,13,ITC_collect,540,k,0,0,81,403730,1641123
12,20,female,Belgian,3,90,ITC,loss,5,right,13,ITC_outcome,0,undefined,0,0,94,402723,1642130
12,20,female,Belgian,3,91,guess,win,10,left,2,guess_start,526,space,0,0,94,402196,1642657
12,20,female,Belgian,3,91,guess,win,10,left,2,guess_choice,585,j,0,0,94,401608,1643245
12,20,female,Belgian,3,91,guess,win,10,left,2,guess_outcome,0,undefined,0,0,114,400054,1644799
12,20,female,Belgian,3,91,ITC,win,10,left,2,ITC_start,387,space,0,0,114,399665,1645188
12,20,female,Belgian,3,91,ITC,win,10,left,2,ITC_choice,744,f,0,0,114,398919,1645934
12,20,female,Belgian,3,91,ITC,win,10,left,2,ITC_wait,0,undefined,0,0,114,388912,1655941
12,20,female,Belgian,3,91,ITC,win,10,left,2,ITC_collect,493,k,0,0,114,388416,1656437
12,20,female,Belgian,3,91,ITC,win,10,left,2,ITC_outcome,0,undefined,0,0,134,387409,1657444
12,20,female,Belgian,3,92,guess,loss,10,left,1,guess_start,63,space,0,0,134,387344,1657509
12,20,female,Belgian,3,92,guess,loss,10,left,1,guess_choice,630,j,0,0,134,386711,1658142
12,20,female,Belgian,3,92,guess,loss,10,left,1,guess_outcome,0,undefined,0,0,119,385154,1659699
12,20,female,Belgian,3,92,ITC,loss,10,left,1,ITC_start,557,space,0,0,119,384596,1660257
12,20,female,Belgian,3,92,ITC,loss,10,left,1,ITC_choice,867,f,0,0,119,383727,1661126
12,20,female,Belgian,3,92,ITC,loss,10,left,1,ITC_wait,0,undefined,0,0,119,373722,1671131
12,20,female,Belgian,3,92,ITC,loss,10,left,1,ITC_collect,425,k,0,0,119,373295,1671558
12,20,female,Belgian,3,92,ITC,loss,10,left,1,ITC_outcome,0,undefined,0,0,139,372288,1672565
12,20,female,Belgian,3,93,guess,neutral,10,right,1,guess_start,407,space,0,0,139,371878,1672975
12,20,female,Belgian,3,93,guess,neutral,10,right,1,guess_choice,535,j,0,0,139,371339,1673514
12,20,female,Belgian,3,93,guess,neutral,10,right,1,guess_outcome,0,undefined,0,0,139,369785,1675068
12,20,female,Belgian,3,93,ITC,neutral,10,right,1,ITC_start,1110,space,0,0,139,368673,1676180
12,20,female,Belgian,3,93,ITC,neutral,10,right,1,ITC_choice,635,j,0,0,139,368036,1676817
12,20,female,Belgian,3,93,ITC,neutral,10,right,1,ITC_wait,0,undefined,0,0,139,358031,1686822
12,20,female,Belgian,3,93,ITC,neutral,10,right,1,ITC_collect,483,k,0,0,139,357546,1687307
12,20,female,Belgian,3,93,ITC,neutral,10,right,1,ITC_outcome,0,undefined,0,0,159,356540,1688313
12,20,female,Belgian,3,94,guess,neutral,5,left,14,guess_start,526,space,0,0,159,356009,1688844
12,20,female,Belgian,3,94,guess,neutral,5,left,14,guess_choice,459,j,0,0,159,355547,1689306
12,20,female,Belgian,3,94,guess,neutral,5,left,14,guess_outcome,0,undefined,0,0,159,353993,1690860
12,20,female,Belgian,3,94,ITC,neutral,5,left,14,ITC_start,927,space,0,0,159,353064,1691789
12,20,female,Belgian,3,94,ITC,neutral,5,left,14,ITC_choice,688,j,0,0,159,352374,1692479
12,20,female,Belgian,3,94,ITC,neutral,5,left,14,ITC_wait,0,undefined,0,0,159,352370,1692483
12,20,female,Belgian,3,94,ITC,neutral,5,left,14,ITC_collect,416,k,0,0,159,351952,1692901
12,20,female,Belgian,3,94,ITC,neutral,5,left,14,ITC_outcome,0,undefined,0,0,173,350945,1693908
12,20,female,Belgian,3,95,guess,win,10,left,1,guess_start,547,space,0,0,173,350396,1694457
12,20,female,Belgian,3,95,guess,win,10,left,1,guess_choice,542,f,0,0,173,349851,1695002
12,20,female,Belgian,3,95,guess,win,10,left,1,guess_outcome,0,undefined,0,0,193,348293,1696560
12,20,female,Belgian,3,95,ITC,win,10,left,1,ITC_start,303,space,0,0,193,347988,1696865
12,20,female,Belgian,3,95,ITC,win,10,left,1,ITC_choice,672,f,0,0,193,347314,1697539
12,20,female,Belgian,3,95,ITC,win,10,left,1,ITC_wait,0,undefined,0,0,193,337307,1707546
12,20,female,Belgian,3,95,ITC,win,10,left,1,ITC_collect,518,k,0,0,193,336786,1708067
12,20,female,Belgian,3,95,ITC,win,10,left,1,ITC_outcome,0,undefined,0,0,213,335780,1709073
12,20,female,Belgian,3,96,guess,win,5,right,11,guess_start,424,space,0,0,213,335353,1709500
12,20,female,Belgian,3,96,guess,win,5,right,11,guess_choice,540,j,0,0,213,334809,1710044
12,20,female,Belgian,3,96,guess,win,5,right,11,guess_outcome,0,undefined,0,0,233,333252,1711601
12,20,female,Belgian,3,96,ITC,win,5,right,11,ITC_start,762,space,0,0,233,332489,1712364
12,20,female,Belgian,3,96,ITC,win,5,right,11,ITC_choice,670,j,0,0,233,331817,1713036
12,20,female,Belgian,3,96,ITC,win,5,right,11,ITC_wait,0,undefined,0,0,233,326814,1718039
12,20,female,Belgian,3,96,ITC,win,5,right,11,ITC_collect,435,k,0,0,233,326376,1718477
12,20,female,Belgian,3,96,ITC,win,5,right,11,ITC_outcome,0,undefined,0,0,253,325369,1719484
12,20,female,Belgian,3,97,guess,win,5,right,7,guess_start,388,space,0,0,253,324979,1719874
12,20,female,Belgian,3,97,guess,win,5,right,7,guess_choice,546,j,0,0,253,324429,1720424
12,20,female,Belgian,3,97,guess,win,5,right,7,guess_outcome,0,undefined,0,0,273,322870,1721983
12,20,female,Belgian,3,97,ITC,win,5,right,7,ITC_start,755,space,0,0,273,322112,1722741
12,20,female,Belgian,3,97,ITC,win,5,right,7,ITC_choice,1110,f,0,0,273,321001,1723852
12,20,female,Belgian,3,97,ITC,win,5,right,7,ITC_wait,0,undefined,0,0,273,320997,1723856
12,20,female,Belgian,3,97,ITC,win,5,right,7,ITC_collect,663,k,0,0,273,320332,1724521
12,20,female,Belgian,3,97,ITC,win,5,right,7,ITC_outcome,0,undefined,0,0,280,319326,1725527
12,20,female,Belgian,3,98,guess,neutral,5,left,1,guess_start,361,space,0,0,280,318963,1725890
12,20,female,Belgian,3,98,guess,neutral,5,left,1,guess_choice,537,j,0,0,280,318421,1726432
12,20,female,Belgian,3,98,guess,neutral,5,left,1,guess_outcome,0,undefined,0,0,280,316862,1727991
12,20,female,Belgian,3,98,ITC,neutral,5,left,1,ITC_start,497,space,0,0,280,316363,1728490
12,20,female,Belgian,3,98,ITC,neutral,5,left,1,ITC_choice,739,f,0,0,280,315622,1729231
12,20,female,Belgian,3,98,ITC,neutral,5,left,1,ITC_wait,0,undefined,0,0,280,310619,1734234
12,20,female,Belgian,3,98,ITC,neutral,5,left,1,ITC_collect,588,k,0,0,280,310029,1734824
12,20,female,Belgian,3,98,ITC,neutral,5,left,1,ITC_outcome,0,undefined,0,0,300,309024,1735829
12,20,female,Belgian,3,99,guess,win,10,left,7,guess_start,439,space,0,0,300,308582,1736271
12,20,female,Belgian,3,99,guess,win,10,left,7,guess_choice,622,j,0,0,300,307956,1736897
12,20,female,Belgian,3,99,guess,win,10,left,7,guess_outcome,0,undefined,0,0,320,306397,1738456
12,20,female,Belgian,3,99,ITC,win,10,left,7,ITC_start,445,space,0,0,320,305950,1738903
12,20,female,Belgian,3,99,ITC,win,10,left,7,ITC_choice,622,f,0,0,320,305327,1739526
12,20,female,Belgian,3,99,ITC,win,10,left,7,ITC_wait,0,undefined,0,0,320,295325,1749528
12,20,female,Belgian,3,99,ITC,win,10,left,7,ITC_collect,514,k,0,0,320,294808,1750045
12,20,female,Belgian,3,99,ITC,win,10,left,7,ITC_outcome,0,undefined,0,0,340,293801,1751052
12,20,female,Belgian,3,100,guess,neutral,5,right,8,guess_start,361,space,0,0,340,293437,1751416
12,20,female,Belgian,3,100,guess,neutral,5,right,8,guess_choice,389,j,0,0,340,293044,1751809
12,20,female,Belgian,3,100,guess,neutral,5,right,8,guess_outcome,0,undefined,0,0,340,291488,1753365
12,20,female,Belgian,3,100,ITC,neutral,5,right,8,ITC_start,791,space,0,0,340,290694,1754159
12,20,female,Belgian,3,100,ITC,neutral,5,right,8,ITC_choice,877,j,0,0,340,289815,1755038
12,20,female,Belgian,3,100,ITC,neutral,5,right,8,ITC_wait,0,undefined,0,0,340,284807,1760046
12,20,female,Belgian,3,100,ITC,neutral,5,right,8,ITC_collect,759,k,0,0,340,284046,1760807
12,20,female,Belgian,3,100,ITC,neutral,5,right,8,ITC_outcome,0,undefined,0,0,360,283042,1761811
12,20,female,Belgian,3,101,guess,neutral,10,right,8,guess_start,452,space,0,0,360,282587,1762266
12,20,female,Belgian,3,101,guess,neutral,10,right,8,guess_choice,492,f,0,0,360,282091,1762762
12,20,female,Belgian,3,101,guess,neutral,10,right,8,guess_outcome,0,undefined,0,0,360,280537,1764316
12,20,female,Belgian,3,101,ITC,neutral,10,right,8,ITC_start,543,space,0,0,360,279992,1764861
12,20,female,Belgian,3,101,ITC,neutral,10,right,8,ITC_choice,910,f,0,0,360,279079,1765774
12,20,female,Belgian,3,101,ITC,neutral,10,right,8,ITC_wait,0,undefined,0,0,360,279076,1765777
12,20,female,Belgian,3,101,ITC,neutral,10,right,8,ITC_collect,470,k,0,0,360,278605,1766248
12,20,female,Belgian,3,101,ITC,neutral,10,right,8,ITC_outcome,0,undefined,0,0,368,277599,1767254
12,20,female,Belgian,3,102,guess,loss,5,left,4,guess_start,347,space,0,0,368,277250,1767603
12,20,female,Belgian,3,102,guess,loss,5,left,4,guess_choice,497,j,0,0,368,276749,1768104
12,20,female,Belgian,3,102,guess,loss,5,left,4,guess_outcome,0,undefined,0,0,353,275189,1769664
12,20,female,Belgian,3,102,ITC,loss,5,left,4,ITC_start,422,space,0,0,353,274766,1770087
12,20,female,Belgian,3,102,ITC,loss,5,left,4,ITC_choice,683,f,0,0,353,274080,1770773
12,20,female,Belgian,3,102,ITC,loss,5,left,4,ITC_wait,0,undefined,0,0,353,269078,1775775
12,20,female,Belgian,3,102,ITC,loss,5,left,4,ITC_collect,398,k,0,0,353,268677,1776176
12,20,female,Belgian,3,102,ITC,loss,5,left,4,ITC_outcome,0,undefined,0,0,373,267669,1777184
12,20,female,Belgian,3,103,guess,loss,5,right,10,guess_start,337,space,0,0,373,267330,1777523
12,20,female,Belgian,3,103,guess,loss,5,right,10,guess_choice,528,f,0,0,373,266797,1778056
12,20,female,Belgian,3,103,guess,loss,5,right,10,guess_outcome,0,undefined,0,0,358,265241,1779612
12,20,female,Belgian,3,103,ITC,loss,5,right,10,ITC_start,432,space,0,0,358,264807,1780046
12,20,female,Belgian,3,103,ITC,loss,5,right,10,ITC_choice,770,f,0,0,358,264035,1780818
12,20,female,Belgian,3,103,ITC,loss,5,right,10,ITC_wait,0,undefined,0,0,358,264031,1780822
12,20,female,Belgian,3,103,ITC,loss,5,right,10,ITC_collect,731,k,0,0,358,263299,1781554
12,20,female,Belgian,3,103,ITC,loss,5,right,10,ITC_outcome,0,undefined,0,0,368,262293,1782560
12,20,female,Belgian,3,104,guess,neutral,5,left,5,guess_start,342,space,0,0,368,261949,1782904
12,20,female,Belgian,3,104,guess,neutral,5,left,5,guess_choice,528,j,0,0,368,261416,1783437
12,20,female,Belgian,3,104,guess,neutral,5,left,5,guess_outcome,0,undefined,0,0,368,259861,1784992
12,20,female,Belgian,3,104,ITC,neutral,5,left,5,ITC_start,472,space,0,0,368,259388,1785465
12,20,female,Belgian,3,104,ITC,neutral,5,left,5,ITC_choice,751,f,0,0,368,258636,1786217
12,20,female,Belgian,3,104,ITC,neutral,5,left,5,ITC_wait,0,undefined,0,0,368,253630,1791223
12,20,female,Belgian,3,104,ITC,neutral,5,left,5,ITC_collect,413,k,0,0,368,253214,1791639
12,20,female,Belgian,3,104,ITC,neutral,5,left,5,ITC_outcome,0,undefined,0,0,388,252210,1792643
12,20,female,Belgian,3,105,guess,win,5,left,2,guess_start,432,space,0,0,388,251775,1793078
12,20,female,Belgian,3,105,guess,win,5,left,2,guess_choice,560,j,0,0,388,251210,1793643
12,20,female,Belgian,3,105,guess,win,5,left,2,guess_outcome,0,undefined,0,0,408,249651,1795202
12,20,female,Belgian,3,105,ITC,win,5,left,2,ITC_start,431,space,0,0,408,249218,1795635
12,20,female,Belgian,3,105,ITC,win,5,left,2,ITC_choice,585,f,0,0,408,248631,1796222
12,20,female,Belgian,3,105,ITC,win,5,left,2,ITC_wait,0,undefined,0,0,408,243626,1801227
12,20,female,Belgian,3,105,ITC,win,5,left,2,ITC_collect,503,k,0,0,408,243120,1801733
12,20,female,Belgian,3,105,ITC,win,5,left,2,ITC_outcome,0,undefined,0,0,428,242113,1802740
12,20,female,Belgian,3,106,guess,win,5,right,14,guess_start,356,space,0,0,428,241754,1803099
12,20,female,Belgian,3,106,guess,win,5,right,14,guess_choice,534,j,0,0,428,241216,1803637
12,20,female,Belgian,3,106,guess,win,5,right,14,guess_outcome,0,undefined,0,0,448,239659,1805194
12,20,female,Belgian,3,106,ITC,win,5,right,14,ITC_start,430,space,0,0,448,239227,1805626
12,20,female,Belgian,3,106,ITC,win,5,right,14,ITC_choice,696,f,0,0,448,238529,1806324
12,20,female,Belgian,3,106,ITC,win,5,right,14,ITC_wait,0,undefined,0,0,448,238525,1806328
12,20,female,Belgian,3,106,ITC,win,5,right,14,ITC_collect,574,k,0,0,448,237950,1806903
12,20,female,Belgian,3,106,ITC,win,5,right,14,ITC_outcome,0,undefined,0,0,462,236943,1807910
12,20,female,Belgian,3,107,guess,win,5,right,8,guess_start,384,space,0,0,462,236557,1808296
12,20,female,Belgian,3,107,guess,win,5,right,8,guess_choice,545,j,0,0,462,236009,1808844
12,20,female,Belgian,3,107,guess,win,5,right,8,guess_outcome,0,undefined,0,0,482,234455,1810398
12,20,female,Belgian,3,107,ITC,win,5,right,8,ITC_start,437,space,0,0,482,234015,1810838
12,20,female,Belgian,3,107,ITC,win,5,right,8,ITC_choice,784,j,0,0,482,233230,1811623
12,20,female,Belgian,3,107,ITC,win,5,right,8,ITC_wait,0,undefined,0,0,482,228226,1816627
12,20,female,Belgian,3,107,ITC,win,5,right,8,ITC_collect,481,k,0,0,482,227743,1817110
12,20,female,Belgian,3,107,ITC,win,5,right,8,ITC_outcome,0,undefined,0,0,502,226735,1818118
12,20,female,Belgian,3,108,guess,win,10,right,6,guess_start,379,space,0,0,502,226353,1818500
12,20,female,Belgian,3,108,guess,win,10,right,6,guess_choice,497,f,0,0,502,225853,1819000
12,20,female,Belgian,3,108,guess,win,10,right,6,guess_outcome,0,undefined,0,0,522,224298,1820555
12,20,female,Belgian,3,108,ITC,win,10,right,6,ITC_start,413,space,0,0,522,223884,1820969
12,20,female,Belgian,3,108,ITC,win,10,right,6,ITC_choice,630,j,0,0,522,223250,1821603
12,20,female,Belgian,3,108,ITC,win,10,right,6,ITC_wait,0,undefined,0,0,522,213246,1831607
12,20,female,Belgian,3,108,ITC,win,10,right,6,ITC_collect,509,k,0,0,522,212735,1832118
12,20,female,Belgian,3,108,ITC,win,10,right,6,ITC_outcome,0,undefined,0,0,542,211731,1833122
12,20,female,Belgian,3,109,guess,loss,5,left,6,guess_start,472,space,0,0,542,211257,1833596
12,20,female,Belgian,3,109,guess,loss,5,left,6,guess_choice,525,j,0,0,542,210728,1834125
12,20,female,Belgian,3,109,guess,loss,5,left,6,guess_outcome,0,undefined,0,0,527,209171,1835682
12,20,female,Belgian,3,109,ITC,loss,5,left,6,ITC_start,463,space,0,0,527,208706,1836147
12,20,female,Belgian,3,109,ITC,loss,5,left,6,ITC_choice,725,f,0,0,527,207980,1836873
12,20,female,Belgian,3,109,ITC,loss,5,left,6,ITC_wait,0,undefined,0,0,527,202975,1841878
12,20,female,Belgian,3,109,ITC,loss,5,left,6,ITC_collect,375,k,0,0,527,202597,1842256
12,20,female,Belgian,3,109,ITC,loss,5,left,6,ITC_outcome,0,undefined,0,0,547,201591,1843262
12,20,female,Belgian,3,110,guess,loss,5,right,3,guess_start,378,space,0,0,547,201211,1843642
12,20,female,Belgian,3,110,guess,loss,5,right,3,guess_choice,427,j,0,0,547,200779,1844074
12,20,female,Belgian,3,110,guess,loss,5,right,3,guess_outcome,0,undefined,0,0,532,199222,1845631
12,20,female,Belgian,3,110,ITC,loss,5,right,3,ITC_start,546,space,0,0,532,198675,1846178
12,20,female,Belgian,3,110,ITC,loss,5,right,3,ITC_choice,584,j,0,0,532,198089,1846764
12,20,female,Belgian,3,110,ITC,loss,5,right,3,ITC_collect,432,k,0,0,532,192652,1852201
12,20,female,Belgian,3,111,guess,win,5,right,10,guess_start,363,space,0,0,552,191280,1853573
12,20,female,Belgian,3,110,ITC,loss,5,right,3,ITC_outcome,0,undefined,0,0,552,191645,1853208
12,20,female,Belgian,3,110,ITC,loss,5,right,3,ITC_wait,0,undefined,0,0,532,193086,1851767
12,20,female,Belgian,3,111,guess,win,5,right,10,guess_choice,632,f,0,0,552,190643,1854210
12,20,female,Belgian,3,111,guess,win,5,right,10,guess_outcome,0,undefined,0,0,572,189084,1855769
12,20,female,Belgian,3,111,ITC,win,5,right,10,ITC_start,408,space,0,0,572,188675,1856178
12,20,female,Belgian,3,111,ITC,win,5,right,10,ITC_choice,615,j,0,0,572,188058,1856795
12,20,female,Belgian,3,111,ITC,win,5,right,10,ITC_wait,0,undefined,0,0,572,183055,1861798
12,20,female,Belgian,3,111,ITC,win,5,right,10,ITC_collect,403,k,0,0,572,182649,1862204
12,20,female,Belgian,3,111,ITC,win,5,right,10,ITC_outcome,0,undefined,0,0,592,181642,1863211
12,20,female,Belgian,3,112,guess,loss,10,left,4,guess_start,404,space,0,0,592,181236,1863617
12,20,female,Belgian,3,112,guess,loss,10,left,4,guess_choice,420,j,0,0,592,180812,1864041
12,20,female,Belgian,3,112,guess,loss,10,left,4,guess_outcome,0,undefined,0,0,577,179254,1865599
12,20,female,Belgian,3,112,ITC,loss,10,left,4,ITC_start,389,space,0,0,577,178863,1865990
12,20,female,Belgian,3,112,ITC,loss,10,left,4,ITC_choice,657,f,0,0,577,178204,1866649
12,20,female,Belgian,3,112,ITC,loss,10,left,4,ITC_wait,0,undefined,0,0,577,168200,1876653
12,20,female,Belgian,3,112,ITC,loss,10,left,4,ITC_collect,386,k,0,0,577,167812,1877041
12,20,female,Belgian,3,112,ITC,loss,10,left,4,ITC_outcome,0,undefined,0,0,597,166805,1878048
12,20,female,Belgian,3,113,guess,neutral,5,left,6,guess_start,328,space,0,0,597,166475,1878378
12,20,female,Belgian,3,113,guess,neutral,5,left,6,guess_choice,440,j,0,0,597,166030,1878823
12,20,female,Belgian,3,113,guess,neutral,5,left,6,guess_outcome,0,undefined,0,0,597,164473,1880380
12,20,female,Belgian,3,113,ITC,neutral,5,left,6,ITC_start,403,space,0,0,597,164067,1880786
12,20,female,Belgian,3,113,ITC,neutral,5,left,6,ITC_choice,639,f,0,0,597,163426,1881427
12,20,female,Belgian,3,113,ITC,neutral,5,left,6,ITC_wait,0,undefined,0,0,597,158421,1886432
12,20,female,Belgian,3,113,ITC,neutral,5,left,6,ITC_collect,430,k,0,0,597,157988,1886865
12,20,female,Belgian,3,113,ITC,neutral,5,left,6,ITC_outcome,0,undefined,0,0,617,156985,1887868
12,20,female,Belgian,3,114,guess,loss,5,right,5,guess_start,376,space,0,0,617,156606,1888247
12,20,female,Belgian,3,114,guess,loss,5,right,5,guess_choice,448,j,0,0,617,156154,1888699
12,20,female,Belgian,3,114,guess,loss,5,right,5,guess_outcome,0,undefined,0,0,602,154599,1890254
12,20,female,Belgian,3,114,ITC,loss,5,right,5,ITC_start,356,space,0,0,602,154240,1890613
12,20,female,Belgian,3,114,ITC,loss,5,right,5,ITC_choice,751,j,0,0,602,153487,1891366
12,20,female,Belgian,3,114,ITC,loss,5,right,5,ITC_wait,0,undefined,0,0,602,148484,1896369
12,20,female,Belgian,3,114,ITC,loss,5,right,5,ITC_collect,392,k,0,0,602,148088,1896765
12,20,female,Belgian,3,114,ITC,loss,5,right,5,ITC_outcome,0,undefined,0,0,622,147082,1897771
12,20,female,Belgian,3,115,guess,win,5,right,4,guess_start,378,space,0,0,622,146702,1898151
12,20,female,Belgian,3,115,guess,win,5,right,4,guess_choice,466,j,0,0,622,146232,1898621
12,20,female,Belgian,3,115,guess,win,5,right,4,guess_outcome,0,undefined,0,0,642,144673,1900180
12,20,female,Belgian,3,115,ITC,win,5,right,4,ITC_start,510,space,0,0,642,144161,1900692
12,20,female,Belgian,3,115,ITC,win,5,right,4,ITC_choice,632,j,0,0,642,143528,1901325
12,20,female,Belgian,3,115,ITC,win,5,right,4,ITC_wait,0,undefined,0,0,642,138521,1906332
12,20,female,Belgian,3,115,ITC,win,5,right,4,ITC_collect,401,k,0,0,642,138117,1906736
12,20,female,Belgian,3,115,ITC,win,5,right,4,ITC_outcome,0,undefined,0,0,662,137110,1907743
12,20,female,Belgian,3,116,guess,neutral,10,left,4,guess_start,405,space,0,0,662,136702,1908151
12,20,female,Belgian,3,116,guess,neutral,10,left,4,guess_choice,591,f,0,0,662,136107,1908746
12,20,female,Belgian,3,116,guess,neutral,10,left,4,guess_outcome,0,undefined,0,0,662,134548,1910305
12,20,female,Belgian,3,116,ITC,neutral,10,left,4,ITC_start,457,space,0,0,662,134088,1910765
12,20,female,Belgian,3,116,ITC,neutral,10,left,4,ITC_choice,600,f,0,0,662,133487,1911366
12,20,female,Belgian,3,116,ITC,neutral,10,left,4,ITC_wait,0,undefined,0,0,662,123481,1921372
12,20,female,Belgian,3,116,ITC,neutral,10,left,4,ITC_collect,355,k,0,0,662,123122,1921731
12,20,female,Belgian,3,116,ITC,neutral,10,left,4,ITC_outcome,0,undefined,0,0,682,122118,1922735
12,20,female,Belgian,3,117,guess,win,10,left,3,guess_start,369,space,0,0,682,121746,1923107
12,20,female,Belgian,3,117,guess,win,10,left,3,guess_choice,526,j,0,0,682,121217,1923636
12,20,female,Belgian,3,117,guess,win,10,left,3,guess_outcome,0,undefined,0,0,702,119663,1925190
12,20,female,Belgian,3,117,ITC,win,10,left,3,ITC_start,477,space,0,0,702,119183,1925670
12,20,female,Belgian,3,117,ITC,win,10,left,3,ITC_choice,902,f,0,0,702,118278,1926575
12,20,female,Belgian,3,117,ITC,win,10,left,3,ITC_wait,0,undefined,0,0,702,108271,1936582
12,20,female,Belgian,3,117,ITC,win,10,left,3,ITC_collect,415,k,0,0,702,107853,1937000
12,20,female,Belgian,3,117,ITC,win,10,left,3,ITC_outcome,0,undefined,0,0,722,106846,1938007
12,20,female,Belgian,3,118,guess,neutral,5,left,4,guess_start,381,space,0,0,722,106461,1938392
12,20,female,Belgian,3,118,guess,neutral,5,left,4,guess_choice,428,j,0,0,722,106029,1938824
12,20,female,Belgian,3,118,guess,neutral,5,left,4,guess_outcome,0,undefined,0,0,722,104471,1940382
12,20,female,Belgian,3,118,ITC,neutral,5,left,4,ITC_start,455,space,0,0,722,104014,1940839
12,20,female,Belgian,3,118,ITC,neutral,5,left,4,ITC_choice,554,f,0,0,722,103458,1941395
12,20,female,Belgian,3,118,ITC,neutral,5,left,4,ITC_wait,0,undefined,0,0,722,98453,1946400
12,20,female,Belgian,3,118,ITC,neutral,5,left,4,ITC_collect,533,k,0,0,722,97917,1946936
12,20,female,Belgian,3,118,ITC,neutral,5,left,4,ITC_outcome,0,undefined,0,0,742,96910,1947943
12,20,female,Belgian,3,119,guess,neutral,5,left,12,guess_start,579,space,0,0,742,96329,1948524
12,20,female,Belgian,3,119,guess,neutral,5,left,12,guess_choice,595,f,0,0,742,95729,1949124
12,20,female,Belgian,3,119,guess,neutral,5,left,12,guess_outcome,0,undefined,0,0,742,94171,1950682
12,20,female,Belgian,3,119,ITC,neutral,5,left,12,ITC_start,793,space,0,0,742,93376,1951477
12,20,female,Belgian,3,119,ITC,neutral,5,left,12,ITC_choice,719,f,0,0,742,92655,1952198
12,20,female,Belgian,3,119,ITC,neutral,5,left,12,ITC_wait,0,undefined,0,0,742,87649,1957204
12,20,female,Belgian,3,119,ITC,neutral,5,left,12,ITC_collect,378,k,0,0,742,87268,1957585
12,20,female,Belgian,3,119,ITC,neutral,5,left,12,ITC_outcome,0,undefined,0,0,762,86261,1958592
12,20,female,Belgian,3,120,guess,win,10,left,4,guess_start,472,space,0,0,762,85786,1959067
12,20,female,Belgian,3,120,guess,win,10,left,4,guess_choice,693,f,0,0,762,85088,1959765
12,20,female,Belgian,3,120,guess,win,10,left,4,guess_outcome,0,undefined,0,0,782,83531,1961322
12,20,female,Belgian,3,120,ITC,win,10,left,4,ITC_start,514,space,0,0,782,83015,1961838
12,20,female,Belgian,3,120,ITC,win,10,left,4,ITC_choice,669,f,0,0,782,82343,1962510
12,20,female,Belgian,3,120,ITC,win,10,left,4,ITC_wait,0,undefined,0,0,782,72340,1972513
12,20,female,Belgian,3,120,ITC,win,10,left,4,ITC_collect,344,k,0,0,782,71992,1972861
12,20,female,Belgian,3,120,ITC,win,10,left,4,ITC_outcome,0,undefined,0,0,802,70986,1973867
12,20,female,Belgian,3,121,guess,loss,5,right,14,guess_start,271,space,0,0,802,70713,1974140
12,20,female,Belgian,3,121,guess,loss,5,right,14,guess_choice,494,j,0,0,802,70215,1974638
12,20,female,Belgian,3,121,guess,loss,5,right,14,guess_outcome,0,undefined,0,0,787,68658,1976195
12,20,female,Belgian,3,121,ITC,loss,5,right,14,ITC_start,389,space,0,0,787,68267,1976586
12,20,female,Belgian,3,121,ITC,loss,5,right,14,ITC_choice,893,f,0,0,787,67372,1977481
12,20,female,Belgian,3,121,ITC,loss,5,right,14,ITC_wait,0,undefined,0,0,787,67369,1977484
12,20,female,Belgian,3,121,ITC,loss,5,right,14,ITC_collect,1035,k,0,0,787,66332,1978521
12,20,female,Belgian,3,121,ITC,loss,5,right,14,ITC_outcome,0,undefined,0,0,801,65325,1979528
12,20,female,Belgian,3,122,guess,neutral,5,left,2,guess_start,351,space,0,0,801,64971,1979882
12,20,female,Belgian,3,122,guess,neutral,5,left,2,guess_choice,522,f,0,0,801,64446,1980407
12,20,female,Belgian,3,122,guess,neutral,5,left,2,guess_outcome,0,undefined,0,0,801,62889,1981964
12,20,female,Belgian,3,122,ITC,neutral,5,left,2,ITC_start,412,space,0,0,801,62474,1982379
12,20,female,Belgian,3,122,ITC,neutral,5,left,2,ITC_choice,866,f,0,0,801,61606,1983247
12,20,female,Belgian,3,122,ITC,neutral,5,left,2,ITC_wait,0,undefined,0,0,801,56603,1988250
12,20,female,Belgian,3,122,ITC,neutral,5,left,2,ITC_collect,428,k,0,0,801,56174,1988679
12,20,female,Belgian,3,122,ITC,neutral,5,left,2,ITC_outcome,0,undefined,0,0,821,55167,1989686
12,20,female,Belgian,3,123,guess,loss,10,left,2,guess_start,377,space,0,0,821,54788,1990065
12,20,female,Belgian,3,123,guess,loss,10,left,2,guess_choice,519,f,0,0,821,54264,1990589
12,20,female,Belgian,3,123,guess,loss,10,left,2,guess_outcome,0,undefined,0,0,806,52709,1992144
12,20,female,Belgian,3,123,ITC,loss,10,left,2,ITC_start,415,space,0,0,806,52291,1992562
12,20,female,Belgian,3,123,ITC,loss,10,left,2,ITC_choice,638,f,0,0,806,51651,1993202
12,20,female,Belgian,3,123,ITC,loss,10,left,2,ITC_wait,0,undefined,0,0,806,41644,2003209
12,20,female,Belgian,3,123,ITC,loss,10,left,2,ITC_collect,386,k,0,0,806,41256,2003597
12,20,female,Belgian,3,123,ITC,loss,10,left,2,ITC_outcome,0,undefined,0,0,826,40250,2004603
12,20,female,Belgian,3,124,guess,win,5,right,9,guess_start,756,space,0,0,826,39491,2005362
12,20,female,Belgian,3,124,guess,win,5,right,9,guess_choice,514,j,0,0,826,38973,2005880
12,20,female,Belgian,3,124,guess,win,5,right,9,guess_outcome,0,undefined,0,0,846,37416,2007437
12,20,female,Belgian,3,124,ITC,win,5,right,9,ITC_start,797,space,0,0,846,36616,2008237
12,20,female,Belgian,3,124,ITC,win,5,right,9,ITC_choice,840,f,0,0,846,35773,2009080
12,20,female,Belgian,3,124,ITC,win,5,right,9,ITC_wait,0,undefined,0,0,846,35770,2009083
12,20,female,Belgian,3,124,ITC,win,5,right,9,ITC_collect,807,k,0,0,846,34961,2009892
12,20,female,Belgian,3,124,ITC,win,5,right,9,ITC_outcome,0,undefined,0,0,855,33956,2010897
12,20,female,Belgian,3,125,guess,win,5,left,13,guess_start,324,space,0,0,855,33629,2011224
12,20,female,Belgian,3,125,guess,win,5,left,13,guess_choice,556,j,0,0,855,33069,2011784
12,20,female,Belgian,3,125,guess,win,5,left,13,guess_outcome,0,undefined,0,0,875,31513,2013340
12,20,female,Belgian,3,125,ITC,win,5,left,13,ITC_start,343,space,0,0,875,31167,2013686
12,20,female,Belgian,3,125,ITC,win,5,left,13,ITC_choice,782,j,0,0,875,30383,2014470
12,20,female,Belgian,3,125,ITC,win,5,left,13,ITC_wait,0,undefined,0,0,875,30379,2014474
12,20,female,Belgian,3,125,ITC,win,5,left,13,ITC_collect,406,k,0,0,875,29972,2014881
12,20,female,Belgian,3,125,ITC,win,5,left,13,ITC_outcome,0,undefined,0,0,888,28968,2015885
12,20,female,Belgian,3,126,guess,neutral,5,right,11,guess_start,447,space,0,0,888,28519,2016334
12,20,female,Belgian,3,126,guess,neutral,5,right,11,guess_choice,655,j,0,0,888,27861,2016992
12,20,female,Belgian,3,126,guess,neutral,5,right,11,guess_outcome,0,undefined,0,0,888,26302,2018551
12,20,female,Belgian,3,126,ITC,neutral,5,right,11,ITC_start,414,space,0,0,888,25886,2018967
12,20,female,Belgian,3,126,ITC,neutral,5,right,11,ITC_choice,787,f,0,0,888,25096,2019757
12,20,female,Belgian,3,126,ITC,neutral,5,right,11,ITC_wait,0,undefined,0,0,888,25093,2019760
12,20,female,Belgian,3,126,ITC,neutral,5,right,11,ITC_collect,352,k,0,0,888,24738,2020115
12,20,female,Belgian,3,126,ITC,neutral,5,right,11,ITC_outcome,0,undefined,0,0,899,23732,2021121
12,20,female,Belgian,3,127,guess,neutral,5,right,7,guess_start,375,space,0,0,899,23354,2021499
12,20,female,Belgian,3,127,guess,neutral,5,right,7,guess_choice,713,f,0,0,899,22638,2022215
12,20,female,Belgian,3,127,guess,neutral,5,right,7,guess_outcome,0,undefined,0,0,899,21083,2023770
12,20,female,Belgian,3,127,ITC,neutral,5,right,7,ITC_start,405,space,0,0,899,20676,2024177
12,20,female,Belgian,3,127,ITC,neutral,5,right,7,ITC_choice,672,j,0,0,899,20002,2024851
12,20,female,Belgian,3,127,ITC,neutral,5,right,7,ITC_wait,0,undefined,0,0,899,14995,2029858
12,20,female,Belgian,3,127,ITC,neutral,5,right,7,ITC_collect,341,k,0,0,899,14652,2030201
12,20,female,Belgian,3,127,ITC,neutral,5,right,7,ITC_outcome,0,undefined,0,0,919,13646,2031207
12,20,female,Belgian,3,128,guess,win,5,right,3,guess_start,393,space,0,0,919,13250,2031603
12,20,female,Belgian,3,128,guess,win,5,right,3,guess_choice,476,j,0,0,919,12770,2032083
12,20,female,Belgian,3,128,guess,win,5,right,3,guess_outcome,0,undefined,0,0,939,11215,2033638
12,20,female,Belgian,3,128,ITC,win,5,right,3,ITC_start,566,space,0,0,939,10646,2034207
12,20,female,Belgian,3,128,ITC,win,5,right,3,ITC_choice,990,j,0,0,939,9654,2035199
12,20,female,Belgian,3,128,ITC,win,5,right,3,ITC_wait,0,undefined,0,0,939,4646,2040207
12,20,female,Belgian,3,128,ITC,win,5,right,3,ITC_collect,365,k,0,0,939,4279,2040574
12,20,female,Belgian,3,128,ITC,win,5,right,3,ITC_outcome,0,undefined,0,0,959,3271,2041582
12,20,female,Belgian,3,129,guess,neutral,10,left,5,guess_start,397,space,0,0,959,2872,2041981
12,20,female,Belgian,3,129,guess,neutral,10,left,5,guess_choice,495,j,0,0,959,2373,2042480
12,20,female,Belgian,3,129,guess,neutral,10,left,5,guess_outcome,0,undefined,0,0,959,816,2044037
12,20,female,Belgian,3,129,ITC,neutral,10,left,5,ITC_start,474,space,0,0,959,340,2044513
12,20,female,Belgian,3,129,ITC,neutral,10,left,5,ITC_choice,0,undefined,0,0,959,-5,2044858
12,20,female,Belgian,4,130,guess,loss,5,left,1,guess_start,681,space,0,0,0,479318,2323065
12,20,female,Belgian,4,130,guess,loss,5,left,1,guess_choice,602,j,0,0,0,478712,2323671
12,20,female,Belgian,4,130,guess,loss,5,left,1,guess_outcome,0,undefined,0,0,-15,477155,2325228
12,20,female,Belgian,4,130,ITC,loss,5,left,1,ITC_start,583,space,0,0,-15,476568,2325815
12,20,female,Belgian,4,130,ITC,loss,5,left,1,ITC_choice,703,f,0,0,-15,475863,2326520
12,20,female,Belgian,4,130,ITC,loss,5,left,1,ITC_wait,0,undefined,0,0,-15,470858,2331525
12,20,female,Belgian,4,130,ITC,loss,5,left,1,ITC_collect,459,k,0,0,-15,470397,2331986
12,20,female,Belgian,4,130,ITC,loss,5,left,1,ITC_outcome,0,undefined,0,0,5,469393,2332990
12,20,female,Belgian,4,131,guess,win,5,right,1,guess_start,703,space,0,0,5,468687,2333696
12,20,female,Belgian,4,131,guess,win,5,right,1,guess_choice,542,j,0,0,5,468141,2334242
12,20,female,Belgian,4,131,guess,win,5,right,1,guess_outcome,0,undefined,0,0,25,466587,2335796
12,20,female,Belgian,4,131,ITC,win,5,right,1,ITC_start,594,space,0,0,25,465990,2336393
12,20,female,Belgian,4,131,ITC,win,5,right,1,ITC_choice,675,j,0,0,25,465312,2337071
12,20,female,Belgian,4,131,ITC,win,5,right,1,ITC_wait,0,undefined,0,0,25,460310,2342073
12,20,female,Belgian,4,131,ITC,win,5,right,1,ITC_collect,760,k,0,0,25,459548,2342835
12,20,female,Belgian,4,131,ITC,win,5,right,1,ITC_outcome,0,undefined,0,0,45,458544,2343839
12,20,female,Belgian,4,132,guess,win,10,left,5,guess_start,478,space,0,0,45,458063,2344320
12,20,female,Belgian,4,132,guess,win,10,left,5,guess_choice,489,j,0,0,45,457570,2344813
12,20,female,Belgian,4,132,guess,win,10,left,5,guess_outcome,0,undefined,0,0,65,456013,2346370
12,20,female,Belgian,4,132,ITC,win,10,left,5,ITC_start,783,space,0,0,65,455228,2347155
12,20,female,Belgian,4,132,ITC,win,10,left,5,ITC_choice,589,f,0,0,65,454636,2347747
12,20,female,Belgian,4,132,ITC,win,10,left,5,ITC_wait,0,undefined,0,0,65,444629,2357754
12,20,female,Belgian,4,132,ITC,win,10,left,5,ITC_collect,658,k,0,0,65,443969,2358414
12,20,female,Belgian,4,132,ITC,win,10,left,5,ITC_outcome,0,undefined,0,0,85,442962,2359421
12,20,female,Belgian,4,133,guess,win,5,left,16,guess_start,479,space,0,0,85,442479,2359904
12,20,female,Belgian,4,133,guess,win,5,left,16,guess_choice,507,j,0,0,85,441969,2360414
12,20,female,Belgian,4,133,guess,win,5,left,16,guess_outcome,0,undefined,0,0,105,440410,2361973
12,20,female,Belgian,4,133,ITC,win,5,left,16,ITC_start,651,space,0,0,105,439757,2362626
12,20,female,Belgian,4,133,ITC,win,5,left,16,ITC_choice,830,j,0,0,105,438926,2363457
12,20,female,Belgian,4,133,ITC,win,5,left,16,ITC_wait,0,undefined,0,0,105,438922,2363461
12,20,female,Belgian,4,133,ITC,win,5,left,16,ITC_collect,608,k,0,0,105,438313,2364070
12,20,female,Belgian,4,133,ITC,win,5,left,16,ITC_outcome,0,undefined,0,0,121,437306,2365077
12,20,female,Belgian,4,134,guess,neutral,5,right,10,guess_start,459,space,0,0,121,436843,2365540
12,20,female,Belgian,4,134,guess,neutral,5,right,10,guess_choice,627,f,0,0,121,436212,2366171
12,20,female,Belgian,4,134,guess,neutral,5,right,10,guess_outcome,0,undefined,0,0,121,434658,2367725
12,20,female,Belgian,4,134,ITC,neutral,5,right,10,ITC_start,363,space,0,0,121,434293,2368090
12,20,female,Belgian,4,134,ITC,neutral,5,right,10,ITC_choice,865,f,0,0,121,433427,2368956
12,20,female,Belgian,4,134,ITC,neutral,5,right,10,ITC_wait,0,undefined,0,0,121,433424,2368959
12,20,female,Belgian,4,134,ITC,neutral,5,right,10,ITC_collect,372,k,0,0,121,433050,2369333
12,20,female,Belgian,4,134,ITC,neutral,5,right,10,ITC_outcome,0,undefined,0,0,131,432042,2370341
12,20,female,Belgian,4,135,guess,loss,10,right,3,guess_start,269,space,0,0,131,431770,2370613
12,20,female,Belgian,4,135,guess,loss,10,right,3,guess_choice,620,j,0,0,131,431146,2371237
12,20,female,Belgian,4,135,guess,loss,10,right,3,guess_outcome,0,undefined,0,0,116,429588,2372795
12,20,female,Belgian,4,135,ITC,loss,10,right,3,ITC_start,300,space,0,0,116,429287,2373096
12,20,female,Belgian,4,135,ITC,loss,10,right,3,ITC_choice,659,j,0,0,116,428626,2373757
12,20,female,Belgian,4,135,ITC,loss,10,right,3,ITC_wait,0,undefined,0,0,116,418619,2383764
12,20,female,Belgian,4,135,ITC,loss,10,right,3,ITC_collect,369,k,0,0,116,418247,2384136
12,20,female,Belgian,4,135,ITC,loss,10,right,3,ITC_outcome,0,undefined,0,0,136,417242,2385141
12,20,female,Belgian,4,136,guess,win,5,right,5,guess_start,367,space,0,0,136,416873,2385510
12,20,female,Belgian,4,136,guess,win,5,right,5,guess_choice,471,j,0,0,136,416397,2385986
12,20,female,Belgian,4,136,guess,win,5,right,5,guess_outcome,0,undefined,0,0,156,414839,2387544
12,20,female,Belgian,4,136,ITC,win,5,right,5,ITC_start,417,space,0,0,156,414419,2387964
12,20,female,Belgian,4,136,ITC,win,5,right,5,ITC_choice,818,j,0,0,156,413599,2388784
12,20,female,Belgian,4,136,ITC,win,5,right,5,ITC_wait,0,undefined,0,0,156,408596,2393787
12,20,female,Belgian,4,136,ITC,win,5,right,5,ITC_collect,502,k,0,0,156,408092,2394291
12,20,female,Belgian,4,136,ITC,win,5,right,5,ITC_outcome,0,undefined,0,0,176,407087,2395296
12,20,female,Belgian,4,137,guess,loss,10,right,7,guess_start,449,space,0,0,176,406635,2395748
12,20,female,Belgian,4,137,guess,loss,10,right,7,guess_choice,422,j,0,0,176,406209,2396174
12,20,female,Belgian,4,137,guess,loss,10,right,7,guess_outcome,0,undefined,0,0,161,404651,2397732
12,20,female,Belgian,4,137,ITC,loss,10,right,7,ITC_start,394,space,0,0,161,404254,2398129
12,20,female,Belgian,4,137,ITC,loss,10,right,7,ITC_choice,675,j,0,0,161,403577,2398806
12,20,female,Belgian,4,137,ITC,loss,10,right,7,ITC_wait,0,undefined,0,0,161,393573,2408810
12,20,female,Belgian,4,137,ITC,loss,10,right,7,ITC_collect,370,k,0,0,161,393201,2409182
12,20,female,Belgian,4,137,ITC,loss,10,right,7,ITC_outcome,0,undefined,0,0,181,392194,2410189
12,20,female,Belgian,4,138,guess,neutral,10,left,7,guess_start,313,space,0,0,181,391878,2410505
12,20,female,Belgian,4,138,guess,neutral,10,left,7,guess_choice,452,j,0,0,181,391422,2410961
12,20,female,Belgian,4,138,guess,neutral,10,left,7,guess_outcome,0,undefined,0,0,181,389863,2412520
12,20,female,Belgian,4,138,ITC,neutral,10,left,7,ITC_start,504,space,0,0,181,389357,2413026
12,20,female,Belgian,4,138,ITC,neutral,10,left,7,ITC_choice,720,f,0,0,181,388634,2413749
12,20,female,Belgian,4,138,ITC,neutral,10,left,7,ITC_wait,0,undefined,0,0,181,378627,2423756
12,20,female,Belgian,4,138,ITC,neutral,10,left,7,ITC_collect,413,k,0,0,181,378212,2424171
12,20,female,Belgian,4,138,ITC,neutral,10,left,7,ITC_outcome,0,undefined,0,0,201,377204,2425179
12,20,female,Belgian,4,139,guess,win,5,left,12,guess_start,363,space,0,0,201,376838,2425545
12,20,female,Belgian,4,139,guess,win,5,left,12,guess_choice,410,j,0,0,201,376424,2425959
12,20,female,Belgian,4,139,guess,win,5,left,12,guess_outcome,0,undefined,0,0,221,374865,2427518
12,20,female,Belgian,4,139,ITC,win,5,left,12,ITC_start,627,space,0,0,221,374236,2428147
12,20,female,Belgian,4,139,ITC,win,5,left,12,ITC_choice,708,f,0,0,221,373526,2428857
12,20,female,Belgian,4,139,ITC,win,5,left,12,ITC_wait,0,undefined,0,0,221,368524,2433859
12,20,female,Belgian,4,139,ITC,win,5,left,12,ITC_collect,417,k,0,0,221,368104,2434279
12,20,female,Belgian,4,139,ITC,win,5,left,12,ITC_outcome,0,undefined,0,0,241,367098,2435285
12,20,female,Belgian,4,140,guess,neutral,5,right,15,guess_start,332,space,0,0,241,366764,2435619
12,20,female,Belgian,4,140,guess,neutral,5,right,15,guess_choice,628,f,0,0,241,366132,2436251
12,20,female,Belgian,4,140,guess,neutral,5,right,15,guess_outcome,0,undefined,0,0,241,364578,2437805
12,20,female,Belgian,4,140,ITC,neutral,5,right,15,ITC_start,287,space,0,0,241,364289,2438094
12,20,female,Belgian,4,140,ITC,neutral,5,right,15,ITC_choice,580,f,0,0,241,363707,2438676
12,20,female,Belgian,4,140,ITC,neutral,5,right,15,ITC_wait,0,undefined,0,0,241,363703,2438680
12,20,female,Belgian,4,140,ITC,neutral,5,right,15,ITC_collect,399,k,0,0,241,363302,2439081
