subjectID,age,gender,nationality,block_number,trial_number,trial_type,guess_outcome,delay_time,delay_pos,immediate_amount,stage,respRT,respKey,blur_count,focus_count,total_points,remaining_duration,time_elapsed
37,18,female,Belgium,1,1,guess,win,5,right,16,guess_start,2032,space,0,0,0,477966,255823
37,18,female,Belgium,1,1,guess,win,5,right,16,guess_choice,1764,j,0,0,0,476199,257590
37,18,female,Belgium,1,1,guess,win,5,right,16,guess_outcome,0,undefined,0,0,20,474640,259149
37,18,female,Belgium,1,1,ITC,win,5,right,16,ITC_start,2745,space,0,0,20,471893,261896
37,18,female,Belgium,1,1,ITC,win,5,right,16,ITC_choice,3310,f,0,0,20,468581,265208
37,18,female,Belgium,1,1,ITC,win,5,right,16,ITC_wait,0,undefined,0,0,20,468579,265210
37,18,female,Belgium,1,1,ITC,win,5,right,16,ITC_collect,1724,k,0,0,20,466853,266936
37,18,female,Belgium,1,1,ITC,win,5,right,16,ITC_outcome,0,undefined,0,0,36,465846,267943
37,18,female,Belgium,1,2,guess,neutral,10,right,6,guess_start,1302,space,0,0,36,464541,269248
37,18,female,Belgium,1,2,guess,neutral,10,right,6,guess_choice,1460,f,0,0,36,463077,270712
37,18,female,Belgium,1,2,guess,neutral,10,right,6,guess_outcome,0,undefined,0,0,36,461523,272266
37,18,female,Belgium,1,2,ITC,neutral,10,right,6,ITC_start,1044,space,0,0,36,460477,273312
37,18,female,Belgium,1,2,ITC,neutral,10,right,6,ITC_choice,2799,j,0,0,36,457677,276112
37,18,female,Belgium,1,2,ITC,neutral,10,right,6,ITC_wait,0,undefined,0,0,36,447670,286119
37,18,female,Belgium,1,2,ITC,neutral,10,right,6,ITC_collect,1983,k,0,0,36,445686,288103
37,18,female,Belgium,1,2,ITC,neutral,10,right,6,ITC_outcome,0,undefined,0,0,56,444680,289109
37,18,female,Belgium,1,3,guess,win,5,left,5,guess_start,1288,space,0,0,56,443389,290400
37,18,female,Belgium,1,3,guess,win,5,left,5,guess_choice,1669,f,0,0,56,441717,292072
37,18,female,Belgium,1,3,guess,win,5,left,5,guess_outcome,0,undefined,0,0,76,440162,293627
37,18,female,Belgium,1,3,ITC,win,5,left,5,ITC_start,1347,space,0,0,76,438813,294976
37,18,female,Belgium,1,3,ITC,win,5,left,5,ITC_choice,1664,f,0,0,76,437148,296641
37,18,female,Belgium,1,3,ITC,win,5,left,5,ITC_wait,0,undefined,0,0,76,432143,301646
37,18,female,Belgium,1,3,ITC,win,5,left,5,ITC_collect,526,k,0,0,76,431615,302174
37,18,female,Belgium,1,3,ITC,win,5,left,5,ITC_outcome,0,undefined,0,0,96,430609,303180
37,18,female,Belgium,1,4,guess,loss,5,left,2,guess_start,808,space,0,0,96,429800,303989
37,18,female,Belgium,1,4,guess,loss,5,left,2,guess_choice,1333,f,0,0,96,428463,305326
37,18,female,Belgium,1,4,guess,loss,5,left,2,guess_outcome,0,undefined,0,0,81,426907,306882
37,18,female,Belgium,1,4,ITC,loss,5,left,2,ITC_start,850,space,0,0,81,426055,307734
37,18,female,Belgium,1,4,ITC,loss,5,left,2,ITC_choice,2103,f,0,0,81,423951,309838
37,18,female,Belgium,1,4,ITC,loss,5,left,2,ITC_wait,0,undefined,0,0,81,418944,314845
37,18,female,Belgium,1,4,ITC,loss,5,left,2,ITC_collect,1243,k,0,0,81,417700,316089
37,18,female,Belgium,1,4,ITC,loss,5,left,2,ITC_outcome,0,undefined,0,0,101,416696,317093
37,18,female,Belgium,1,5,guess,win,5,left,13,guess_start,930,space,0,0,101,415764,318025
37,18,female,Belgium,1,5,guess,win,5,left,13,guess_choice,2325,j,0,0,101,413436,320353
37,18,female,Belgium,1,5,guess,win,5,left,13,guess_outcome,0,undefined,0,0,121,411882,321907
37,18,female,Belgium,1,5,ITC,win,5,left,13,ITC_start,1221,space,0,0,121,410659,323130
37,18,female,Belgium,1,5,ITC,win,5,left,13,ITC_choice,2446,j,0,0,121,408212,325577
37,18,female,Belgium,1,5,ITC,win,5,left,13,ITC_wait,0,undefined,0,0,121,408209,325580
37,18,female,Belgium,1,5,ITC,win,5,left,13,ITC_collect,1597,k,0,0,121,406611,327178
37,18,female,Belgium,1,5,ITC,win,5,left,13,ITC_outcome,0,undefined,0,0,134,405604,328185
37,18,female,Belgium,1,6,guess,neutral,10,right,5,guess_start,871,space,0,0,134,404732,329057
37,18,female,Belgium,1,6,guess,neutral,10,right,5,guess_choice,1365,j,0,0,134,403363,330426
37,18,female,Belgium,1,6,guess,neutral,10,right,5,guess_outcome,0,undefined,0,0,134,401808,331981
37,18,female,Belgium,1,6,ITC,neutral,10,right,5,ITC_start,635,space,0,0,134,401171,332618
37,18,female,Belgium,1,6,ITC,neutral,10,right,5,ITC_choice,2182,f,0,0,134,398987,334802
37,18,female,Belgium,1,6,ITC,neutral,10,right,5,ITC_wait,0,undefined,0,0,134,398985,334804
37,18,female,Belgium,1,6,ITC,neutral,10,right,5,ITC_collect,1084,k,0,0,134,397899,335890
37,18,female,Belgium,1,6,ITC,neutral,10,right,5,ITC_outcome,0,undefined,0,0,139,396893,336896
37,18,female,Belgium,1,7,guess,loss,10,right,3,guess_start,552,space,0,0,139,396339,337450
37,18,female,Belgium,1,7,guess,loss,10,right,3,guess_choice,1045,f,0,0,139,395291,338498
37,18,female,Belgium,1,7,guess,loss,10,right,3,guess_outcome,0,undefined,0,0,124,393734,340055
37,18,female,Belgium,1,7,ITC,loss,10,right,3,ITC_start,593,space,0,0,124,393139,340650
37,18,female,Belgium,1,7,ITC,loss,10,right,3,ITC_choice,2480,j,0,0,124,390658,343131
37,18,female,Belgium,1,7,ITC,loss,10,right,3,ITC_wait,0,undefined,0,0,124,380654,353135
37,18,female,Belgium,1,7,ITC,loss,10,right,3,ITC_collect,546,k,0,0,124,380106,353683
37,18,female,Belgium,1,7,ITC,loss,10,right,3,ITC_outcome,0,undefined,0,0,144,379103,354686
37,18,female,Belgium,1,8,guess,win,5,left,14,guess_start,650,space,0,0,144,378451,355338
37,18,female,Belgium,1,8,guess,win,5,left,14,guess_choice,1230,f,0,0,144,377218,356571
37,18,female,Belgium,1,8,guess,win,5,left,14,guess_outcome,0,undefined,0,0,164,375665,358124
37,18,female,Belgium,1,8,ITC,win,5,left,14,ITC_start,837,space,0,0,164,374827,358962
37,18,female,Belgium,1,8,ITC,win,5,left,14,ITC_choice,1191,f,0,0,164,373635,360154
37,18,female,Belgium,1,8,ITC,win,5,left,14,ITC_wait,0,undefined,0,0,164,368632,365157
37,18,female,Belgium,1,8,ITC,win,5,left,14,ITC_collect,386,k,0,0,164,368245,365544
37,18,female,Belgium,1,8,ITC,win,5,left,14,ITC_outcome,0,undefined,0,0,184,367240,366549
37,18,female,Belgium,1,9,guess,loss,10,right,4,guess_start,706,space,0,0,184,366532,367257
37,18,female,Belgium,1,9,guess,loss,10,right,4,guess_choice,869,j,0,0,184,365661,368128
37,18,female,Belgium,1,9,guess,loss,10,right,4,guess_outcome,0,undefined,0,0,169,364108,369681
37,18,female,Belgium,1,9,ITC,loss,10,right,4,ITC_start,1006,space,0,0,169,363101,370688
37,18,female,Belgium,1,9,ITC,loss,10,right,4,ITC_choice,2006,f,0,0,169,361093,372696
37,18,female,Belgium,1,9,ITC,loss,10,right,4,ITC_wait,0,undefined,0,0,169,361091,372698
37,18,female,Belgium,1,9,ITC,loss,10,right,4,ITC_collect,1052,k,0,0,169,360037,373752
37,18,female,Belgium,1,9,ITC,loss,10,right,4,ITC_outcome,0,undefined,0,0,173,359032,374757
37,18,female,Belgium,1,10,guess,loss,5,left,5,guess_start,601,space,0,0,173,358429,375360
37,18,female,Belgium,1,10,guess,loss,5,left,5,guess_choice,909,j,0,0,173,357517,376272
37,18,female,Belgium,1,10,guess,loss,5,left,5,guess_outcome,0,undefined,0,0,158,355960,377829
37,18,female,Belgium,1,10,ITC,loss,5,left,5,ITC_start,674,space,0,0,158,355285,378504
37,18,female,Belgium,1,10,ITC,loss,5,left,5,ITC_choice,1103,f,0,0,158,354181,379608
37,18,female,Belgium,1,10,ITC,loss,5,left,5,ITC_wait,0,undefined,0,0,158,349175,384614
37,18,female,Belgium,1,10,ITC,loss,5,left,5,ITC_collect,785,k,0,0,158,348388,385401
37,18,female,Belgium,1,10,ITC,loss,5,left,5,ITC_outcome,0,undefined,0,0,178,347383,386406
37,18,female,Belgium,1,11,guess,loss,5,left,11,guess_start,808,space,0,0,178,346573,387216
37,18,female,Belgium,1,11,guess,loss,5,left,11,guess_choice,1149,j,0,0,178,345421,388368
37,18,female,Belgium,1,11,guess,loss,5,left,11,guess_outcome,0,undefined,0,0,163,343863,389926
37,18,female,Belgium,1,11,ITC,loss,5,left,11,ITC_start,632,space,0,0,163,343230,390559
37,18,female,Belgium,1,11,ITC,loss,5,left,11,ITC_choice,1944,f,0,0,163,341285,392504
37,18,female,Belgium,1,11,ITC,loss,5,left,11,ITC_wait,0,undefined,0,0,163,336280,397509
37,18,female,Belgium,1,11,ITC,loss,5,left,11,ITC_collect,355,k,0,0,163,335924,397865
37,18,female,Belgium,1,11,ITC,loss,5,left,11,ITC_outcome,0,undefined,0,0,183,334919,398870
37,18,female,Belgium,1,12,guess,loss,5,right,9,guess_start,503,space,0,0,183,334412,399377
37,18,female,Belgium,1,12,guess,loss,5,right,9,guess_choice,1078,j,0,0,183,333332,400457
37,18,female,Belgium,1,12,guess,loss,5,right,9,guess_outcome,0,undefined,0,0,168,331776,402013
37,18,female,Belgium,1,12,ITC,loss,5,right,9,ITC_start,1042,space,0,0,168,330732,403057
37,18,female,Belgium,1,12,ITC,loss,5,right,9,ITC_choice,2247,f,0,0,168,328484,405305
37,18,female,Belgium,1,12,ITC,loss,5,right,9,ITC_wait,0,undefined,0,0,168,328481,405308
37,18,female,Belgium,1,12,ITC,loss,5,right,9,ITC_collect,908,k,0,0,168,327572,406217
37,18,female,Belgium,1,12,ITC,loss,5,right,9,ITC_outcome,0,undefined,0,0,177,326570,407219
37,18,female,Belgium,1,13,guess,win,10,left,1,guess_start,636,space,0,0,177,325932,407857
37,18,female,Belgium,1,13,guess,win,10,left,1,guess_choice,478,f,0,0,177,325452,408337
37,18,female,Belgium,1,13,guess,win,10,left,1,guess_outcome,0,undefined,0,0,197,323896,409893
37,18,female,Belgium,1,13,ITC,win,10,left,1,ITC_start,835,space,0,0,197,323060,410729
37,18,female,Belgium,1,13,ITC,win,10,left,1,ITC_choice,1679,f,0,0,197,321379,412410
37,18,female,Belgium,1,13,ITC,win,10,left,1,ITC_wait,0,undefined,0,0,197,311378,422411
37,18,female,Belgium,1,13,ITC,win,10,left,1,ITC_collect,453,k,0,0,197,310923,422866
37,18,female,Belgium,1,13,ITC,win,10,left,1,ITC_outcome,0,undefined,0,0,217,309916,423873
37,18,female,Belgium,1,14,guess,loss,5,left,8,guess_start,735,space,0,0,217,309180,424609
37,18,female,Belgium,1,14,guess,loss,5,left,8,guess_choice,1125,f,0,0,217,308051,425738
37,18,female,Belgium,1,14,guess,loss,5,left,8,guess_outcome,0,undefined,0,0,202,306498,427291
37,18,female,Belgium,1,14,ITC,loss,5,left,8,ITC_start,478,space,0,0,202,306019,427770
37,18,female,Belgium,1,14,ITC,loss,5,left,8,ITC_choice,1438,f,0,0,202,304579,429210
37,18,female,Belgium,1,14,ITC,loss,5,left,8,ITC_wait,0,undefined,0,0,202,299577,434212
37,18,female,Belgium,1,14,ITC,loss,5,left,8,ITC_collect,541,k,0,0,202,299035,434754
37,18,female,Belgium,1,14,ITC,loss,5,left,8,ITC_outcome,0,undefined,0,0,222,298031,435758
37,18,female,Belgium,1,15,guess,neutral,10,right,3,guess_start,650,space,0,0,222,297379,436410
37,18,female,Belgium,1,15,guess,neutral,10,right,3,guess_choice,1453,f,0,0,222,295923,437866
37,18,female,Belgium,1,15,guess,neutral,10,right,3,guess_outcome,0,undefined,0,0,222,294367,439422
37,18,female,Belgium,1,15,ITC,neutral,10,right,3,ITC_start,443,space,0,0,222,293923,439866
37,18,female,Belgium,1,15,ITC,neutral,10,right,3,ITC_choice,2614,j,0,0,222,291308,442481
37,18,female,Belgium,1,15,ITC,neutral,10,right,3,ITC_wait,0,undefined,0,0,222,281307,452482
37,18,female,Belgium,1,15,ITC,neutral,10,right,3,ITC_collect,503,k,0,0,222,280802,452987
37,18,female,Belgium,1,15,ITC,neutral,10,right,3,ITC_outcome,0,undefined,0,0,242,279796,453993
37,18,female,Belgium,1,16,guess,loss,5,right,6,guess_start,630,space,0,0,242,279164,454625
37,18,female,Belgium,1,16,guess,loss,5,right,6,guess_choice,679,f,0,0,242,278483,455306
37,18,female,Belgium,1,16,guess,loss,5,right,6,guess_outcome,0,undefined,0,0,227,276925,456864
37,18,female,Belgium,1,16,ITC,loss,5,right,6,ITC_start,513,space,0,0,227,276410,457379
37,18,female,Belgium,1,16,ITC,loss,5,right,6,ITC_choice,2006,j,0,0,227,274403,459386
37,18,female,Belgium,1,16,ITC,loss,5,right,6,ITC_wait,0,undefined,0,0,227,269400,464389
37,18,female,Belgium,1,16,ITC,loss,5,right,6,ITC_collect,476,k,0,0,227,268923,464866
37,18,female,Belgium,1,16,ITC,loss,5,right,6,ITC_outcome,0,undefined,0,0,247,267917,465872
37,18,female,Belgium,1,17,guess,neutral,5,right,12,guess_start,513,space,0,0,247,267402,466387
37,18,female,Belgium,1,17,guess,neutral,5,right,12,guess_choice,973,f,0,0,247,266426,467363
37,18,female,Belgium,1,17,guess,neutral,5,right,12,guess_outcome,0,undefined,0,0,247,264870,468919
37,18,female,Belgium,1,17,ITC,neutral,5,right,12,ITC_start,546,space,0,0,247,264322,469467
37,18,female,Belgium,1,17,ITC,neutral,5,right,12,ITC_choice,1479,f,0,0,247,262842,470947
37,18,female,Belgium,1,17,ITC,neutral,5,right,12,ITC_wait,0,undefined,0,0,247,262840,470949
37,18,female,Belgium,1,17,ITC,neutral,5,right,12,ITC_collect,1244,k,0,0,247,261595,472194
37,18,female,Belgium,1,17,ITC,neutral,5,right,12,ITC_outcome,0,undefined,0,0,259,260589,473200
37,18,female,Belgium,1,18,guess,neutral,10,left,1,guess_start,529,space,0,0,259,260058,473731
37,18,female,Belgium,1,18,guess,neutral,10,left,1,guess_choice,804,f,0,0,259,259251,474538
37,18,female,Belgium,1,18,guess,neutral,10,left,1,guess_outcome,0,undefined,0,0,259,257696,476093
37,18,female,Belgium,1,18,ITC,neutral,10,left,1,ITC_start,476,space,0,0,259,257219,476570
37,18,female,Belgium,1,18,ITC,neutral,10,left,1,ITC_choice,1479,f,0,0,259,255738,478051
37,18,female,Belgium,1,19,guess,win,5,right,1,guess_choice,1190,j,0,0,279,242216,491573
37,18,female,Belgium,1,19,guess,win,5,right,1,guess_start,825,space,0,0,279,243409,490380
37,18,female,Belgium,1,19,guess,win,5,right,1,guess_outcome,0,undefined,0,0,299,240661,493128
37,18,female,Belgium,1,18,ITC,neutral,10,left,1,ITC_collect,489,k,0,0,259,245240,488549
37,18,female,Belgium,1,18,ITC,neutral,10,left,1,ITC_wait,0,undefined,0,0,259,245730,488059
37,18,female,Belgium,1,18,ITC,neutral,10,left,1,ITC_outcome,0,undefined,0,0,279,244235,489554
37,18,female,Belgium,1,19,ITC,win,5,right,1,ITC_choice,1319,j,0,0,299,237332,496457
37,18,female,Belgium,1,19,ITC,win,5,right,1,ITC_start,2008,space,0,0,299,238652,495137
37,18,female,Belgium,1,19,ITC,win,5,right,1,ITC_wait,0,undefined,0,0,299,232325,501464
37,18,female,Belgium,1,19,ITC,win,5,right,1,ITC_collect,567,k,0,0,299,231756,502033
37,18,female,Belgium,1,19,ITC,win,5,right,1,ITC_outcome,0,undefined,0,0,319,230751,503038
37,18,female,Belgium,1,20,guess,neutral,5,left,1,guess_start,409,space,0,0,319,230340,503449
37,18,female,Belgium,1,20,guess,neutral,5,left,1,guess_choice,701,f,0,0,319,229636,504153
37,18,female,Belgium,1,20,guess,neutral,5,left,1,guess_outcome,0,undefined,0,0,319,228081,505708
37,18,female,Belgium,1,20,ITC,neutral,5,left,1,ITC_start,500,space,0,0,319,227580,506209
37,18,female,Belgium,1,20,ITC,neutral,5,left,1,ITC_choice,1174,f,0,0,319,226404,507385
37,18,female,Belgium,1,20,ITC,neutral,5,left,1,ITC_wait,0,undefined,0,0,319,221398,512391
37,18,female,Belgium,1,20,ITC,neutral,5,left,1,ITC_collect,449,k,0,0,319,220948,512841
37,18,female,Belgium,1,20,ITC,neutral,5,left,1,ITC_outcome,0,undefined,0,0,339,219942,513847
37,18,female,Belgium,1,21,guess,neutral,5,right,14,guess_start,688,space,0,0,339,219252,514537
37,18,female,Belgium,1,21,guess,neutral,5,right,14,guess_choice,790,j,0,0,339,218460,515329
37,18,female,Belgium,1,21,guess,neutral,5,right,14,guess_outcome,0,undefined,0,0,339,216902,516887
37,18,female,Belgium,1,21,ITC,neutral,5,right,14,ITC_start,569,space,0,0,339,216332,517457
37,18,female,Belgium,1,21,ITC,neutral,5,right,14,ITC_choice,1270,f,0,0,339,215060,518729
37,18,female,Belgium,1,21,ITC,neutral,5,right,14,ITC_wait,0,undefined,0,0,339,215058,518731
37,18,female,Belgium,1,21,ITC,neutral,5,right,14,ITC_collect,1197,k,0,0,339,213860,519929
37,18,female,Belgium,1,21,ITC,neutral,5,right,14,ITC_outcome,0,undefined,0,0,353,212858,520931
37,18,female,Belgium,1,22,guess,neutral,10,right,4,guess_start,572,space,0,0,353,212284,521505
37,18,female,Belgium,1,22,guess,neutral,10,right,4,guess_choice,661,f,0,0,353,211620,522169
37,18,female,Belgium,1,22,guess,neutral,10,right,4,guess_outcome,0,undefined,0,0,353,210062,523727
37,18,female,Belgium,1,22,ITC,neutral,10,right,4,ITC_start,618,space,0,0,353,209443,524346
37,18,female,Belgium,1,22,ITC,neutral,10,right,4,ITC_choice,2486,f,0,0,353,206956,526833
37,18,female,Belgium,1,22,ITC,neutral,10,right,4,ITC_wait,0,undefined,0,0,353,206954,526835
37,18,female,Belgium,1,22,ITC,neutral,10,right,4,ITC_collect,940,k,0,0,353,206011,527778
37,18,female,Belgium,1,22,ITC,neutral,10,right,4,ITC_outcome,0,undefined,0,0,357,205007,528782
37,18,female,Belgium,1,23,guess,win,5,left,6,guess_start,553,space,0,0,357,204452,529337
37,18,female,Belgium,1,23,guess,win,5,left,6,guess_choice,1149,f,0,0,357,203301,530488
37,18,female,Belgium,1,23,guess,win,5,left,6,guess_outcome,0,undefined,0,0,377,201746,532043
37,18,female,Belgium,1,23,ITC,win,5,left,6,ITC_start,1389,space,0,0,377,200356,533433
37,18,female,Belgium,1,23,ITC,win,5,left,6,ITC_choice,1375,f,0,0,377,198979,534810
37,18,female,Belgium,1,23,ITC,win,5,left,6,ITC_wait,0,undefined,0,0,377,193976,539813
37,18,female,Belgium,1,23,ITC,win,5,left,6,ITC_collect,427,k,0,0,377,193547,540242
37,18,female,Belgium,1,23,ITC,win,5,left,6,ITC_outcome,0,undefined,0,0,397,192541,541248
37,18,female,Belgium,1,24,guess,win,5,right,3,guess_start,488,space,0,0,397,192051,541738
37,18,female,Belgium,1,24,guess,win,5,right,3,guess_choice,758,f,0,0,397,191291,542498
37,18,female,Belgium,1,24,guess,win,5,right,3,guess_outcome,0,undefined,0,0,417,189733,544056
37,18,female,Belgium,1,24,ITC,win,5,right,3,ITC_start,842,space,0,0,417,188890,544899
37,18,female,Belgium,1,24,ITC,win,5,right,3,ITC_choice,2277,j,0,0,417,186611,547178
37,18,female,Belgium,1,24,ITC,win,5,right,3,ITC_wait,0,undefined,0,0,417,181608,552181
37,18,female,Belgium,1,24,ITC,win,5,right,3,ITC_collect,516,k,0,0,417,181090,552699
37,18,female,Belgium,1,24,ITC,win,5,right,3,ITC_outcome,0,undefined,0,0,437,180085,553704
37,18,female,Belgium,1,25,guess,loss,5,left,14,guess_start,433,space,0,0,437,179651,554138
37,18,female,Belgium,1,25,guess,loss,5,left,14,guess_choice,829,f,0,0,437,178819,554970
37,18,female,Belgium,1,25,guess,loss,5,left,14,guess_outcome,0,undefined,0,0,422,177265,556524
37,18,female,Belgium,1,25,ITC,loss,5,left,14,ITC_start,485,space,0,0,422,176779,557010
37,18,female,Belgium,1,25,ITC,loss,5,left,14,ITC_choice,1903,j,0,0,422,174875,558914
37,18,female,Belgium,1,25,ITC,loss,5,left,14,ITC_wait,0,undefined,0,0,422,174873,558916
37,18,female,Belgium,1,25,ITC,loss,5,left,14,ITC_collect,1068,k,0,0,422,173803,559986
37,18,female,Belgium,1,25,ITC,loss,5,left,14,ITC_outcome,0,undefined,0,0,436,172797,560992
37,18,female,Belgium,1,26,guess,neutral,5,right,2,guess_start,1153,space,0,0,436,171643,562146
37,18,female,Belgium,1,26,guess,neutral,5,right,2,guess_choice,837,f,0,0,436,170803,562986
37,18,female,Belgium,1,26,guess,neutral,5,right,2,guess_outcome,0,undefined,0,0,436,169248,564541
37,18,female,Belgium,1,26,ITC,neutral,5,right,2,ITC_start,604,space,0,0,436,168642,565147
37,18,female,Belgium,1,26,ITC,neutral,5,right,2,ITC_choice,1398,j,0,0,436,167243,566546
37,18,female,Belgium,1,26,ITC,neutral,5,right,2,ITC_wait,0,undefined,0,0,436,162240,571549
37,18,female,Belgium,1,26,ITC,neutral,5,right,2,ITC_collect,420,k,0,0,436,161818,571971
37,18,female,Belgium,1,26,ITC,neutral,5,right,2,ITC_outcome,0,undefined,0,0,456,160812,572977
37,18,female,Belgium,1,27,guess,neutral,5,right,8,guess_start,560,space,0,0,456,160251,573538
37,18,female,Belgium,1,27,guess,neutral,5,right,8,guess_choice,782,j,0,0,456,159466,574323
37,18,female,Belgium,1,27,guess,neutral,5,right,8,guess_outcome,0,undefined,0,0,456,157912,575877
37,18,female,Belgium,1,27,ITC,neutral,5,right,8,ITC_start,508,space,0,0,456,157402,576387
37,18,female,Belgium,1,27,ITC,neutral,5,right,8,ITC_choice,1598,j,0,0,456,155802,577987
37,18,female,Belgium,1,27,ITC,neutral,5,right,8,ITC_wait,0,undefined,0,0,456,150801,582988
37,18,female,Belgium,1,27,ITC,neutral,5,right,8,ITC_collect,422,k,0,0,456,150378,583411
37,18,female,Belgium,1,27,ITC,neutral,5,right,8,ITC_outcome,0,undefined,0,0,476,149373,584416
37,18,female,Belgium,1,28,guess,win,5,left,9,guess_start,640,space,0,0,476,148731,585058
37,18,female,Belgium,1,28,guess,win,5,left,9,guess_choice,862,f,0,0,476,147866,585923
37,18,female,Belgium,1,28,guess,win,5,left,9,guess_outcome,0,undefined,0,0,496,146308,587481
37,18,female,Belgium,1,28,ITC,win,5,left,9,ITC_start,681,space,0,0,496,145626,588163
37,18,female,Belgium,1,28,ITC,win,5,left,9,ITC_choice,1311,j,0,0,496,144314,589475
37,18,female,Belgium,1,28,ITC,win,5,left,9,ITC_wait,0,undefined,0,0,496,144311,589478
37,18,female,Belgium,1,28,ITC,win,5,left,9,ITC_collect,1148,k,0,0,496,143162,590627
37,18,female,Belgium,1,28,ITC,win,5,left,9,ITC_outcome,0,undefined,0,0,505,142157,591632
37,18,female,Belgium,1,29,guess,loss,5,right,15,guess_start,601,space,0,0,505,141554,592235
37,18,female,Belgium,1,29,guess,loss,5,right,15,guess_choice,942,j,0,0,505,140610,593179
37,18,female,Belgium,1,29,guess,loss,5,right,15,guess_outcome,0,undefined,0,0,490,139052,594737
37,18,female,Belgium,1,29,ITC,loss,5,right,15,ITC_start,729,space,0,0,490,138322,595467
37,18,female,Belgium,1,29,ITC,loss,5,right,15,ITC_choice,1606,j,0,0,490,136714,597075
37,18,female,Belgium,1,29,ITC,loss,5,right,15,ITC_wait,0,undefined,0,0,490,131707,602082
37,18,female,Belgium,1,29,ITC,loss,5,right,15,ITC_collect,809,k,0,0,490,130897,602892
37,18,female,Belgium,1,29,ITC,loss,5,right,15,ITC_outcome,0,undefined,0,0,510,129892,603897
37,18,female,Belgium,1,30,guess,win,10,left,6,guess_start,615,space,0,0,510,129274,604515
37,18,female,Belgium,1,30,guess,win,10,left,6,guess_choice,654,f,0,0,510,128618,605171
37,18,female,Belgium,1,30,guess,win,10,left,6,guess_outcome,0,undefined,0,0,530,127063,606726
37,18,female,Belgium,1,30,ITC,win,10,left,6,ITC_start,548,space,0,0,530,126514,607275
37,18,female,Belgium,1,30,ITC,win,10,left,6,ITC_choice,1551,f,0,0,530,124962,608827
37,18,female,Belgium,1,30,ITC,win,10,left,6,ITC_wait,0,undefined,0,0,530,114960,618829
37,18,female,Belgium,1,30,ITC,win,10,left,6,ITC_collect,460,k,0,0,530,114498,619291
37,18,female,Belgium,1,30,ITC,win,10,left,6,ITC_outcome,0,undefined,0,0,550,113496,620293
37,18,female,Belgium,1,31,guess,loss,5,right,4,guess_start,68,space,0,0,550,113427,620362
37,18,female,Belgium,1,31,guess,loss,5,right,4,guess_choice,1045,f,0,0,550,112379,621410
37,18,female,Belgium,1,31,guess,loss,5,right,4,guess_outcome,0,undefined,0,0,535,110826,622963
37,18,female,Belgium,1,31,ITC,loss,5,right,4,ITC_start,1455,space,0,0,535,109370,624419
37,18,female,Belgium,1,31,ITC,loss,5,right,4,ITC_choice,1870,j,0,0,535,107499,626290
37,18,female,Belgium,1,31,ITC,loss,5,right,4,ITC_wait,0,undefined,0,0,535,102496,631293
37,18,female,Belgium,1,31,ITC,loss,5,right,4,ITC_collect,620,k,0,0,535,101874,631915
37,18,female,Belgium,1,31,ITC,loss,5,right,4,ITC_outcome,0,undefined,0,0,555,100869,632920
37,18,female,Belgium,1,32,guess,neutral,5,right,6,guess_start,432,space,0,0,555,100435,633354
37,18,female,Belgium,1,32,guess,neutral,5,right,6,guess_choice,949,j,0,0,555,99483,634306
37,18,female,Belgium,1,32,guess,neutral,5,right,6,guess_outcome,0,undefined,0,0,555,97930,635859
37,18,female,Belgium,1,32,ITC,neutral,5,right,6,ITC_start,406,space,0,0,555,97522,636267
37,18,female,Belgium,1,32,ITC,neutral,5,right,6,ITC_choice,1398,f,0,0,555,96123,637666
37,18,female,Belgium,1,32,ITC,neutral,5,right,6,ITC_wait,0,undefined,0,0,555,96120,637669
37,18,female,Belgium,1,32,ITC,neutral,5,right,6,ITC_collect,1037,k,0,0,555,95083,638706
37,18,female,Belgium,1,32,ITC,neutral,5,right,6,ITC_outcome,0,undefined,0,0,561,94077,639712
37,18,female,Belgium,1,33,guess,loss,5,right,16,guess_start,569,space,0,0,561,93506,640283
37,18,female,Belgium,1,33,guess,loss,5,right,16,guess_choice,797,f,0,0,561,92706,641083
37,18,female,Belgium,1,33,guess,loss,5,right,16,guess_outcome,0,undefined,0,0,546,91153,642636
37,18,female,Belgium,1,33,ITC,loss,5,right,16,ITC_start,566,space,0,0,546,90586,643203
37,18,female,Belgium,1,33,ITC,loss,5,right,16,ITC_wait,0,undefined,0,0,546,89464,644325
37,18,female,Belgium,1,33,ITC,loss,5,right,16,ITC_choice,1119,f,0,0,546,89466,644323
37,18,female,Belgium,1,33,ITC,loss,5,right,16,ITC_collect,1068,k,0,0,546,88394,645395
37,18,female,Belgium,1,33,ITC,loss,5,right,16,ITC_outcome,0,undefined,0,0,562,87389,646400
37,18,female,Belgium,1,34,guess,neutral,5,right,5,guess_start,369,space,0,0,562,87018,646771
37,18,female,Belgium,1,34,guess,neutral,5,right,5,guess_choice,806,f,0,0,562,86210,647579
37,18,female,Belgium,1,34,guess,neutral,5,right,5,guess_outcome,0,undefined,0,0,562,84656,649133
37,18,female,Belgium,1,34,ITC,neutral,5,right,5,ITC_start,444,space,0,0,562,84210,649579
37,18,female,Belgium,1,34,ITC,neutral,5,right,5,ITC_choice,1879,j,0,0,562,82330,651459
37,18,female,Belgium,1,34,ITC,neutral,5,right,5,ITC_wait,0,undefined,0,0,562,77327,656462
37,18,female,Belgium,1,34,ITC,neutral,5,right,5,ITC_collect,514,k,0,0,562,76811,656978
37,18,female,Belgium,1,34,ITC,neutral,5,right,5,ITC_outcome,0,undefined,0,0,582,75804,657985
37,18,female,Belgium,1,35,guess,neutral,5,right,15,guess_start,511,space,0,0,582,75292,658497
37,18,female,Belgium,1,35,guess,neutral,5,right,15,guess_choice,1045,j,0,0,582,74243,659546
37,18,female,Belgium,1,35,guess,neutral,5,right,15,guess_outcome,0,undefined,0,0,582,72689,661100
37,18,female,Belgium,1,35,ITC,neutral,5,right,15,ITC_start,668,space,0,0,582,72020,661769
37,18,female,Belgium,1,35,ITC,neutral,5,right,15,ITC_choice,1575,f,0,0,582,70443,663346
37,18,female,Belgium,1,35,ITC,neutral,5,right,15,ITC_wait,0,undefined,0,0,582,70441,663348
37,18,female,Belgium,1,35,ITC,neutral,5,right,15,ITC_collect,964,k,0,0,582,69476,664313
37,18,female,Belgium,1,35,ITC,neutral,5,right,15,ITC_outcome,0,undefined,0,0,597,68472,665317
37,18,female,Belgium,1,36,guess,win,5,right,12,guess_start,723,space,0,0,597,67747,666042
37,18,female,Belgium,1,36,guess,win,5,right,12,guess_choice,765,f,0,0,597,66980,666809
37,18,female,Belgium,1,36,guess,win,5,right,12,guess_outcome,0,undefined,0,0,617,65427,668362
37,18,female,Belgium,1,36,ITC,win,5,right,12,ITC_start,1622,space,0,0,617,63803,669986
37,18,female,Belgium,1,36,ITC,win,5,right,12,ITC_choice,1415,f,0,0,617,62387,671402
37,18,female,Belgium,1,36,ITC,win,5,right,12,ITC_wait,0,undefined,0,0,617,62385,671404
37,18,female,Belgium,1,36,ITC,win,5,right,12,ITC_collect,765,k,0,0,617,61619,672170
37,18,female,Belgium,1,36,ITC,win,5,right,12,ITC_outcome,0,undefined,0,0,629,60617,673172
37,18,female,Belgium,1,37,guess,neutral,10,left,7,guess_start,597,space,0,0,629,60019,673770
37,18,female,Belgium,1,37,guess,neutral,10,left,7,guess_choice,789,f,0,0,629,59227,674562
37,18,female,Belgium,1,37,guess,neutral,10,left,7,guess_outcome,0,undefined,0,0,629,57674,676115
37,18,female,Belgium,1,37,ITC,neutral,10,left,7,ITC_start,590,space,0,0,629,57083,676706
37,18,female,Belgium,1,37,ITC,neutral,10,left,7,ITC_choice,2119,j,0,0,629,54963,678826
37,18,female,Belgium,1,37,ITC,neutral,10,left,7,ITC_wait,0,undefined,0,0,629,54960,678829
37,18,female,Belgium,1,37,ITC,neutral,10,left,7,ITC_collect,941,k,0,0,629,54019,679770
37,18,female,Belgium,1,37,ITC,neutral,10,left,7,ITC_outcome,0,undefined,0,0,636,53013,680776
37,18,female,Belgium,1,38,guess,loss,10,left,7,guess_start,752,space,0,0,636,52259,681530
37,18,female,Belgium,1,38,guess,loss,10,left,7,guess_choice,726,f,0,0,636,51531,682258
37,18,female,Belgium,1,38,guess,loss,10,left,7,guess_outcome,0,undefined,0,0,621,49974,683815
37,18,female,Belgium,1,38,ITC,loss,10,left,7,ITC_start,514,space,0,0,621,49459,684330
37,18,female,Belgium,1,38,ITC,loss,10,left,7,ITC_choice,1615,j,0,0,621,47843,685946
37,18,female,Belgium,1,38,ITC,loss,10,left,7,ITC_wait,0,undefined,0,0,621,47841,685948
37,18,female,Belgium,1,38,ITC,loss,10,left,7,ITC_collect,1085,k,0,0,621,46755,687034
37,18,female,Belgium,1,38,ITC,loss,10,left,7,ITC_outcome,0,undefined,0,0,628,45750,688039
37,18,female,Belgium,1,39,guess,win,10,right,8,guess_start,778,space,0,0,628,44970,688819
37,18,female,Belgium,1,39,guess,win,10,right,8,guess_choice,997,f,0,0,628,43971,689818
37,18,female,Belgium,1,39,guess,win,10,right,8,guess_outcome,0,undefined,0,0,648,42414,691375
37,18,female,Belgium,1,39,ITC,win,10,right,8,ITC_start,619,space,0,0,648,41794,691995
37,18,female,Belgium,1,39,ITC,win,10,right,8,ITC_choice,1326,f,0,0,648,40466,693323
37,18,female,Belgium,1,39,ITC,win,10,right,8,ITC_wait,0,undefined,0,0,648,40464,693325
37,18,female,Belgium,1,39,ITC,win,10,right,8,ITC_collect,964,k,0,0,648,39499,694290
37,18,female,Belgium,1,39,ITC,win,10,right,8,ITC_outcome,0,undefined,0,0,656,38494,695295
37,18,female,Belgium,1,40,guess,neutral,5,right,11,guess_start,802,space,0,0,656,37690,696099
37,18,female,Belgium,1,40,guess,neutral,5,right,11,guess_choice,1501,j,0,0,656,36187,697602
37,18,female,Belgium,1,40,guess,neutral,5,right,11,guess_outcome,0,undefined,0,0,656,34633,699156
37,18,female,Belgium,1,40,ITC,neutral,5,right,11,ITC_start,613,space,0,0,656,34018,699771
37,18,female,Belgium,1,40,ITC,neutral,5,right,11,ITC_choice,1615,f,0,0,656,32402,701387
37,18,female,Belgium,1,40,ITC,neutral,5,right,11,ITC_wait,0,undefined,0,0,656,32400,701389
37,18,female,Belgium,1,40,ITC,neutral,5,right,11,ITC_collect,556,k,0,0,656,31842,701947
37,18,female,Belgium,1,40,ITC,neutral,5,right,11,ITC_outcome,0,undefined,0,0,667,30839,702950
37,18,female,Belgium,1,41,guess,loss,10,left,5,guess_start,491,space,0,0,667,30346,703443
37,18,female,Belgium,1,41,guess,loss,10,left,5,guess_choice,1725,j,0,0,667,28618,705171
37,18,female,Belgium,1,41,guess,loss,10,left,5,guess_outcome,0,undefined,0,0,652,27061,706728
37,18,female,Belgium,1,41,ITC,loss,10,left,5,ITC_start,601,space,0,0,652,26458,707331
37,18,female,Belgium,1,41,ITC,loss,10,left,5,ITC_choice,1568,j,0,0,652,24888,708901
37,18,female,Belgium,1,41,ITC,loss,10,left,5,ITC_wait,0,undefined,0,0,652,24885,708904
37,18,female,Belgium,1,41,ITC,loss,10,left,5,ITC_collect,594,k,0,0,652,24290,709499
37,18,female,Belgium,1,41,ITC,loss,10,left,5,ITC_outcome,0,undefined,0,0,657,23288,710501
37,18,female,Belgium,1,42,guess,win,10,left,2,guess_start,579,space,0,0,657,22707,711082
37,18,female,Belgium,1,42,guess,win,10,left,2,guess_choice,678,f,0,0,657,22026,711763
37,18,female,Belgium,1,42,guess,win,10,left,2,guess_outcome,0,undefined,0,0,677,20469,713320
37,18,female,Belgium,1,42,ITC,win,10,left,2,ITC_start,1129,space,0,0,677,19339,714450
37,18,female,Belgium,1,42,ITC,win,10,left,2,ITC_choice,1663,f,0,0,677,17674,716115
37,18,female,Belgium,1,42,ITC,win,10,left,2,ITC_wait,0,undefined,0,0,677,7672,726117
37,18,female,Belgium,1,42,ITC,win,10,left,2,ITC_collect,539,k,0,0,677,7132,726657
37,18,female,Belgium,1,42,ITC,win,10,left,2,ITC_outcome,0,undefined,0,0,697,6126,727663
37,18,female,Belgium,1,43,guess,win,5,left,4,guess_start,2680,space,0,0,697,3445,730344
37,18,female,Belgium,1,43,guess,win,5,left,4,guess_choice,1470,f,0,0,697,1972,731817
37,18,female,Belgium,1,43,guess,win,5,left,4,guess_outcome,0,undefined,0,0,717,416,733373
37,18,female,Belgium,1,43,ITC,win,5,left,4,ITC_start,0,undefined,0,0,717,-5,733794
37,18,female,Belgium,2,44,guess,win,5,right,2,guess_start,944,space,0,0,0,479055,743312
37,18,female,Belgium,2,44,guess,win,5,right,2,guess_choice,1301,f,0,0,0,477751,744616
37,18,female,Belgium,2,44,guess,win,5,right,2,guess_outcome,0,undefined,0,0,20,476196,746171
37,18,female,Belgium,2,44,ITC,win,5,right,2,ITC_start,1412,space,0,0,20,474783,747584
37,18,female,Belgium,2,44,ITC,win,5,right,2,ITC_choice,1479,j,0,0,20,473303,749064
37,18,female,Belgium,2,44,ITC,win,5,right,2,ITC_wait,0,undefined,0,0,20,468301,754066
37,18,female,Belgium,2,44,ITC,win,5,right,2,ITC_collect,452,k,0,0,20,467847,754520
37,18,female,Belgium,2,44,ITC,win,5,right,2,ITC_outcome,0,undefined,0,0,40,466841,755526
37,18,female,Belgium,2,45,guess,win,5,left,8,guess_start,839,space,0,0,40,465999,756368
37,18,female,Belgium,2,45,guess,win,5,left,8,guess_choice,693,f,0,0,40,465303,757064
37,18,female,Belgium,2,45,guess,win,5,left,8,guess_outcome,0,undefined,0,0,60,463750,758617
37,18,female,Belgium,2,45,ITC,win,5,left,8,ITC_start,805,space,0,0,60,462943,759424
37,18,female,Belgium,2,45,ITC,win,5,left,8,ITC_choice,1071,f,0,0,60,461871,760496
37,18,female,Belgium,2,45,ITC,win,5,left,8,ITC_wait,0,undefined,0,0,60,456865,765502
37,18,female,Belgium,2,45,ITC,win,5,left,8,ITC_collect,769,k,0,0,60,456094,766273
37,18,female,Belgium,2,45,ITC,win,5,left,8,ITC_outcome,0,undefined,0,0,80,455088,767279
37,18,female,Belgium,2,46,guess,win,5,left,7,guess_start,368,space,0,0,80,454719,767648
37,18,female,Belgium,2,46,guess,win,5,left,7,guess_choice,797,f,0,0,80,453919,768448
37,18,female,Belgium,2,46,guess,win,5,left,7,guess_outcome,0,undefined,0,0,100,452363,770004
37,18,female,Belgium,2,46,ITC,win,5,left,7,ITC_start,1443,space,0,0,100,450919,771448
37,18,female,Belgium,2,46,ITC,win,5,left,7,ITC_choice,1319,f,0,0,100,449599,772768
37,18,female,Belgium,2,46,ITC,win,5,left,7,ITC_wait,0,undefined,0,0,100,444595,777772
37,18,female,Belgium,2,46,ITC,win,5,left,7,ITC_collect,435,k,0,0,100,444158,778209
37,18,female,Belgium,2,46,ITC,win,5,left,7,ITC_outcome,0,undefined,0,0,120,443153,779214
37,18,female,Belgium,2,47,guess,neutral,5,right,13,guess_start,361,space,0,0,120,442791,779576
37,18,female,Belgium,2,47,guess,neutral,5,right,13,guess_choice,1301,j,0,0,120,441487,780880
37,18,female,Belgium,2,47,guess,neutral,5,right,13,guess_outcome,0,undefined,0,0,120,439932,782435
37,18,female,Belgium,2,47,ITC,neutral,5,right,13,ITC_start,557,space,0,0,120,439375,782992
37,18,female,Belgium,2,47,ITC,neutral,5,right,13,ITC_choice,1359,f,0,0,120,438015,784352
37,18,female,Belgium,2,47,ITC,neutral,5,right,13,ITC_wait,0,undefined,0,0,120,438012,784355
37,18,female,Belgium,2,47,ITC,neutral,5,right,13,ITC_collect,684,k,0,0,120,437327,785040
37,18,female,Belgium,2,47,ITC,neutral,5,right,13,ITC_outcome,0,undefined,0,0,133,436324,786043
37,18,female,Belgium,2,48,guess,neutral,5,left,16,guess_start,748,space,0,0,133,435574,786793
37,18,female,Belgium,2,48,guess,neutral,5,left,16,guess_choice,628,f,0,0,133,434943,787424
37,18,female,Belgium,2,48,guess,neutral,5,left,16,guess_outcome,0,undefined,0,0,133,433389,788978
37,18,female,Belgium,2,48,ITC,neutral,5,left,16,ITC_start,558,space,0,0,133,432830,789537
37,18,female,Belgium,2,48,ITC,neutral,5,left,16,ITC_choice,1951,j,0,0,133,430878,791489
37,18,female,Belgium,2,48,ITC,neutral,5,left,16,ITC_wait,0,undefined,0,0,133,430875,791492
37,18,female,Belgium,2,48,ITC,neutral,5,left,16,ITC_collect,747,k,0,0,133,430126,792241
37,18,female,Belgium,2,48,ITC,neutral,5,left,16,ITC_outcome,0,undefined,0,0,149,429120,793247
37,18,female,Belgium,2,49,guess,win,10,left,7,guess_start,712,space,0,0,149,428406,793961
37,18,female,Belgium,2,49,guess,win,10,left,7,guess_choice,614,f,0,0,149,427790,794577
37,18,female,Belgium,2,49,guess,win,10,left,7,guess_outcome,0,undefined,0,0,169,426236,796131
37,18,female,Belgium,2,49,ITC,win,10,left,7,ITC_start,541,space,0,0,169,425693,796674
37,18,female,Belgium,2,49,ITC,win,10,left,7,ITC_choice,1360,j,0,0,169,424332,798035
37,18,female,Belgium,2,49,ITC,win,10,left,7,ITC_wait,0,undefined,0,0,169,424330,798037
37,18,female,Belgium,2,49,ITC,win,10,left,7,ITC_collect,754,k,0,0,169,423574,798793
37,18,female,Belgium,2,49,ITC,win,10,left,7,ITC_outcome,0,undefined,0,0,176,422569,799798
37,18,female,Belgium,2,50,guess,loss,5,left,12,guess_start,1176,space,0,0,176,421390,800977
37,18,female,Belgium,2,50,guess,loss,5,left,12,guess_choice,1014,j,0,0,176,420373,801994
37,18,female,Belgium,2,50,guess,loss,5,left,12,guess_outcome,0,undefined,0,0,161,418818,803549
37,18,female,Belgium,2,50,ITC,loss,5,left,12,ITC_start,667,space,0,0,161,418150,804217
37,18,female,Belgium,2,50,ITC,loss,5,left,12,ITC_choice,934,f,0,0,161,417214,805153
37,18,female,Belgium,2,50,ITC,loss,5,left,12,ITC_wait,0,undefined,0,0,161,412207,810160
37,18,female,Belgium,2,50,ITC,loss,5,left,12,ITC_collect,945,k,0,0,161,411261,811106
37,18,female,Belgium,2,50,ITC,loss,5,left,12,ITC_outcome,0,undefined,0,0,181,410254,812113
37,18,female,Belgium,2,51,guess,loss,5,left,3,guess_start,638,space,0,0,181,409613,812754
37,18,female,Belgium,2,51,guess,loss,5,left,3,guess_choice,621,f,0,0,181,408990,813377
37,18,female,Belgium,2,51,guess,loss,5,left,3,guess_outcome,0,undefined,0,0,166,407436,814931
37,18,female,Belgium,2,51,ITC,loss,5,left,3,ITC_start,541,space,0,0,166,406894,815473
37,18,female,Belgium,2,51,ITC,loss,5,left,3,ITC_choice,1222,f,0,0,166,405670,816697
37,18,female,Belgium,2,51,ITC,loss,5,left,3,ITC_wait,0,undefined,0,0,166,400664,821703
37,18,female,Belgium,2,51,ITC,loss,5,left,3,ITC_collect,800,k,0,0,166,399862,822505
37,18,female,Belgium,2,51,ITC,loss,5,left,3,ITC_outcome,0,undefined,0,0,186,398855,823512
37,18,female,Belgium,2,52,guess,win,5,left,15,guess_start,767,space,0,0,186,398086,824281
37,18,female,Belgium,2,52,guess,win,5,left,15,guess_choice,750,f,0,0,186,397333,825034
37,18,female,Belgium,2,52,guess,win,5,left,15,guess_outcome,0,undefined,0,0,206,395780,826587
37,18,female,Belgium,2,52,ITC,win,5,left,15,ITC_start,1125,space,0,0,206,394653,827714
37,18,female,Belgium,2,52,ITC,win,5,left,15,ITC_choice,1359,j,0,0,206,393293,829074
37,18,female,Belgium,2,52,ITC,win,5,left,15,ITC_wait,0,undefined,0,0,206,393290,829077
37,18,female,Belgium,2,52,ITC,win,5,left,15,ITC_collect,731,k,0,0,206,392558,829809
37,18,female,Belgium,2,52,ITC,win,5,left,15,ITC_outcome,0,undefined,0,0,221,391554,830813
37,18,female,Belgium,2,53,guess,neutral,10,right,8,guess_start,923,space,0,0,221,390629,831738
37,18,female,Belgium,2,53,guess,neutral,10,right,8,guess_choice,837,j,0,0,221,389790,832577
37,18,female,Belgium,2,53,guess,neutral,10,right,8,guess_outcome,0,undefined,0,0,221,388237,834130
37,18,female,Belgium,2,53,ITC,neutral,10,right,8,ITC_start,1238,space,0,0,221,386997,835370
37,18,female,Belgium,2,53,ITC,neutral,10,right,8,ITC_choice,1479,f,0,0,221,385517,836850
37,18,female,Belgium,2,53,ITC,neutral,10,right,8,ITC_wait,0,undefined,0,0,221,385515,836852
37,18,female,Belgium,2,53,ITC,neutral,10,right,8,ITC_collect,645,k,0,0,221,384869,837498
37,18,female,Belgium,2,53,ITC,neutral,10,right,8,ITC_outcome,0,undefined,0,0,229,383862,838505
37,18,female,Belgium,2,54,guess,neutral,5,left,10,guess_start,672,space,0,0,229,383189,839178
37,18,female,Belgium,2,54,guess,neutral,5,left,10,guess_choice,702,f,0,0,229,382485,839882
37,18,female,Belgium,2,54,guess,neutral,5,left,10,guess_outcome,0,undefined,0,0,229,380928,841439
37,18,female,Belgium,2,54,ITC,neutral,5,left,10,ITC_start,626,space,0,0,229,380301,842066
37,18,female,Belgium,2,54,ITC,neutral,5,left,10,ITC_choice,1511,j,0,0,229,378788,843579
37,18,female,Belgium,2,54,ITC,neutral,5,left,10,ITC_wait,0,undefined,0,0,229,378786,843581
37,18,female,Belgium,2,54,ITC,neutral,5,left,10,ITC_collect,932,k,0,0,229,377853,844514
37,18,female,Belgium,2,54,ITC,neutral,5,left,10,ITC_outcome,0,undefined,0,0,239,376847,845520
37,18,female,Belgium,2,55,guess,loss,10,right,8,guess_start,840,space,0,0,239,376005,846362
37,18,female,Belgium,2,55,guess,loss,10,right,8,guess_choice,845,f,0,0,239,375157,847210
37,18,female,Belgium,2,55,guess,loss,10,right,8,guess_outcome,0,undefined,0,0,224,373600,848767
37,18,female,Belgium,2,55,ITC,loss,10,right,8,ITC_start,618,space,0,0,224,372980,849387
37,18,female,Belgium,2,55,ITC,loss,10,right,8,ITC_choice,990,j,0,0,224,371990,850377
37,18,female,Belgium,2,55,ITC,loss,10,right,8,ITC_wait,0,undefined,0,0,224,361983,860384
37,18,female,Belgium,2,55,ITC,loss,10,right,8,ITC_collect,519,k,0,0,224,361462,860905
37,18,female,Belgium,2,55,ITC,loss,10,right,8,ITC_outcome,0,undefined,0,0,244,360457,861910
37,18,female,Belgium,2,56,guess,loss,10,right,2,guess_start,560,space,0,0,244,359895,862472
37,18,female,Belgium,2,56,guess,loss,10,right,2,guess_choice,749,f,0,0,244,359143,863224
37,18,female,Belgium,2,56,guess,loss,10,right,2,guess_outcome,0,undefined,0,0,229,357585,864782
37,18,female,Belgium,2,56,ITC,loss,10,right,2,ITC_start,769,space,0,0,229,356815,865552
37,18,female,Belgium,2,56,ITC,loss,10,right,2,ITC_choice,1543,j,0,0,229,355271,867096
37,18,female,Belgium,2,56,ITC,loss,10,right,2,ITC_wait,0,undefined,0,0,229,345266,877101
37,18,female,Belgium,2,56,ITC,loss,10,right,2,ITC_collect,998,k,0,0,229,344266,878101
37,18,female,Belgium,2,56,ITC,loss,10,right,2,ITC_outcome,0,undefined,0,0,249,343264,879103
37,18,female,Belgium,2,57,guess,win,10,right,5,guess_start,731,space,0,0,249,342531,879836
37,18,female,Belgium,2,57,guess,win,10,right,5,guess_choice,918,j,0,0,249,341611,880756
37,18,female,Belgium,2,57,guess,win,10,right,5,guess_outcome,0,undefined,0,0,269,340053,882314
37,18,female,Belgium,2,57,ITC,win,10,right,5,ITC_start,650,space,0,0,269,339402,882965
37,18,female,Belgium,2,57,ITC,win,10,right,5,ITC_choice,3191,j,0,0,269,336210,886157
37,18,female,Belgium,2,57,ITC,win,10,right,5,ITC_wait,0,undefined,0,0,269,326203,896164
37,18,female,Belgium,2,57,ITC,win,10,right,5,ITC_collect,1143,k,0,0,269,325059,897308
37,18,female,Belgium,2,57,ITC,win,10,right,5,ITC_outcome,0,undefined,0,0,289,324052,898315
37,18,female,Belgium,2,58,guess,loss,5,right,1,guess_start,623,space,0,0,289,323427,898940
37,18,female,Belgium,2,58,guess,loss,5,right,1,guess_choice,1005,f,0,0,289,322419,899948
37,18,female,Belgium,2,58,guess,loss,5,right,1,guess_outcome,0,undefined,0,0,274,320865,901502
37,18,female,Belgium,2,58,ITC,loss,5,right,1,ITC_start,732,space,0,0,274,320132,902235
37,18,female,Belgium,2,58,ITC,loss,5,right,1,ITC_choice,1495,j,0,0,274,318635,903732
37,18,female,Belgium,2,58,ITC,loss,5,right,1,ITC_wait,0,undefined,0,0,274,313632,908735
37,18,female,Belgium,2,58,ITC,loss,5,right,1,ITC_collect,669,k,0,0,274,312961,909406
37,18,female,Belgium,2,58,ITC,loss,5,right,1,ITC_outcome,0,undefined,0,0,294,311957,910410
37,18,female,Belgium,2,59,guess,neutral,5,left,3,guess_start,448,space,0,0,294,311507,910860
37,18,female,Belgium,2,59,guess,neutral,5,left,3,guess_choice,1127,f,0,0,294,310378,911989
37,18,female,Belgium,2,59,guess,neutral,5,left,3,guess_outcome,0,undefined,0,0,294,308822,913545
37,18,female,Belgium,2,59,ITC,neutral,5,left,3,ITC_start,747,space,0,0,294,308074,914293
37,18,female,Belgium,2,59,ITC,neutral,5,left,3,ITC_choice,1303,f,0,0,294,306770,915597
37,18,female,Belgium,2,59,ITC,neutral,5,left,3,ITC_wait,0,undefined,0,0,294,301763,920604
37,18,female,Belgium,2,59,ITC,neutral,5,left,3,ITC_collect,652,k,0,0,294,301109,921258
37,18,female,Belgium,2,59,ITC,neutral,5,left,3,ITC_outcome,0,undefined,0,0,314,300104,922263
37,18,female,Belgium,2,60,guess,loss,10,left,6,guess_start,521,space,0,0,314,299581,922786
37,18,female,Belgium,2,60,guess,loss,10,left,6,guess_choice,717,f,0,0,314,298862,923505
37,18,female,Belgium,2,60,guess,loss,10,left,6,guess_outcome,0,undefined,0,0,299,297304,925063
37,18,female,Belgium,2,60,ITC,loss,10,left,6,ITC_start,634,space,0,0,299,296670,925697
37,18,female,Belgium,2,60,ITC,loss,10,left,6,ITC_choice,1535,f,0,0,299,295134,927233
37,18,female,Belgium,2,60,ITC,loss,10,left,6,ITC_wait,0,undefined,0,0,299,285127,937240
37,18,female,Belgium,2,60,ITC,loss,10,left,6,ITC_collect,458,k,0,0,299,284666,937701
37,18,female,Belgium,2,60,ITC,loss,10,left,6,ITC_outcome,0,undefined,0,0,319,283661,938706
37,18,female,Belgium,2,61,guess,neutral,5,right,7,guess_start,195,space,0,0,319,283465,938902
37,18,female,Belgium,2,61,guess,neutral,5,right,7,guess_choice,779,f,0,0,319,282683,939684
37,18,female,Belgium,2,61,guess,neutral,5,right,7,guess_outcome,0,undefined,0,0,319,281128,941239
37,18,female,Belgium,2,61,ITC,neutral,5,right,7,ITC_start,619,space,0,0,319,280507,941860
37,18,female,Belgium,2,61,ITC,neutral,5,right,7,ITC_choice,2175,j,0,0,319,278331,944036
37,18,female,Belgium,2,61,ITC,neutral,5,right,7,ITC_wait,0,undefined,0,0,319,273324,949043
37,18,female,Belgium,2,61,ITC,neutral,5,right,7,ITC_collect,714,k,0,0,319,272609,949758
37,18,female,Belgium,2,61,ITC,neutral,5,right,7,ITC_outcome,0,undefined,0,0,339,271603,950764
37,18,female,Belgium,2,62,guess,neutral,5,right,4,guess_start,409,space,0,0,339,271192,951175
37,18,female,Belgium,2,62,guess,neutral,5,right,4,guess_choice,925,j,0,0,339,270265,952102
37,18,female,Belgium,2,62,guess,neutral,5,right,4,guess_outcome,0,undefined,0,0,339,268712,953655
37,18,female,Belgium,2,62,ITC,neutral,5,right,4,ITC_start,4227,space,0,0,339,264484,957883
37,18,female,Belgium,2,62,ITC,neutral,5,right,4,ITC_choice,1359,j,0,0,339,263124,959243
37,18,female,Belgium,2,62,ITC,neutral,5,right,4,ITC_wait,0,undefined,0,0,339,258119,964248
37,18,female,Belgium,2,62,ITC,neutral,5,right,4,ITC_collect,809,k,0,0,339,257308,965059
37,18,female,Belgium,2,62,ITC,neutral,5,right,4,ITC_outcome,0,undefined,0,0,359,256305,966062
37,18,female,Belgium,2,63,guess,loss,10,left,1,guess_start,406,space,0,0,359,255897,966470
37,18,female,Belgium,2,63,guess,loss,10,left,1,guess_choice,1770,j,0,0,359,254124,968243
37,18,female,Belgium,2,63,guess,loss,10,left,1,guess_outcome,0,undefined,0,0,344,252569,969798
37,18,female,Belgium,2,63,ITC,loss,10,left,1,ITC_start,675,space,0,0,344,251893,970474
37,18,female,Belgium,2,63,ITC,loss,10,left,1,ITC_choice,1312,f,0,0,344,250580,971787
37,18,female,Belgium,2,63,ITC,loss,10,left,1,ITC_wait,0,undefined,0,0,344,240577,981790
37,18,female,Belgium,2,63,ITC,loss,10,left,1,ITC_collect,905,k,0,0,344,239670,982697
37,18,female,Belgium,2,63,ITC,loss,10,left,1,ITC_outcome,0,undefined,0,0,364,238665,983702
37,18,female,Belgium,2,64,guess,win,10,right,3,guess_start,3153,space,0,0,364,235510,986857
37,18,female,Belgium,2,64,guess,win,10,right,3,guess_choice,1012,f,0,0,364,234495,987872
37,18,female,Belgium,2,64,guess,win,10,right,3,guess_outcome,0,undefined,0,0,384,232943,989424
37,18,female,Belgium,2,64,ITC,win,10,right,3,ITC_start,614,space,0,0,384,232327,990040
37,18,female,Belgium,2,64,ITC,win,10,right,3,ITC_choice,1455,j,0,0,384,230871,991496
37,18,female,Belgium,2,64,ITC,win,10,right,3,ITC_wait,0,undefined,0,0,384,220864,1001503
37,18,female,Belgium,2,64,ITC,win,10,right,3,ITC_collect,512,k,0,0,384,220349,1002018
37,18,female,Belgium,2,64,ITC,win,10,right,3,ITC_outcome,0,undefined,0,0,404,219344,1003023
37,18,female,Belgium,2,65,guess,neutral,10,left,2,guess_start,448,space,0,0,404,218894,1003473
37,18,female,Belgium,2,65,guess,neutral,10,left,2,guess_choice,1037,f,0,0,404,217854,1004513
37,18,female,Belgium,2,65,guess,neutral,10,left,2,guess_outcome,0,undefined,0,0,404,216301,1006066
37,18,female,Belgium,2,65,ITC,neutral,10,left,2,ITC_start,574,space,0,0,404,215726,1006641
37,18,female,Belgium,2,65,ITC,neutral,10,left,2,ITC_choice,1127,j,0,0,404,214598,1007769
37,18,female,Belgium,2,65,ITC,neutral,10,left,2,ITC_wait,0,undefined,0,0,404,214596,1007771
37,18,female,Belgium,2,65,ITC,neutral,10,left,2,ITC_collect,2004,k,0,0,404,212590,1009777
37,18,female,Belgium,2,65,ITC,neutral,10,left,2,ITC_outcome,0,undefined,0,0,406,211586,1010781
37,18,female,Belgium,2,66,guess,win,5,right,10,guess_start,610,space,0,0,406,210974,1011393
37,18,female,Belgium,2,66,guess,win,5,right,10,guess_choice,1341,f,0,0,406,209630,1012737
37,18,female,Belgium,2,66,guess,win,5,right,10,guess_outcome,0,undefined,0,0,426,208077,1014290
37,18,female,Belgium,2,66,ITC,win,5,right,10,ITC_start,382,space,0,0,426,207694,1014673
37,18,female,Belgium,2,66,ITC,win,5,right,10,ITC_choice,1214,f,0,0,426,206478,1015889
37,18,female,Belgium,2,66,ITC,win,5,right,10,ITC_wait,0,undefined,0,0,426,206476,1015891
37,18,female,Belgium,2,66,ITC,win,5,right,10,ITC_collect,1084,k,0,0,426,205390,1016977
37,18,female,Belgium,2,66,ITC,win,5,right,10,ITC_outcome,0,undefined,0,0,436,204386,1017981
37,18,female,Belgium,2,67,guess,win,10,left,4,guess_start,522,space,0,0,436,203862,1018505
37,18,female,Belgium,2,67,guess,win,10,left,4,guess_choice,661,f,0,0,436,203198,1019169
37,18,female,Belgium,2,67,guess,win,10,left,4,guess_outcome,0,undefined,0,0,456,201644,1020723
37,18,female,Belgium,2,67,ITC,win,10,left,4,ITC_start,677,space,0,0,456,200966,1021401
37,18,female,Belgium,2,67,ITC,win,10,left,4,ITC_choice,1839,j,0,0,456,199126,1023241
37,18,female,Belgium,2,67,ITC,win,10,left,4,ITC_wait,0,undefined,0,0,456,199124,1023243
37,18,female,Belgium,2,67,ITC,win,10,left,4,ITC_collect,2621,k,0,0,456,196501,1025866
37,18,female,Belgium,2,67,ITC,win,10,left,4,ITC_outcome,0,undefined,0,0,460,195496,1026871
37,18,female,Belgium,2,68,guess,loss,5,right,7,guess_start,601,space,0,0,460,194894,1027473
37,18,female,Belgium,2,68,guess,loss,5,right,7,guess_choice,645,j,0,0,460,194246,1028121
37,18,female,Belgium,2,68,guess,loss,5,right,7,guess_outcome,0,undefined,0,0,445,192688,1029679
37,18,female,Belgium,2,68,ITC,loss,5,right,7,ITC_start,441,space,0,0,445,192246,1030121
37,18,female,Belgium,2,68,ITC,loss,5,right,7,ITC_choice,1911,j,0,0,445,190333,1032034
37,18,female,Belgium,2,68,ITC,loss,5,right,7,ITC_wait,0,undefined,0,0,445,185328,1037039
37,18,female,Belgium,2,68,ITC,loss,5,right,7,ITC_collect,414,k,0,0,445,184913,1037454
37,18,female,Belgium,2,68,ITC,loss,5,right,7,ITC_outcome,0,undefined,0,0,465,183908,1038459
37,18,female,Belgium,2,69,guess,loss,5,left,10,guess_start,401,space,0,0,465,183505,1038862
37,18,female,Belgium,2,69,guess,loss,5,left,10,guess_choice,1037,f,0,0,465,182465,1039902
37,18,female,Belgium,2,69,guess,loss,5,left,10,guess_outcome,0,undefined,0,0,450,180912,1041455
37,18,female,Belgium,2,69,ITC,loss,5,left,10,ITC_start,669,space,0,0,450,180241,1042126
37,18,female,Belgium,2,69,ITC,loss,5,left,10,ITC_choice,1079,f,0,0,450,179161,1043206
37,18,female,Belgium,2,69,ITC,loss,5,left,10,ITC_wait,0,undefined,0,0,450,174155,1048212
37,18,female,Belgium,2,69,ITC,loss,5,left,10,ITC_collect,401,k,0,0,450,173752,1048615
37,18,female,Belgium,2,69,ITC,loss,5,left,10,ITC_outcome,0,undefined,0,0,470,172746,1049621
37,18,female,Belgium,2,70,guess,loss,5,left,13,guess_start,385,space,0,0,470,172360,1050007
37,18,female,Belgium,2,70,guess,loss,5,left,13,guess_choice,741,f,0,0,470,171616,1050751
37,18,female,Belgium,2,70,guess,loss,5,left,13,guess_outcome,0,undefined,0,0,455,170058,1052309
37,18,female,Belgium,2,70,ITC,loss,5,left,13,ITC_start,1018,space,0,0,455,169039,1053328
37,18,female,Belgium,2,70,ITC,loss,5,left,13,ITC_choice,1014,f,0,0,455,168024,1054343
37,18,female,Belgium,2,70,ITC,loss,5,left,13,ITC_wait,0,undefined,0,0,455,163017,1059350
37,18,female,Belgium,2,70,ITC,loss,5,left,13,ITC_collect,494,k,0,0,455,162522,1059845
37,18,female,Belgium,2,70,ITC,loss,5,left,13,ITC_outcome,0,undefined,0,0,475,161519,1060848
37,18,female,Belgium,2,71,guess,neutral,5,left,9,guess_start,459,space,0,0,475,161058,1061309
37,18,female,Belgium,2,71,guess,neutral,5,left,9,guess_choice,821,f,0,0,475,160234,1062133
37,18,female,Belgium,2,71,guess,neutral,5,left,9,guess_outcome,0,undefined,0,0,475,158676,1063691
37,18,female,Belgium,2,71,ITC,neutral,5,left,9,ITC_start,497,space,0,0,475,158178,1064189
37,18,female,Belgium,2,71,ITC,neutral,5,left,9,ITC_choice,1111,j,0,0,475,157066,1065301
37,18,female,Belgium,2,71,ITC,neutral,5,left,9,ITC_wait,0,undefined,0,0,475,157064,1065303
37,18,female,Belgium,2,71,ITC,neutral,5,left,9,ITC_collect,956,k,0,0,475,156106,1066261
37,18,female,Belgium,2,71,ITC,neutral,5,left,9,ITC_outcome,0,undefined,0,0,484,155101,1067266
37,18,female,Belgium,2,72,guess,win,5,left,11,guess_start,776,space,0,0,484,154323,1068044
37,18,female,Belgium,2,72,guess,win,5,left,11,guess_choice,877,f,0,0,484,153442,1068925
37,18,female,Belgium,2,72,guess,win,5,left,11,guess_outcome,0,undefined,0,0,504,151888,1070479
37,18,female,Belgium,2,72,ITC,win,5,left,11,ITC_start,533,space,0,0,504,151354,1071013
37,18,female,Belgium,2,72,ITC,win,5,left,11,ITC_choice,959,j,0,0,504,150394,1071973
37,18,female,Belgium,2,72,ITC,win,5,left,11,ITC_wait,0,undefined,0,0,504,150392,1071975
37,18,female,Belgium,2,72,ITC,win,5,left,11,ITC_collect,965,k,0,0,504,149426,1072941
37,18,female,Belgium,2,72,ITC,win,5,left,11,ITC_outcome,0,undefined,0,0,515,148423,1073944
37,18,female,Belgium,2,73,guess,neutral,10,right,8,guess_start,587,space,0,0,515,147834,1074533
37,18,female,Belgium,2,73,guess,neutral,10,right,8,guess_choice,653,f,0,0,515,147178,1075189
37,18,female,Belgium,2,73,guess,neutral,10,right,8,guess_outcome,0,undefined,0,0,515,145621,1076746
37,18,female,Belgium,2,73,ITC,neutral,10,right,8,ITC_start,569,space,0,0,515,145050,1077317
37,18,female,Belgium,2,73,ITC,neutral,10,right,8,ITC_choice,1007,f,0,0,515,144042,1078325
37,18,female,Belgium,2,73,ITC,neutral,10,right,8,ITC_wait,0,undefined,0,0,515,144040,1078327
37,18,female,Belgium,2,73,ITC,neutral,10,right,8,ITC_collect,804,k,0,0,515,143234,1079133
37,18,female,Belgium,2,73,ITC,neutral,10,right,8,ITC_outcome,0,undefined,0,0,523,142232,1080135
37,18,female,Belgium,2,74,guess,neutral,5,left,16,guess_start,628,space,0,0,523,141601,1080766
37,18,female,Belgium,2,74,guess,neutral,5,left,16,guess_choice,677,f,0,0,523,140922,1081445
37,18,female,Belgium,2,74,guess,neutral,5,left,16,guess_outcome,0,undefined,0,0,523,139364,1083003
37,18,female,Belgium,2,74,ITC,neutral,5,left,16,ITC_start,577,space,0,0,523,138786,1083581
37,18,female,Belgium,2,74,ITC,neutral,5,left,16,ITC_choice,1022,j,0,0,523,137762,1084605
37,18,female,Belgium,2,74,ITC,neutral,5,left,16,ITC_wait,0,undefined,0,0,523,137759,1084608
37,18,female,Belgium,2,74,ITC,neutral,5,left,16,ITC_collect,908,k,0,0,523,136850,1085517
37,18,female,Belgium,2,74,ITC,neutral,5,left,16,ITC_outcome,0,undefined,0,0,539,135844,1086523
37,18,female,Belgium,2,75,guess,neutral,5,left,7,guess_start,353,space,0,0,539,135490,1086877
37,18,female,Belgium,2,75,guess,neutral,5,left,7,guess_choice,869,j,0,0,539,134618,1087749
37,18,female,Belgium,2,75,guess,neutral,5,left,7,guess_outcome,0,undefined,0,0,539,133064,1089303
37,18,female,Belgium,2,75,ITC,neutral,5,left,7,ITC_start,485,space,0,0,539,132577,1089790
37,18,female,Belgium,2,75,ITC,neutral,5,left,7,ITC_choice,838,j,0,0,539,131738,1090629
37,18,female,Belgium,2,75,ITC,neutral,5,left,7,ITC_wait,0,undefined,0,0,539,131735,1090632
37,18,female,Belgium,2,75,ITC,neutral,5,left,7,ITC_collect,581,k,0,0,539,131153,1091214
37,18,female,Belgium,2,75,ITC,neutral,5,left,7,ITC_outcome,0,undefined,0,0,546,130148,1092219
37,18,female,Belgium,2,76,guess,win,5,left,5,guess_start,537,space,0,0,546,129609,1092758
37,18,female,Belgium,2,76,guess,win,5,left,5,guess_choice,781,f,0,0,546,128826,1093541
37,18,female,Belgium,2,76,guess,win,5,left,5,guess_outcome,0,undefined,0,0,566,127271,1095096
37,18,female,Belgium,2,76,ITC,win,5,left,5,ITC_start,452,space,0,0,566,126817,1095550
37,18,female,Belgium,2,76,ITC,win,5,left,5,ITC_choice,606,j,0,0,566,126210,1096157
37,18,female,Belgium,2,76,ITC,win,5,left,5,ITC_wait,0,undefined,0,0,566,126207,1096160
37,18,female,Belgium,2,76,ITC,win,5,left,5,ITC_collect,701,k,0,0,566,125505,1096862
37,18,female,Belgium,2,76,ITC,win,5,left,5,ITC_outcome,0,undefined,0,0,571,124500,1097867
37,18,female,Belgium,2,77,guess,loss,10,left,5,guess_start,649,space,0,0,571,123849,1098518
37,18,female,Belgium,2,77,guess,loss,10,left,5,guess_choice,453,j,0,0,571,123393,1098974
37,18,female,Belgium,2,77,guess,loss,10,left,5,guess_outcome,0,undefined,0,0,556,121836,1100531
37,18,female,Belgium,2,77,ITC,loss,10,left,5,ITC_start,465,space,0,0,556,121369,1100998
37,18,female,Belgium,2,77,ITC,loss,10,left,5,ITC_choice,1295,j,0,0,556,120073,1102294
37,18,female,Belgium,2,77,ITC,loss,10,left,5,ITC_wait,0,undefined,0,0,556,120071,1102296
37,18,female,Belgium,2,77,ITC,loss,10,left,5,ITC_collect,620,k,0,0,556,119449,1102918
37,18,female,Belgium,2,77,ITC,loss,10,left,5,ITC_outcome,0,undefined,0,0,561,118446,1103921
37,18,female,Belgium,2,78,guess,neutral,5,right,4,guess_start,507,space,0,0,561,117937,1104430
37,18,female,Belgium,2,78,guess,neutral,5,right,4,guess_choice,886,j,0,0,561,117049,1105318
37,18,female,Belgium,2,78,guess,neutral,5,right,4,guess_outcome,0,undefined,0,0,561,115495,1106872
37,18,female,Belgium,2,78,ITC,neutral,5,right,4,ITC_start,525,space,0,0,561,114969,1107398
37,18,female,Belgium,2,78,ITC,neutral,5,right,4,ITC_choice,1231,j,0,0,561,113737,1108630
37,18,female,Belgium,2,78,ITC,neutral,5,right,4,ITC_wait,0,undefined,0,0,561,108730,1113637
37,18,female,Belgium,2,78,ITC,neutral,5,right,4,ITC_collect,474,k,0,0,561,108255,1114112
37,18,female,Belgium,2,78,ITC,neutral,5,right,4,ITC_outcome,0,undefined,0,0,581,107252,1115115
37,18,female,Belgium,2,79,guess,loss,5,right,15,guess_start,482,space,0,0,581,106767,1115600
37,18,female,Belgium,2,79,guess,loss,5,right,15,guess_choice,717,f,0,0,581,106047,1116320
37,18,female,Belgium,2,79,guess,loss,5,right,15,guess_outcome,0,undefined,0,0,566,104489,1117878
37,18,female,Belgium,2,79,ITC,loss,5,right,15,ITC_start,513,space,0,0,566,103975,1118392
37,18,female,Belgium,2,79,ITC,loss,5,right,15,ITC_choice,983,j,0,0,566,102991,1119376
37,18,female,Belgium,2,79,ITC,loss,5,right,15,ITC_wait,0,undefined,0,0,566,97988,1124379
37,18,female,Belgium,2,79,ITC,loss,5,right,15,ITC_collect,457,k,0,0,566,97529,1124838
37,18,female,Belgium,2,79,ITC,loss,5,right,15,ITC_outcome,0,undefined,0,0,586,96525,1125842
37,18,female,Belgium,2,80,guess,loss,5,right,3,guess_start,474,space,0,0,586,96049,1126318
37,18,female,Belgium,2,80,guess,loss,5,right,3,guess_choice,773,f,0,0,586,95273,1127094
37,18,female,Belgium,2,80,guess,loss,5,right,3,guess_outcome,0,undefined,0,0,571,93720,1128647
37,18,female,Belgium,2,80,ITC,loss,5,right,3,ITC_start,469,space,0,0,571,93249,1129118
37,18,female,Belgium,2,80,ITC,loss,5,right,3,ITC_choice,1150,j,0,0,571,92097,1130270
37,18,female,Belgium,2,80,ITC,loss,5,right,3,ITC_wait,0,undefined,0,0,571,87093,1135274
37,18,female,Belgium,2,80,ITC,loss,5,right,3,ITC_collect,331,k,0,0,571,86761,1135606
37,18,female,Belgium,2,80,ITC,loss,5,right,3,ITC_outcome,0,undefined,0,0,591,85756,1136611
37,18,female,Belgium,2,81,guess,neutral,5,right,8,guess_start,473,space,0,0,591,85281,1137086
37,18,female,Belgium,2,81,guess,neutral,5,right,8,guess_choice,757,j,0,0,591,84521,1137846
37,18,female,Belgium,2,81,guess,neutral,5,right,8,guess_outcome,0,undefined,0,0,591,82963,1139404
37,18,female,Belgium,2,81,ITC,neutral,5,right,8,ITC_start,569,space,0,0,591,82393,1139974
37,18,female,Belgium,2,81,ITC,neutral,5,right,8,ITC_choice,886,f,0,0,591,81505,1140862
37,18,female,Belgium,2,81,ITC,neutral,5,right,8,ITC_wait,0,undefined,0,0,591,81503,1140864
37,18,female,Belgium,2,81,ITC,neutral,5,right,8,ITC_collect,1028,k,0,0,591,80473,1141894
37,18,female,Belgium,2,81,ITC,neutral,5,right,8,ITC_outcome,0,undefined,0,0,599,79467,1142900
37,18,female,Belgium,2,82,guess,loss,5,left,16,guess_start,489,space,0,0,599,78976,1143391
37,18,female,Belgium,2,82,guess,loss,5,left,16,guess_choice,685,f,0,0,599,78289,1144078
37,18,female,Belgium,2,82,guess,loss,5,left,16,guess_outcome,0,undefined,0,0,584,76735,1145632
37,18,female,Belgium,2,82,ITC,loss,5,left,16,ITC_start,429,space,0,0,584,76304,1146063
37,18,female,Belgium,2,82,ITC,loss,5,left,16,ITC_choice,838,j,0,0,584,75465,1146902
37,18,female,Belgium,2,82,ITC,loss,5,left,16,ITC_wait,0,undefined,0,0,584,75462,1146905
37,18,female,Belgium,2,82,ITC,loss,5,left,16,ITC_collect,756,k,0,0,584,74705,1147662
37,18,female,Belgium,2,82,ITC,loss,5,left,16,ITC_outcome,0,undefined,0,0,600,73698,1148669
37,18,female,Belgium,2,83,guess,neutral,5,left,1,guess_start,616,space,0,0,600,73080,1149287
37,18,female,Belgium,2,83,guess,neutral,5,left,1,guess_choice,461,j,0,0,600,72616,1149751
37,18,female,Belgium,2,83,guess,neutral,5,left,1,guess_outcome,0,undefined,0,0,600,71060,1151307
37,18,female,Belgium,2,83,ITC,neutral,5,left,1,ITC_start,522,space,0,0,600,70536,1151831
37,18,female,Belgium,2,83,ITC,neutral,5,left,1,ITC_choice,1167,f,0,0,600,69369,1152998
37,18,female,Belgium,2,83,ITC,neutral,5,left,1,ITC_wait,0,undefined,0,0,600,64362,1158005
37,18,female,Belgium,2,83,ITC,neutral,5,left,1,ITC_collect,468,k,0,0,600,63892,1158475
37,18,female,Belgium,2,83,ITC,neutral,5,left,1,ITC_outcome,0,undefined,0,0,620,62886,1159481
37,18,female,Belgium,2,84,guess,neutral,10,right,5,guess_start,719,space,0,0,620,62164,1160203
37,18,female,Belgium,2,84,guess,neutral,10,right,5,guess_choice,661,f,0,0,620,61500,1160867
37,18,female,Belgium,2,84,guess,neutral,10,right,5,guess_outcome,0,undefined,0,0,620,59944,1162423
37,18,female,Belgium,2,84,ITC,neutral,10,right,5,ITC_start,643,space,0,0,620,59300,1163067
37,18,female,Belgium,2,84,ITC,neutral,10,right,5,ITC_choice,943,f,0,0,620,58356,1164011
37,18,female,Belgium,2,84,ITC,neutral,10,right,5,ITC_wait,0,undefined,0,0,620,58353,1164014
37,18,female,Belgium,2,84,ITC,neutral,10,right,5,ITC_collect,1164,k,0,0,620,57188,1165179
37,18,female,Belgium,2,84,ITC,neutral,10,right,5,ITC_outcome,0,undefined,0,0,625,56183,1166184
37,18,female,Belgium,2,85,guess,neutral,5,left,14,guess_start,521,space,0,0,625,55660,1166707
37,18,female,Belgium,2,85,guess,neutral,5,left,14,guess_choice,677,f,0,0,625,54980,1167387
37,18,female,Belgium,2,85,guess,neutral,5,left,14,guess_outcome,0,undefined,0,0,625,53428,1168939
37,18,female,Belgium,2,85,ITC,neutral,5,left,14,ITC_start,518,space,0,0,625,52908,1169459
37,18,female,Belgium,2,85,ITC,neutral,5,left,14,ITC_choice,815,j,0,0,625,52092,1170275
37,18,female,Belgium,2,85,ITC,neutral,5,left,14,ITC_wait,0,undefined,0,0,625,52090,1170277
37,18,female,Belgium,2,85,ITC,neutral,5,left,14,ITC_collect,620,k,0,0,625,51468,1170899
37,18,female,Belgium,2,85,ITC,neutral,5,left,14,ITC_outcome,0,undefined,0,0,639,50463,1171904
37,18,female,Belgium,2,86,guess,win,5,right,8,guess_start,361,space,0,0,639,50100,1172267
37,18,female,Belgium,2,86,guess,win,5,right,8,guess_choice,886,f,0,0,639,49212,1173155
37,18,female,Belgium,2,86,guess,win,5,right,8,guess_outcome,0,undefined,0,0,659,47657,1174710
37,18,female,Belgium,2,86,ITC,win,5,right,8,ITC_start,443,space,0,0,659,47212,1175155
37,18,female,Belgium,2,86,ITC,win,5,right,8,ITC_choice,1079,j,0,0,659,46132,1176235
37,18,female,Belgium,2,86,ITC,win,5,right,8,ITC_wait,0,undefined,0,0,659,41126,1181241
37,18,female,Belgium,2,86,ITC,win,5,right,8,ITC_collect,359,k,0,0,659,40766,1181601
37,18,female,Belgium,2,86,ITC,win,5,right,8,ITC_outcome,0,undefined,0,0,679,39761,1182606
37,18,female,Belgium,2,87,guess,win,5,right,11,guess_start,634,space,0,0,679,39125,1183242
37,18,female,Belgium,2,87,guess,win,5,right,11,guess_choice,645,f,0,0,679,38478,1183889
37,18,female,Belgium,2,87,guess,win,5,right,11,guess_outcome,0,undefined,0,0,699,36923,1185444
37,18,female,Belgium,2,87,ITC,win,5,right,11,ITC_start,556,space,0,0,699,36366,1186001
37,18,female,Belgium,2,87,ITC,win,5,right,11,ITC_choice,1095,f,0,0,699,35270,1187097
37,18,female,Belgium,2,87,ITC,win,5,right,11,ITC_wait,0,undefined,0,0,699,35268,1187099
37,18,female,Belgium,2,87,ITC,win,5,right,11,ITC_collect,869,k,0,0,699,34398,1187969
37,18,female,Belgium,2,87,ITC,win,5,right,11,ITC_outcome,0,undefined,0,0,710,33395,1188972
37,18,female,Belgium,2,88,guess,win,5,right,9,guess_start,444,space,0,0,710,32949,1189418
37,18,female,Belgium,2,88,guess,win,5,right,9,guess_choice,717,f,0,0,710,32229,1190138
37,18,female,Belgium,2,88,guess,win,5,right,9,guess_outcome,0,undefined,0,0,730,30673,1191694
37,18,female,Belgium,2,88,ITC,win,5,right,9,ITC_start,490,space,0,0,730,30181,1192186
37,18,female,Belgium,2,88,ITC,win,5,right,9,ITC_choice,926,f,0,0,730,29254,1193113
37,18,female,Belgium,2,88,ITC,win,5,right,9,ITC_wait,0,undefined,0,0,730,29252,1193115
37,18,female,Belgium,2,88,ITC,win,5,right,9,ITC_collect,493,k,0,0,730,28757,1193610
37,18,female,Belgium,2,88,ITC,win,5,right,9,ITC_outcome,0,undefined,0,0,739,27751,1194616
37,18,female,Belgium,2,89,guess,loss,5,right,1,guess_start,607,space,0,0,739,27142,1195225
37,18,female,Belgium,2,89,guess,loss,5,right,1,guess_choice,613,j,0,0,739,26526,1195841
37,18,female,Belgium,2,89,guess,loss,5,right,1,guess_outcome,0,undefined,0,0,724,24971,1197396
37,18,female,Belgium,2,89,ITC,loss,5,right,1,ITC_start,477,space,0,0,724,24493,1197874
37,18,female,Belgium,2,89,ITC,loss,5,right,1,ITC_choice,1671,j,0,0,724,22821,1199546
37,18,female,Belgium,2,89,ITC,loss,5,right,1,ITC_wait,0,undefined,0,0,724,17818,1204549
37,18,female,Belgium,2,89,ITC,loss,5,right,1,ITC_collect,784,k,0,0,724,17032,1205335
37,18,female,Belgium,2,89,ITC,loss,5,right,1,ITC_outcome,0,undefined,0,0,744,16026,1206341
37,18,female,Belgium,2,90,guess,loss,5,right,13,guess_start,456,space,0,0,744,15568,1206799
37,18,female,Belgium,2,90,guess,loss,5,right,13,guess_choice,637,f,0,0,744,14928,1207439
37,18,female,Belgium,2,90,guess,loss,5,right,13,guess_outcome,0,undefined,0,0,729,13373,1208994
37,18,female,Belgium,2,90,ITC,loss,5,right,13,ITC_start,708,space,0,0,729,12664,1209703
37,18,female,Belgium,2,90,ITC,loss,5,right,13,ITC_choice,895,j,0,0,729,11768,1210599
37,18,female,Belgium,2,90,ITC,loss,5,right,13,ITC_wait,0,undefined,0,0,729,6764,1215603
37,18,female,Belgium,2,90,ITC,loss,5,right,13,ITC_collect,368,k,0,0,729,6394,1215973
37,18,female,Belgium,2,90,ITC,loss,5,right,13,ITC_outcome,0,undefined,0,0,749,5389,1216978
37,18,female,Belgium,2,91,guess,neutral,5,right,12,guess_start,384,space,0,0,749,5003,1217364
37,18,female,Belgium,2,91,guess,neutral,5,right,12,guess_choice,614,f,0,0,749,4386,1217981
37,18,female,Belgium,2,91,guess,neutral,5,right,12,guess_outcome,0,undefined,0,0,749,2828,1219539
37,18,female,Belgium,2,91,ITC,neutral,5,right,12,ITC_start,745,space,0,0,749,2082,1220285
37,18,female,Belgium,2,91,ITC,neutral,5,right,12,ITC_choice,1047,f,0,0,749,1034,1221333
37,18,female,Belgium,2,91,ITC,neutral,5,right,12,ITC_wait,0,undefined,0,0,749,1032,1221335
37,18,female,Belgium,2,91,ITC,neutral,5,right,12,ITC_collect,644,k,0,0,749,387,1221980
37,18,female,Belgium,2,91,ITC,neutral,5,right,12,ITC_outcome,0,undefined,0,0,761,-6,1222373
37,18,female,Belgium,3,92,guess,loss,10,left,3,guess_start,1076,space,0,0,0,478923,1235943
37,18,female,Belgium,3,92,guess,loss,10,left,3,guess_choice,981,f,0,0,0,477939,1236927
37,18,female,Belgium,3,92,guess,loss,10,left,3,guess_outcome,0,undefined,0,0,-15,476381,1238485
37,18,female,Belgium,3,92,ITC,loss,10,left,3,ITC_start,1032,space,0,0,-15,475347,1239519
37,18,female,Belgium,3,92,ITC,loss,10,left,3,ITC_choice,1391,f,0,0,-15,473955,1240911
37,18,female,Belgium,3,92,ITC,loss,10,left,3,ITC_wait,0,undefined,0,0,-15,463948,1250918
37,18,female,Belgium,3,92,ITC,loss,10,left,3,ITC_collect,475,k,0,0,-15,463472,1251394
37,18,female,Belgium,3,92,ITC,loss,10,left,3,ITC_outcome,0,undefined,0,0,5,462466,1252400
37,18,female,Belgium,3,93,guess,neutral,10,right,3,guess_start,544,space,0,0,5,461921,1252945
37,18,female,Belgium,3,93,guess,neutral,10,right,3,guess_choice,638,j,0,0,5,461280,1253586
37,18,female,Belgium,3,93,guess,neutral,10,right,3,guess_outcome,0,undefined,0,0,5,459725,1255141
37,18,female,Belgium,3,93,ITC,neutral,10,right,3,ITC_start,1059,space,0,0,5,458664,1256202
37,18,female,Belgium,3,93,ITC,neutral,10,right,3,ITC_choice,999,f,0,0,5,457664,1257202
37,18,female,Belgium,3,93,ITC,neutral,10,right,3,ITC_wait,0,undefined,0,0,5,457662,1257204
37,18,female,Belgium,3,93,ITC,neutral,10,right,3,ITC_collect,652,k,0,0,5,457008,1257858
37,18,female,Belgium,3,93,ITC,neutral,10,right,3,ITC_outcome,0,undefined,0,0,8,456002,1258864
37,18,female,Belgium,3,94,guess,neutral,10,left,4,guess_start,440,space,0,0,8,455560,1259306
37,18,female,Belgium,3,94,guess,neutral,10,left,4,guess_choice,685,j,0,0,8,454872,1259994
37,18,female,Belgium,3,94,guess,neutral,10,left,4,guess_outcome,0,undefined,0,0,8,453317,1261549
37,18,female,Belgium,3,94,ITC,neutral,10,left,4,ITC_start,500,space,0,0,8,452816,1262050
37,18,female,Belgium,3,94,ITC,neutral,10,left,4,ITC_choice,791,j,0,0,8,452024,1262842
37,18,female,Belgium,3,94,ITC,neutral,10,left,4,ITC_wait,0,undefined,0,0,8,452022,1262844
37,18,female,Belgium,3,94,ITC,neutral,10,left,4,ITC_collect,356,k,0,0,8,451664,1263202
37,18,female,Belgium,3,94,ITC,neutral,10,left,4,ITC_outcome,0,undefined,0,0,12,450659,1264207
37,18,female,Belgium,3,95,guess,loss,5,right,5,guess_start,361,space,0,0,12,450296,1264570
37,18,female,Belgium,3,95,guess,loss,5,right,5,guess_choice,645,f,0,0,12,449648,1265218
37,18,female,Belgium,3,95,guess,loss,5,right,5,guess_outcome,0,undefined,0,0,-3,448090,1266776
37,18,female,Belgium,3,95,ITC,loss,5,right,5,ITC_start,425,space,0,0,-3,447664,1267202
37,18,female,Belgium,3,95,ITC,loss,5,right,5,ITC_choice,879,j,0,0,-3,446784,1268082
37,18,female,Belgium,3,95,ITC,loss,5,right,5,ITC_wait,0,undefined,0,0,-3,441778,1273088
37,18,female,Belgium,3,95,ITC,loss,5,right,5,ITC_collect,494,k,0,0,-3,441282,1273584
37,18,female,Belgium,3,95,ITC,loss,5,right,5,ITC_outcome,0,undefined,0,0,17,440278,1274588
37,18,female,Belgium,3,96,guess,loss,10,right,2,guess_start,434,space,0,0,17,439842,1275024
37,18,female,Belgium,3,96,guess,loss,10,right,2,guess_choice,1485,f,0,0,17,438354,1276512
37,18,female,Belgium,3,96,guess,loss,10,right,2,guess_outcome,0,undefined,0,0,2,436796,1278070
37,18,female,Belgium,3,96,ITC,loss,10,right,2,ITC_start,457,space,0,0,2,436338,1278528
37,18,female,Belgium,3,96,ITC,loss,10,right,2,ITC_choice,934,f,0,0,2,435402,1279464
37,18,female,Belgium,3,96,ITC,loss,10,right,2,ITC_wait,0,undefined,0,0,2,435400,1279466
37,18,female,Belgium,3,96,ITC,loss,10,right,2,ITC_collect,564,k,0,0,2,434834,1280032
37,18,female,Belgium,3,96,ITC,loss,10,right,2,ITC_outcome,0,undefined,0,0,4,433829,1281037
37,18,female,Belgium,3,97,guess,loss,5,right,2,guess_start,418,space,0,0,4,433410,1281456
37,18,female,Belgium,3,97,guess,loss,5,right,2,guess_choice,373,j,0,0,4,433035,1281831
37,18,female,Belgium,3,97,guess,loss,5,right,2,guess_outcome,0,undefined,0,0,-11,431477,1283389
37,18,female,Belgium,3,97,ITC,loss,5,right,2,ITC_start,402,space,0,0,-11,431074,1283792
37,18,female,Belgium,3,97,ITC,loss,5,right,2,ITC_choice,750,j,0,0,-11,430322,1284544
37,18,female,Belgium,3,97,ITC,loss,5,right,2,ITC_wait,0,undefined,0,0,-11,425319,1289547
37,18,female,Belgium,3,97,ITC,loss,5,right,2,ITC_collect,1288,k,0,0,-11,424030,1290836
37,18,female,Belgium,3,97,ITC,loss,5,right,2,ITC_outcome,0,undefined,0,0,9,423024,1291842
37,18,female,Belgium,3,98,guess,win,5,right,2,guess_start,489,space,0,0,9,422534,1292332
37,18,female,Belgium,3,98,guess,win,5,right,2,guess_choice,757,f,0,0,9,421774,1293092
37,18,female,Belgium,3,98,guess,win,5,right,2,guess_outcome,0,undefined,0,0,29,420219,1294647
37,18,female,Belgium,3,98,ITC,win,5,right,2,ITC_start,525,space,0,0,29,419693,1295173
37,18,female,Belgium,3,98,ITC,win,5,right,2,ITC_choice,958,j,0,0,29,418734,1296132
37,18,female,Belgium,3,98,ITC,win,5,right,2,ITC_wait,0,undefined,0,0,29,413727,1301139
37,18,female,Belgium,3,98,ITC,win,5,right,2,ITC_collect,614,k,0,0,29,413112,1301754
37,18,female,Belgium,3,98,ITC,win,5,right,2,ITC_outcome,0,undefined,0,0,49,412106,1302760
37,18,female,Belgium,3,99,guess,neutral,10,right,2,guess_start,576,space,0,0,49,411528,1303338
37,18,female,Belgium,3,99,guess,neutral,10,right,2,guess_choice,645,f,0,0,49,410880,1303986
37,18,female,Belgium,3,99,guess,neutral,10,right,2,guess_outcome,0,undefined,0,0,49,409324,1305542
37,18,female,Belgium,3,99,ITC,neutral,10,right,2,ITC_start,515,space,0,0,49,408808,1306058
37,18,female,Belgium,3,99,ITC,neutral,10,right,2,ITC_choice,790,f,0,0,49,408016,1306850
37,18,female,Belgium,3,99,ITC,neutral,10,right,2,ITC_wait,0,undefined,0,0,49,408013,1306853
37,18,female,Belgium,3,99,ITC,neutral,10,right,2,ITC_collect,596,k,0,0,49,407416,1307450
37,18,female,Belgium,3,99,ITC,neutral,10,right,2,ITC_outcome,0,undefined,0,0,51,406412,1308454
37,18,female,Belgium,3,100,guess,win,5,left,15,guess_start,402,space,0,0,51,406008,1308858
37,18,female,Belgium,3,100,guess,win,5,left,15,guess_choice,606,f,0,0,51,405400,1309466
37,18,female,Belgium,3,100,guess,win,5,left,15,guess_outcome,0,undefined,0,0,71,403845,1311021
37,18,female,Belgium,3,100,ITC,win,5,left,15,ITC_start,468,space,0,0,71,403376,1311490
37,18,female,Belgium,3,100,ITC,win,5,left,15,ITC_choice,2151,j,0,0,71,401224,1313642
37,18,female,Belgium,3,100,ITC,win,5,left,15,ITC_wait,0,undefined,0,0,71,401222,1313644
37,18,female,Belgium,3,100,ITC,win,5,left,15,ITC_collect,532,k,0,0,71,400688,1314178
37,18,female,Belgium,3,100,ITC,win,5,left,15,ITC_outcome,0,undefined,0,0,86,399683,1315183
37,18,female,Belgium,3,101,guess,neutral,5,left,6,guess_start,545,space,0,0,86,399135,1315731
37,18,female,Belgium,3,101,guess,neutral,5,left,6,guess_choice,1157,f,0,0,86,397976,1316890
37,18,female,Belgium,3,101,guess,neutral,5,left,6,guess_outcome,0,undefined,0,0,86,396422,1318444
37,18,female,Belgium,3,101,ITC,neutral,5,left,6,ITC_start,1109,space,0,0,86,395312,1319554
37,18,female,Belgium,3,101,ITC,neutral,5,left,6,ITC_choice,999,j,0,0,86,394312,1320554
37,18,female,Belgium,3,101,ITC,neutral,5,left,6,ITC_wait,0,undefined,0,0,86,394309,1320557
37,18,female,Belgium,3,101,ITC,neutral,5,left,6,ITC_collect,508,k,0,0,86,393800,1321066
37,18,female,Belgium,3,101,ITC,neutral,5,left,6,ITC_outcome,0,undefined,0,0,92,392794,1322072
37,18,female,Belgium,3,102,guess,loss,10,right,1,guess_start,401,space,0,0,92,392391,1322475
37,18,female,Belgium,3,102,guess,loss,10,right,1,guess_choice,661,f,0,0,92,391727,1323139
37,18,female,Belgium,3,102,guess,loss,10,right,1,guess_outcome,0,undefined,0,0,77,390173,1324693
37,18,female,Belgium,3,102,ITC,loss,10,right,1,ITC_start,431,space,0,0,77,389741,1325125
37,18,female,Belgium,3,102,ITC,loss,10,right,1,ITC_choice,813,f,0,0,77,388927,1325939
37,18,female,Belgium,3,102,ITC,loss,10,right,1,ITC_wait,0,undefined,0,0,77,388925,1325941
37,18,female,Belgium,3,102,ITC,loss,10,right,1,ITC_collect,445,k,0,0,77,388479,1326387
37,18,female,Belgium,3,102,ITC,loss,10,right,1,ITC_outcome,0,undefined,0,0,78,387476,1327390
37,18,female,Belgium,3,103,guess,neutral,5,left,11,guess_start,419,space,0,0,78,387055,1327811
37,18,female,Belgium,3,103,guess,neutral,5,left,11,guess_choice,917,j,0,0,78,386135,1328731
37,18,female,Belgium,3,103,guess,neutral,5,left,11,guess_outcome,0,undefined,0,0,78,384578,1330288
37,18,female,Belgium,3,103,ITC,neutral,5,left,11,ITC_start,217,space,0,0,78,384359,1330507
37,18,female,Belgium,3,103,ITC,neutral,5,left,11,ITC_choice,807,j,0,0,78,383551,1331315
37,18,female,Belgium,3,103,ITC,neutral,5,left,11,ITC_wait,0,undefined,0,0,78,383549,1331317
37,18,female,Belgium,3,103,ITC,neutral,5,left,11,ITC_collect,476,k,0,0,78,383072,1331794
37,18,female,Belgium,3,103,ITC,neutral,5,left,11,ITC_outcome,0,undefined,0,0,89,382066,1332800
37,18,female,Belgium,3,104,guess,loss,10,left,7,guess_start,441,space,0,0,89,381623,1333243
37,18,female,Belgium,3,104,guess,loss,10,left,7,guess_choice,757,j,0,0,89,380863,1334003
37,18,female,Belgium,3,104,guess,loss,10,left,7,guess_outcome,0,undefined,0,0,74,379307,1335559
37,18,female,Belgium,3,104,ITC,loss,10,left,7,ITC_start,556,space,0,0,74,378749,1336117
37,18,female,Belgium,3,104,ITC,loss,10,left,7,ITC_choice,701,j,0,0,74,378047,1336819
37,18,female,Belgium,3,104,ITC,loss,10,left,7,ITC_wait,0,undefined,0,0,74,378043,1336823
37,18,female,Belgium,3,104,ITC,loss,10,left,7,ITC_collect,299,k,0,0,74,377743,1337123
37,18,female,Belgium,3,104,ITC,loss,10,left,7,ITC_outcome,0,undefined,0,0,81,376740,1338126
37,18,female,Belgium,3,105,guess,loss,5,right,7,guess_start,459,space,0,0,81,376279,1338587
37,18,female,Belgium,3,105,guess,loss,5,right,7,guess_choice,565,f,0,0,81,375711,1339155
37,18,female,Belgium,3,105,guess,loss,5,right,7,guess_outcome,0,undefined,0,0,66,374154,1340712
37,18,female,Belgium,3,105,ITC,loss,5,right,7,ITC_start,580,space,0,0,66,373573,1341293
37,18,female,Belgium,3,105,ITC,loss,5,right,7,ITC_choice,925,j,0,0,66,372647,1342219
37,18,female,Belgium,3,105,ITC,loss,5,right,7,ITC_wait,0,undefined,0,0,66,367640,1347226
37,18,female,Belgium,3,105,ITC,loss,5,right,7,ITC_collect,562,k,0,0,66,367077,1347789
37,18,female,Belgium,3,105,ITC,loss,5,right,7,ITC_outcome,0,undefined,0,0,86,366071,1348795
37,18,female,Belgium,3,106,guess,win,5,right,1,guess_start,424,space,0,0,86,365645,1349221
37,18,female,Belgium,3,106,guess,win,5,right,1,guess_choice,542,f,0,0,86,365101,1349765
37,18,female,Belgium,3,106,guess,win,5,right,1,guess_outcome,0,undefined,0,0,106,363547,1351319
37,18,female,Belgium,3,106,ITC,win,5,right,1,ITC_start,468,space,0,0,106,363077,1351789
37,18,female,Belgium,3,106,ITC,win,5,right,1,ITC_choice,990,j,0,0,106,362085,1352781
37,18,female,Belgium,3,106,ITC,win,5,right,1,ITC_wait,0,undefined,0,0,106,357080,1357786
37,18,female,Belgium,3,106,ITC,win,5,right,1,ITC_collect,425,k,0,0,106,356653,1358213
37,18,female,Belgium,3,106,ITC,win,5,right,1,ITC_outcome,0,undefined,0,0,126,355648,1359218
37,18,female,Belgium,3,107,guess,win,10,right,6,guess_start,537,space,0,0,126,355109,1359757
37,18,female,Belgium,3,107,guess,win,10,right,6,guess_choice,693,f,0,0,126,354413,1360453
37,18,female,Belgium,3,107,guess,win,10,right,6,guess_outcome,0,undefined,0,0,146,352859,1362007
37,18,female,Belgium,3,107,ITC,win,10,right,6,ITC_start,444,space,0,0,146,352413,1362453
37,18,female,Belgium,3,107,ITC,win,10,right,6,ITC_choice,670,j,0,0,146,351741,1363125
37,18,female,Belgium,3,107,ITC,win,10,right,6,ITC_wait,0,undefined,0,0,146,341735,1373131
37,18,female,Belgium,3,107,ITC,win,10,right,6,ITC_collect,505,k,0,0,146,341228,1373638
37,18,female,Belgium,3,107,ITC,win,10,right,6,ITC_outcome,0,undefined,0,0,166,340222,1374644
37,18,female,Belgium,3,108,guess,win,10,right,8,guess_start,528,space,0,0,166,339692,1375174
37,18,female,Belgium,3,108,guess,win,10,right,8,guess_choice,630,f,0,0,166,339060,1375806
37,18,female,Belgium,3,108,guess,win,10,right,8,guess_outcome,0,undefined,0,0,186,337504,1377362
37,18,female,Belgium,3,108,ITC,win,10,right,8,ITC_start,618,space,0,0,186,336884,1377982
37,18,female,Belgium,3,108,ITC,win,10,right,8,ITC_choice,791,j,0,0,186,336092,1378774
37,18,female,Belgium,3,108,ITC,win,10,right,8,ITC_wait,0,undefined,0,0,186,326085,1388781
37,18,female,Belgium,3,108,ITC,win,10,right,8,ITC_collect,1341,k,0,0,186,324742,1390124
37,18,female,Belgium,3,108,ITC,win,10,right,8,ITC_outcome,0,undefined,0,0,206,323739,1391127
37,18,female,Belgium,3,109,guess,win,10,right,3,guess_start,882,space,0,0,206,322855,1392011
37,18,female,Belgium,3,109,guess,win,10,right,3,guess_choice,605,j,0,0,206,322247,1392619
37,18,female,Belgium,3,109,guess,win,10,right,3,guess_outcome,0,undefined,0,0,226,320694,1394172
37,18,female,Belgium,3,109,ITC,win,10,right,3,ITC_start,661,space,0,0,226,320031,1394835
37,18,female,Belgium,3,109,ITC,win,10,right,3,ITC_choice,846,f,0,0,226,319183,1395683
37,18,female,Belgium,3,109,ITC,win,10,right,3,ITC_wait,0,undefined,0,0,226,319180,1395686
37,18,female,Belgium,3,109,ITC,win,10,right,3,ITC_collect,411,k,0,0,226,318767,1396099
37,18,female,Belgium,3,109,ITC,win,10,right,3,ITC_outcome,0,undefined,0,0,229,317762,1397104
37,18,female,Belgium,3,110,guess,neutral,5,right,13,guess_start,482,space,0,0,229,317278,1397588
37,18,female,Belgium,3,110,guess,neutral,5,right,13,guess_choice,341,f,0,0,229,316935,1397931
37,18,female,Belgium,3,110,guess,neutral,5,right,13,guess_outcome,0,undefined,0,0,229,315377,1399489
37,18,female,Belgium,3,110,ITC,neutral,5,right,13,ITC_start,625,space,0,0,229,314751,1400115
37,18,female,Belgium,3,110,ITC,neutral,5,right,13,ITC_choice,1206,f,0,0,229,313543,1401323
37,18,female,Belgium,3,110,ITC,neutral,5,right,13,ITC_wait,0,undefined,0,0,229,313541,1401325
37,18,female,Belgium,3,110,ITC,neutral,5,right,13,ITC_collect,1235,k,0,0,229,312303,1402563
37,18,female,Belgium,3,110,ITC,neutral,5,right,13,ITC_outcome,0,undefined,0,0,242,311297,1403569
37,18,female,Belgium,3,111,guess,win,10,right,1,guess_start,825,space,0,0,242,310471,1404395
37,18,female,Belgium,3,111,guess,win,10,right,1,guess_choice,774,f,0,0,242,309695,1405171
37,18,female,Belgium,3,111,guess,win,10,right,1,guess_outcome,0,undefined,0,0,262,308140,1406726
37,18,female,Belgium,3,111,ITC,win,10,right,1,ITC_start,508,space,0,0,262,307631,1407235
37,18,female,Belgium,3,111,ITC,win,10,right,1,ITC_choice,815,f,0,0,262,306815,1408051
37,18,female,Belgium,3,111,ITC,win,10,right,1,ITC_wait,0,undefined,0,0,262,306812,1408054
37,18,female,Belgium,3,111,ITC,win,10,right,1,ITC_collect,540,k,0,0,262,306271,1408595
37,18,female,Belgium,3,111,ITC,win,10,right,1,ITC_outcome,0,undefined,0,0,263,305265,1409601
37,18,female,Belgium,3,112,guess,win,10,right,7,guess_start,913,space,0,0,263,304351,1410515
37,18,female,Belgium,3,112,guess,win,10,right,7,guess_choice,333,f,0,0,263,304015,1410851
37,18,female,Belgium,3,112,guess,win,10,right,7,guess_outcome,0,undefined,0,0,283,302457,1412409
37,18,female,Belgium,3,112,ITC,win,10,right,7,ITC_start,641,space,0,0,283,301814,1413052
37,18,female,Belgium,3,112,ITC,win,10,right,7,ITC_choice,806,f,0,0,283,301007,1413859
37,18,female,Belgium,3,112,ITC,win,10,right,7,ITC_wait,0,undefined,0,0,283,301004,1413862
37,18,female,Belgium,3,112,ITC,win,10,right,7,ITC_collect,387,k,0,0,283,300615,1414251
37,18,female,Belgium,3,112,ITC,win,10,right,7,ITC_outcome,0,undefined,0,0,290,299609,1415257
37,18,female,Belgium,3,113,guess,win,5,left,13,guess_start,1290,space,0,0,290,298316,1416550
37,18,female,Belgium,3,113,guess,win,5,left,13,guess_choice,1371,j,0,0,290,296942,1417924
37,18,female,Belgium,3,113,guess,win,5,left,13,guess_outcome,0,undefined,0,0,310,295387,1419479
37,18,female,Belgium,3,113,ITC,win,5,left,13,ITC_start,442,space,0,0,310,294942,1419924
37,18,female,Belgium,3,113,ITC,win,5,left,13,ITC_choice,1358,j,0,0,310,293582,1421284
37,18,female,Belgium,3,113,ITC,win,5,left,13,ITC_wait,0,undefined,0,0,310,293580,1421286
37,18,female,Belgium,3,113,ITC,win,5,left,13,ITC_collect,428,k,0,0,310,293151,1421715
37,18,female,Belgium,3,113,ITC,win,5,left,13,ITC_outcome,0,undefined,0,0,323,292145,1422721
37,18,female,Belgium,3,114,guess,win,5,left,16,guess_start,433,space,0,0,323,291710,1423156
37,18,female,Belgium,3,114,guess,win,5,left,16,guess_choice,589,f,0,0,323,291118,1423748
37,18,female,Belgium,3,114,guess,win,5,left,16,guess_outcome,0,undefined,0,0,343,289564,1425302
37,18,female,Belgium,3,114,ITC,win,5,left,16,ITC_start,687,space,0,0,343,288876,1425990
37,18,female,Belgium,3,114,ITC,win,5,left,16,ITC_choice,1204,j,0,0,343,287670,1427196
37,18,female,Belgium,3,114,ITC,win,5,left,16,ITC_wait,0,undefined,0,0,343,287668,1427198
37,18,female,Belgium,3,114,ITC,win,5,left,16,ITC_collect,340,k,0,0,343,287326,1427540
37,18,female,Belgium,3,114,ITC,win,5,left,16,ITC_outcome,0,undefined,0,0,359,286321,1428545
37,18,female,Belgium,3,115,guess,neutral,10,right,7,guess_start,737,space,0,0,359,285582,1429284
37,18,female,Belgium,3,115,guess,neutral,10,right,7,guess_choice,854,f,0,0,359,284726,1430140
37,18,female,Belgium,3,115,guess,neutral,10,right,7,guess_outcome,0,undefined,0,0,359,283169,1431697
37,18,female,Belgium,3,115,ITC,neutral,10,right,7,ITC_start,2185,space,0,0,359,280982,1433884
37,18,female,Belgium,3,115,ITC,neutral,10,right,7,ITC_choice,959,f,0,0,359,280022,1434844
37,18,female,Belgium,3,115,ITC,neutral,10,right,7,ITC_wait,0,undefined,0,0,359,280019,1434847
37,18,female,Belgium,3,115,ITC,neutral,10,right,7,ITC_collect,347,k,0,0,359,279670,1435196
37,18,female,Belgium,3,115,ITC,neutral,10,right,7,ITC_outcome,0,undefined,0,0,366,278664,1436202
37,18,female,Belgium,3,116,guess,win,5,left,10,guess_start,920,space,0,0,366,277742,1437124
37,18,female,Belgium,3,116,guess,win,5,left,10,guess_choice,613,j,0,0,366,277126,1437740
37,18,female,Belgium,3,116,guess,win,5,left,10,guess_outcome,0,undefined,0,0,386,275572,1439294
37,18,female,Belgium,3,116,ITC,win,5,left,10,ITC_start,1293,space,0,0,386,274278,1440588
37,18,female,Belgium,3,116,ITC,win,5,left,10,ITC_choice,830,j,0,0,386,273446,1441420
37,18,female,Belgium,3,116,ITC,win,5,left,10,ITC_wait,0,undefined,0,0,386,273443,1441423
37,18,female,Belgium,3,116,ITC,win,5,left,10,ITC_collect,436,k,0,0,386,273006,1441860
37,18,female,Belgium,3,116,ITC,win,5,left,10,ITC_outcome,0,undefined,0,0,396,272002,1442864
37,18,female,Belgium,3,117,guess,neutral,10,left,1,guess_start,970,space,0,0,396,271030,1443836
37,18,female,Belgium,3,117,guess,neutral,10,left,1,guess_choice,965,j,0,0,396,270062,1444804
37,18,female,Belgium,3,117,guess,neutral,10,left,1,guess_outcome,0,undefined,0,0,396,268505,1446361
37,18,female,Belgium,3,117,ITC,neutral,10,left,1,ITC_start,673,space,0,0,396,267831,1447035
37,18,female,Belgium,3,117,ITC,neutral,10,left,1,ITC_choice,1040,f,0,0,396,266790,1448076
37,18,female,Belgium,3,117,ITC,neutral,10,left,1,ITC_wait,0,undefined,0,0,396,256785,1458081
37,18,female,Belgium,3,117,ITC,neutral,10,left,1,ITC_collect,1214,k,0,0,396,255569,1459297
37,18,female,Belgium,3,117,ITC,neutral,10,left,1,ITC_outcome,0,undefined,0,0,416,254563,1460303
37,18,female,Belgium,3,118,guess,win,5,right,3,guess_start,504,space,0,0,416,254057,1460809
37,18,female,Belgium,3,118,guess,win,5,right,3,guess_choice,533,f,0,0,416,253521,1461345
37,18,female,Belgium,3,118,guess,win,5,right,3,guess_outcome,0,undefined,0,0,436,251964,1462902
37,18,female,Belgium,3,118,ITC,win,5,right,3,ITC_start,441,space,0,0,436,251522,1463344
37,18,female,Belgium,3,118,ITC,win,5,right,3,ITC_choice,775,f,0,0,436,250746,1464120
37,18,female,Belgium,3,118,ITC,win,5,right,3,ITC_wait,0,undefined,0,0,436,250743,1464123
37,18,female,Belgium,3,118,ITC,win,5,right,3,ITC_collect,372,k,0,0,436,250370,1464496
37,18,female,Belgium,3,118,ITC,win,5,right,3,ITC_outcome,0,undefined,0,0,439,249364,1465502
37,18,female,Belgium,3,119,guess,neutral,5,right,3,guess_start,569,space,0,0,439,248793,1466073
37,18,female,Belgium,3,119,guess,neutral,5,right,3,guess_choice,805,j,0,0,439,247985,1466881
37,18,female,Belgium,3,119,guess,neutral,5,right,3,guess_outcome,0,undefined,0,0,439,246430,1468436
37,18,female,Belgium,3,119,ITC,neutral,5,right,3,ITC_start,747,space,0,0,439,245681,1469185
37,18,female,Belgium,3,119,ITC,neutral,5,right,3,ITC_choice,1679,j,0,0,439,244001,1470865
37,18,female,Belgium,3,119,ITC,neutral,5,right,3,ITC_wait,0,undefined,0,0,439,238994,1475872
37,18,female,Belgium,3,119,ITC,neutral,5,right,3,ITC_collect,619,k,0,0,439,238374,1476492
37,18,female,Belgium,3,119,ITC,neutral,5,right,3,ITC_outcome,0,undefined,0,0,459,237367,1477499
37,18,female,Belgium,3,120,guess,neutral,10,left,6,guess_start,504,space,0,0,459,236862,1478004
37,18,female,Belgium,3,120,guess,neutral,10,left,6,guess_choice,941,j,0,0,459,235918,1478948
37,18,female,Belgium,3,120,guess,neutral,10,left,6,guess_outcome,0,undefined,0,0,459,234364,1480502
37,18,female,Belgium,3,120,ITC,neutral,10,left,6,ITC_start,541,space,0,0,459,233822,1481044
37,18,female,Belgium,3,120,ITC,neutral,10,left,6,ITC_choice,935,j,0,0,459,232886,1481980
37,18,female,Belgium,3,120,ITC,neutral,10,left,6,ITC_wait,0,undefined,0,0,459,232883,1481983
37,18,female,Belgium,3,120,ITC,neutral,10,left,6,ITC_collect,515,k,0,0,459,232366,1482500
37,18,female,Belgium,3,120,ITC,neutral,10,left,6,ITC_outcome,0,undefined,0,0,465,231361,1483505
37,18,female,Belgium,3,121,guess,loss,5,right,6,guess_start,473,space,0,0,465,230886,1483980
37,18,female,Belgium,3,121,guess,loss,5,right,6,guess_choice,645,f,0,0,465,230238,1484628
37,18,female,Belgium,3,121,guess,loss,5,right,6,guess_outcome,0,undefined,0,0,450,228681,1486185
37,18,female,Belgium,3,121,ITC,loss,5,right,6,ITC_start,522,space,0,0,450,228158,1486708
37,18,female,Belgium,3,121,ITC,loss,5,right,6,ITC_choice,887,f,0,0,450,227270,1487596
37,18,female,Belgium,3,121,ITC,loss,5,right,6,ITC_wait,0,undefined,0,0,450,227267,1487599
37,18,female,Belgium,3,121,ITC,loss,5,right,6,ITC_collect,332,k,0,0,450,226934,1487932
37,18,female,Belgium,3,121,ITC,loss,5,right,6,ITC_outcome,0,undefined,0,0,456,225928,1488938
37,18,female,Belgium,3,122,guess,loss,5,left,14,guess_start,1201,space,0,0,456,224726,1490140
37,18,female,Belgium,3,122,guess,loss,5,left,14,guess_choice,390,f,0,0,456,224333,1490533
37,18,female,Belgium,3,122,guess,loss,5,left,14,guess_outcome,0,undefined,0,0,441,222775,1492091
37,18,female,Belgium,3,122,ITC,loss,5,left,14,ITC_start,449,space,0,0,441,222325,1492541
37,18,female,Belgium,3,122,ITC,loss,5,left,14,ITC_choice,718,j,0,0,441,221606,1493260
37,18,female,Belgium,3,122,ITC,loss,5,left,14,ITC_wait,0,undefined,0,0,441,221602,1493264
37,18,female,Belgium,3,122,ITC,loss,5,left,14,ITC_collect,435,k,0,0,441,221166,1493700
37,18,female,Belgium,3,122,ITC,loss,5,left,14,ITC_outcome,0,undefined,0,0,455,220160,1494706
37,18,female,Belgium,3,123,guess,loss,5,left,8,guess_start,553,space,0,0,455,219605,1495261
37,18,female,Belgium,3,123,guess,loss,5,left,8,guess_choice,621,f,0,0,455,218982,1495884
37,18,female,Belgium,3,123,guess,loss,5,left,8,guess_outcome,0,undefined,0,0,440,217424,1497442
37,18,female,Belgium,3,123,ITC,loss,5,left,8,ITC_start,409,space,0,0,440,217013,1497853
37,18,female,Belgium,3,123,ITC,loss,5,left,8,ITC_choice,671,j,0,0,440,216341,1498525
37,18,female,Belgium,3,123,ITC,loss,5,left,8,ITC_wait,0,undefined,0,0,440,216339,1498527
37,18,female,Belgium,3,123,ITC,loss,5,left,8,ITC_collect,332,k,0,0,440,216006,1498860
37,18,female,Belgium,3,123,ITC,loss,5,left,8,ITC_outcome,0,undefined,0,0,448,215001,1499865
37,18,female,Belgium,3,124,guess,loss,5,left,4,guess_start,578,space,0,0,448,214421,1500445
37,18,female,Belgium,3,124,guess,loss,5,left,4,guess_choice,437,j,0,0,448,213981,1500885
37,18,female,Belgium,3,124,guess,loss,5,left,4,guess_outcome,0,undefined,0,0,433,212427,1502439
37,18,female,Belgium,3,124,ITC,loss,5,left,4,ITC_start,549,space,0,0,433,211877,1502989
37,18,female,Belgium,3,124,ITC,loss,5,left,4,ITC_choice,661,j,0,0,433,211214,1503652
37,18,female,Belgium,3,124,ITC,loss,5,left,4,ITC_wait,0,undefined,0,0,433,211211,1503655
37,18,female,Belgium,3,124,ITC,loss,5,left,4,ITC_collect,332,k,0,0,433,210877,1503989
37,18,female,Belgium,3,124,ITC,loss,5,left,4,ITC_outcome,0,undefined,0,0,437,209872,1504994
37,18,female,Belgium,3,125,guess,win,5,right,4,guess_start,1001,space,0,0,437,208869,1505997
37,18,female,Belgium,3,125,guess,win,5,right,4,guess_choice,485,f,0,0,437,208381,1506485
37,18,female,Belgium,3,125,guess,win,5,right,4,guess_outcome,0,undefined,0,0,457,206826,1508040
37,18,female,Belgium,3,125,ITC,win,5,right,4,ITC_start,516,space,0,0,457,206309,1508557
37,18,female,Belgium,3,125,ITC,win,5,right,4,ITC_choice,1038,j,0,0,457,205269,1509597
37,18,female,Belgium,3,125,ITC,win,5,right,4,ITC_wait,0,undefined,0,0,457,200266,1514600
37,18,female,Belgium,3,125,ITC,win,5,right,4,ITC_collect,404,k,0,0,457,199861,1515005
37,18,female,Belgium,3,125,ITC,win,5,right,4,ITC_outcome,0,undefined,0,0,477,198856,1516010
37,18,female,Belgium,3,126,guess,loss,5,left,9,guess_start,865,space,0,0,477,197989,1516877
37,18,female,Belgium,3,126,guess,loss,5,left,9,guess_choice,541,f,0,0,477,197445,1517421
37,18,female,Belgium,3,126,guess,loss,5,left,9,guess_outcome,0,undefined,0,0,462,195890,1518976
37,18,female,Belgium,3,126,ITC,loss,5,left,9,ITC_start,828,space,0,0,462,195061,1519805
37,18,female,Belgium,3,126,ITC,loss,5,left,9,ITC_choice,894,f,0,0,462,194165,1520701
37,18,female,Belgium,3,126,ITC,loss,5,left,9,ITC_wait,0,undefined,0,0,462,189158,1525708
37,18,female,Belgium,3,126,ITC,loss,5,left,9,ITC_collect,414,k,0,0,462,188742,1526124
37,18,female,Belgium,3,126,ITC,loss,5,left,9,ITC_outcome,0,undefined,0,0,482,187736,1527130
37,18,female,Belgium,3,127,guess,loss,10,right,6,guess_start,576,space,0,0,482,187158,1527708
37,18,female,Belgium,3,127,guess,loss,10,right,6,guess_choice,533,j,0,0,482,186622,1528244
37,18,female,Belgium,3,127,guess,loss,10,right,6,guess_outcome,0,undefined,0,0,467,185067,1529799
37,18,female,Belgium,3,127,ITC,loss,10,right,6,ITC_start,516,space,0,0,467,184550,1530316
37,18,female,Belgium,3,127,ITC,loss,10,right,6,ITC_choice,934,j,0,0,467,183614,1531252
37,18,female,Belgium,3,127,ITC,loss,10,right,6,ITC_wait,0,undefined,0,0,467,173607,1541259
37,18,female,Belgium,3,127,ITC,loss,10,right,6,ITC_collect,1278,k,0,0,467,172328,1542538
37,18,female,Belgium,3,127,ITC,loss,10,right,6,ITC_outcome,0,undefined,0,0,487,171323,1543543
37,18,female,Belgium,3,128,guess,win,10,left,4,guess_start,474,space,0,0,487,170848,1544018
37,18,female,Belgium,3,128,guess,win,10,left,4,guess_choice,541,f,0,0,487,170304,1544562
37,18,female,Belgium,3,128,guess,win,10,left,4,guess_outcome,0,undefined,0,0,507,168749,1546117
37,18,female,Belgium,3,128,ITC,win,10,left,4,ITC_start,476,space,0,0,507,168272,1546594
37,18,female,Belgium,3,128,ITC,win,10,left,4,ITC_choice,686,j,0,0,507,167584,1547282
37,18,female,Belgium,3,128,ITC,win,10,left,4,ITC_wait,0,undefined,0,0,507,167581,1547285
37,18,female,Belgium,3,128,ITC,win,10,left,4,ITC_collect,428,k,0,0,507,167152,1547714
37,18,female,Belgium,3,128,ITC,win,10,left,4,ITC_outcome,0,undefined,0,0,511,166146,1548720
37,18,female,Belgium,3,129,guess,neutral,5,right,9,guess_start,464,space,0,0,511,165680,1549186
37,18,female,Belgium,3,129,guess,neutral,5,right,9,guess_choice,597,j,0,0,511,165079,1549787
37,18,female,Belgium,3,129,guess,neutral,5,right,9,guess_outcome,0,undefined,0,0,511,163523,1551343
37,18,female,Belgium,3,129,ITC,neutral,5,right,9,ITC_start,818,space,0,0,511,162703,1552163
37,18,female,Belgium,3,129,ITC,neutral,5,right,9,ITC_choice,975,f,0,0,511,161728,1553138
37,18,female,Belgium,3,129,ITC,neutral,5,right,9,ITC_wait,0,undefined,0,0,511,161725,1553141
37,18,female,Belgium,3,129,ITC,neutral,5,right,9,ITC_collect,293,k,0,0,511,161431,1553435
37,18,female,Belgium,3,129,ITC,neutral,5,right,9,ITC_outcome,0,undefined,0,0,520,160427,1554439
37,18,female,Belgium,3,130,guess,win,10,right,5,guess_start,442,space,0,0,520,159984,1554882
37,18,female,Belgium,3,130,guess,win,10,right,5,guess_choice,629,f,0,0,520,159351,1555515
37,18,female,Belgium,3,130,guess,win,10,right,5,guess_outcome,0,undefined,0,0,540,157794,1557072
37,18,female,Belgium,3,130,ITC,win,10,right,5,ITC_start,722,space,0,0,540,157071,1557795
37,18,female,Belgium,3,130,ITC,win,10,right,5,ITC_choice,950,f,0,0,540,156119,1558747
37,18,female,Belgium,3,130,ITC,win,10,right,5,ITC_wait,0,undefined,0,0,540,156116,1558750
37,18,female,Belgium,3,130,ITC,win,10,right,5,ITC_collect,403,k,0,0,540,155712,1559154
37,18,female,Belgium,3,130,ITC,win,10,right,5,ITC_outcome,0,undefined,0,0,545,154709,1560157
37,18,female,Belgium,3,131,guess,loss,5,left,10,guess_start,436,space,0,0,545,154271,1560595
37,18,female,Belgium,3,131,guess,loss,5,left,10,guess_choice,517,j,0,0,545,153751,1561115
37,18,female,Belgium,3,131,guess,loss,5,left,10,guess_outcome,0,undefined,0,0,530,152196,1562670
37,18,female,Belgium,3,131,ITC,loss,5,left,10,ITC_start,388,space,0,0,530,151807,1563059
37,18,female,Belgium,3,131,ITC,loss,5,left,10,ITC_choice,1039,j,0,0,530,150767,1564099
37,18,female,Belgium,3,131,ITC,loss,5,left,10,ITC_wait,0,undefined,0,0,530,150764,1564102
37,18,female,Belgium,3,131,ITC,loss,5,left,10,ITC_collect,404,k,0,0,530,150359,1564507
37,18,female,Belgium,3,131,ITC,loss,5,left,10,ITC_outcome,0,undefined,0,0,540,149354,1565512
37,18,female,Belgium,3,132,guess,neutral,5,right,5,guess_start,513,space,0,0,540,148839,1566027
37,18,female,Belgium,3,132,guess,neutral,5,right,5,guess_choice,628,f,0,0,540,148208,1566658
37,18,female,Belgium,3,132,guess,neutral,5,right,5,guess_outcome,0,undefined,0,0,540,146651,1568215
37,18,female,Belgium,3,132,ITC,neutral,5,right,5,ITC_start,722,space,0,0,540,145927,1568939
37,18,female,Belgium,3,132,ITC,neutral,5,right,5,ITC_choice,895,j,0,0,540,145031,1569835
37,18,female,Belgium,3,132,ITC,neutral,5,right,5,ITC_wait,0,undefined,0,0,540,140024,1574842
37,18,female,Belgium,3,132,ITC,neutral,5,right,5,ITC_collect,442,k,0,0,540,139580,1575286
37,18,female,Belgium,3,132,ITC,neutral,5,right,5,ITC_outcome,0,undefined,0,0,560,138575,1576291
37,18,female,Belgium,3,133,guess,neutral,5,right,15,guess_start,383,space,0,0,560,138189,1576677
37,18,female,Belgium,3,133,guess,neutral,5,right,15,guess_choice,589,f,0,0,560,137597,1577269
37,18,female,Belgium,3,133,guess,neutral,5,right,15,guess_outcome,0,undefined,0,0,560,136039,1578827
37,18,female,Belgium,3,133,ITC,neutral,5,right,15,ITC_start,497,space,0,0,560,135541,1579325
37,18,female,Belgium,3,133,ITC,neutral,5,right,15,ITC_choice,1063,j,0,0,560,134476,1580390
37,18,female,Belgium,3,133,ITC,neutral,5,right,15,ITC_wait,0,undefined,0,0,560,129474,1585392
37,18,female,Belgium,3,133,ITC,neutral,5,right,15,ITC_collect,382,k,0,0,560,129090,1585776
37,18,female,Belgium,3,133,ITC,neutral,5,right,15,ITC_outcome,0,undefined,0,0,580,128085,1586781
37,18,female,Belgium,3,134,guess,neutral,5,right,10,guess_start,471,space,0,0,580,127613,1587253
37,18,female,Belgium,3,134,guess,neutral,5,right,10,guess_choice,686,j,0,0,580,126924,1587942
37,18,female,Belgium,3,134,guess,neutral,5,right,10,guess_outcome,0,undefined,0,0,580,125367,1589499
37,18,female,Belgium,3,134,ITC,neutral,5,right,10,ITC_start,801,space,0,0,580,124565,1590301
37,18,female,Belgium,3,134,ITC,neutral,5,right,10,ITC_choice,887,j,0,0,580,123676,1591190
37,18,female,Belgium,3,134,ITC,neutral,5,right,10,ITC_wait,0,undefined,0,0,580,118670,1596196
37,18,female,Belgium,3,134,ITC,neutral,5,right,10,ITC_collect,1065,k,0,0,580,117603,1597263
37,18,female,Belgium,3,134,ITC,neutral,5,right,10,ITC_outcome,0,undefined,0,0,600,116599,1598267
37,18,female,Belgium,3,135,guess,loss,5,right,12,guess_start,546,space,0,0,600,116051,1598815
37,18,female,Belgium,3,135,guess,loss,5,right,12,guess_choice,621,f,0,0,600,115427,1599439
37,18,female,Belgium,3,135,guess,loss,5,right,12,guess_outcome,0,undefined,0,0,585,113871,1600995
37,18,female,Belgium,3,135,ITC,loss,5,right,12,ITC_start,506,space,0,0,585,113363,1601503
37,18,female,Belgium,3,135,ITC,loss,5,right,12,ITC_choice,551,j,0,0,585,112811,1602055
37,18,female,Belgium,3,135,ITC,loss,5,right,12,ITC_wait,0,undefined,0,0,585,107809,1607057
37,18,female,Belgium,3,135,ITC,loss,5,right,12,ITC_collect,548,k,0,0,585,107259,1607607
37,18,female,Belgium,3,135,ITC,loss,5,right,12,ITC_outcome,0,undefined,0,0,605,106253,1608613
37,18,female,Belgium,3,136,guess,neutral,5,right,2,guess_start,456,space,0,0,605,105796,1609070
37,18,female,Belgium,3,136,guess,neutral,5,right,2,guess_choice,565,f,0,0,605,105228,1609638
37,18,female,Belgium,3,136,guess,neutral,5,right,2,guess_outcome,0,undefined,0,0,605,103675,1611191
37,18,female,Belgium,3,136,ITC,neutral,5,right,2,ITC_start,582,space,0,0,605,103092,1611774
37,18,female,Belgium,3,136,ITC,neutral,5,right,2,ITC_choice,847,j,0,0,605,102244,1612622
37,18,female,Belgium,3,136,ITC,neutral,5,right,2,ITC_wait,0,undefined,0,0,605,97240,1617626
37,18,female,Belgium,3,136,ITC,neutral,5,right,2,ITC_collect,412,k,0,0,605,96827,1618039
37,18,female,Belgium,3,136,ITC,neutral,5,right,2,ITC_outcome,0,undefined,0,0,625,95821,1619045
37,18,female,Belgium,3,137,guess,win,10,right,2,guess_start,520,space,0,0,625,95299,1619567
37,18,female,Belgium,3,137,guess,win,10,right,2,guess_choice,557,f,0,0,625,94739,1620127
37,18,female,Belgium,3,137,guess,win,10,right,2,guess_outcome,0,undefined,0,0,645,93182,1621684
37,18,female,Belgium,3,137,ITC,win,10,right,2,ITC_start,584,space,0,0,645,92596,1622270
37,18,female,Belgium,3,137,ITC,win,10,right,2,ITC_choice,887,j,0,0,645,91707,1623159
37,18,female,Belgium,3,137,ITC,win,10,right,2,ITC_wait,0,undefined,0,0,645,81702,1633164
37,18,female,Belgium,3,137,ITC,win,10,right,2,ITC_collect,952,k,0,0,645,80749,1634117
37,18,female,Belgium,3,137,ITC,win,10,right,2,ITC_outcome,0,undefined,0,0,665,79743,1635123
37,18,female,Belgium,3,138,guess,win,5,left,7,guess_start,1304,space,0,0,665,78437,1636429
37,18,female,Belgium,3,138,guess,win,5,left,7,guess_choice,1197,f,0,0,665,77237,1637629
37,18,female,Belgium,3,138,guess,win,5,left,7,guess_outcome,0,undefined,0,0,685,75682,1639184
37,18,female,Belgium,3,138,ITC,win,5,left,7,ITC_start,1332,space,0,0,685,74349,1640517
37,18,female,Belgium,3,138,ITC,win,5,left,7,ITC_choice,3014,j,0,0,685,71333,1643533
37,18,female,Belgium,3,138,ITC,win,5,left,7,ITC_wait,0,undefined,0,0,685,71330,1643536
37,18,female,Belgium,3,138,ITC,win,5,left,7,ITC_collect,276,k,0,0,685,71053,1643813
37,18,female,Belgium,3,138,ITC,win,5,left,7,ITC_outcome,0,undefined,0,0,692,70047,1644819
37,18,female,Belgium,3,139,guess,win,5,left,14,guess_start,1369,space,0,0,692,68676,1646190
37,18,female,Belgium,3,139,guess,win,5,left,14,guess_choice,1869,j,0,0,692,66804,1648062
37,18,female,Belgium,3,139,guess,win,5,left,14,guess_outcome,0,undefined,0,0,712,65247,1649619
37,18,female,Belgium,3,139,ITC,win,5,left,14,ITC_start,1337,space,0,0,712,63909,1650957
37,18,female,Belgium,3,139,ITC,win,5,left,14,ITC_choice,1391,j,0,0,712,62516,1652350
37,18,female,Belgium,3,139,ITC,win,5,left,14,ITC_wait,0,undefined,0,0,712,62514,1652352
37,18,female,Belgium,3,139,ITC,win,5,left,14,ITC_collect,444,k,0,0,712,62069,1652797
