subjectID,age,gender,nationality,block_number,trial_number,trial_type,guess_outcome,delay_time,delay_pos,immediate_amount,stage,respRT,respKey,blur_count,focus_count,total_points,remaining_duration,time_elapsed
44,19,female,Belg,1,1,guess,loss,5,right,16,guess_start,1445,space,0,0,0,478555,265167
44,19,female,Belg,1,1,guess,loss,5,right,16,guess_choice,1723,f,0,0,0,476827,266895
44,19,female,Belg,1,1,guess,loss,5,right,16,guess_outcome,0,undefined,0,0,-15,475265,268457
44,19,female,Belg,1,1,ITC,loss,5,right,16,ITC_start,2440,space,0,0,-15,472824,270898
44,19,female,Belg,1,1,ITC,loss,5,right,16,ITC_choice,2724,j,0,0,-15,470099,273623
44,19,female,Belg,1,1,ITC,loss,5,right,16,ITC_wait,0,undefined,0,0,-15,465090,278632
44,19,female,Belg,1,1,ITC,loss,5,right,16,ITC_collect,1851,k,0,0,-15,463237,280485
44,19,female,Belg,1,1,ITC,loss,5,right,16,ITC_outcome,0,undefined,0,0,5,462233,281489
44,19,female,Belg,1,2,guess,win,10,right,4,guess_start,1491,space,0,0,5,460740,282982
44,19,female,Belg,1,2,guess,win,10,right,4,guess_choice,1570,j,0,0,5,459167,284555
44,19,female,Belg,1,2,guess,win,10,right,4,guess_outcome,0,undefined,0,0,25,457602,286120
44,19,female,Belg,1,2,ITC,win,10,right,4,ITC_start,2315,space,0,0,25,455285,288437
44,19,female,Belg,1,2,ITC,win,10,right,4,ITC_choice,2883,j,0,0,25,452401,291321
44,19,female,Belg,1,2,ITC,win,10,right,4,ITC_wait,0,undefined,0,0,25,442395,301327
44,19,female,Belg,1,3,guess,loss,5,left,15,guess_start,1819,space,0,0,45,438579,305143
44,19,female,Belg,1,3,guess,loss,5,left,15,guess_choice,1800,j,0,0,45,436776,306946
44,19,female,Belg,1,2,ITC,win,10,right,4,ITC_collect,980,k,0,0,25,441414,302308
44,19,female,Belg,1,2,ITC,win,10,right,4,ITC_outcome,0,undefined,0,0,45,440399,303323
44,19,female,Belg,1,3,guess,loss,5,left,15,guess_outcome,0,undefined,0,0,30,435220,308502
44,19,female,Belg,1,3,ITC,loss,5,left,15,ITC_start,1204,space,0,0,30,434015,309707
44,19,female,Belg,1,3,ITC,loss,5,left,15,ITC_choice,1946,j,0,0,30,432068,311654
44,19,female,Belg,1,3,ITC,loss,5,left,15,ITC_wait,0,undefined,0,0,30,432066,311656
44,19,female,Belg,1,3,ITC,loss,5,left,15,ITC_collect,1208,k,0,0,30,430856,312866
44,19,female,Belg,1,3,ITC,loss,5,left,15,ITC_outcome,0,undefined,0,0,45,429850,313872
44,19,female,Belg,1,4,guess,loss,5,left,4,guess_start,340,space,0,0,45,429509,314213
44,19,female,Belg,1,4,guess,loss,5,left,4,guess_choice,1016,f,0,0,45,428489,315233
44,19,female,Belg,1,4,guess,loss,5,left,4,guess_outcome,0,undefined,0,0,30,426919,316803
44,19,female,Belg,1,4,ITC,loss,5,left,4,ITC_start,1298,space,0,0,30,425620,318102
44,19,female,Belg,1,4,ITC,loss,5,left,4,ITC_choice,2566,f,0,0,30,423053,320669
44,19,female,Belg,1,4,ITC,loss,5,left,4,ITC_wait,0,undefined,0,0,30,418037,325685
44,19,female,Belg,1,4,ITC,loss,5,left,4,ITC_collect,1460,k,0,0,30,416574,327148
44,19,female,Belg,1,4,ITC,loss,5,left,4,ITC_outcome,0,undefined,0,0,50,415560,328162
44,19,female,Belg,1,5,guess,neutral,5,right,12,guess_start,706,space,0,0,50,414853,328869
44,19,female,Belg,1,5,guess,neutral,5,right,12,guess_choice,2403,f,0,0,50,412448,331274
44,19,female,Belg,1,5,guess,neutral,5,right,12,guess_outcome,0,undefined,0,0,50,410880,332842
44,19,female,Belg,1,5,ITC,neutral,5,right,12,ITC_start,1777,space,0,0,50,409102,334620
44,19,female,Belg,1,5,ITC,neutral,5,right,12,ITC_choice,2389,f,0,0,50,406712,337010
44,19,female,Belg,1,5,ITC,neutral,5,right,12,ITC_wait,0,undefined,0,0,50,406709,337013
44,19,female,Belg,1,5,ITC,neutral,5,right,12,ITC_collect,993,k,0,0,50,405714,338008
44,19,female,Belg,1,5,ITC,neutral,5,right,12,ITC_outcome,0,undefined,0,0,62,404700,339022
44,19,female,Belg,1,6,guess,win,5,left,7,guess_start,1330,space,0,0,62,403369,340353
44,19,female,Belg,1,6,guess,win,5,left,7,guess_choice,1940,j,0,0,62,401426,342296
44,19,female,Belg,1,6,guess,win,5,left,7,guess_outcome,0,undefined,0,0,82,399861,343861
44,19,female,Belg,1,6,ITC,win,5,left,7,ITC_start,1153,space,0,0,82,398706,345016
44,19,female,Belg,1,6,ITC,win,5,left,7,ITC_choice,2116,f,0,0,82,396589,347133
44,19,female,Belg,1,6,ITC,win,5,left,7,ITC_wait,0,undefined,0,0,82,391580,352142
44,19,female,Belg,1,6,ITC,win,5,left,7,ITC_collect,700,k,0,0,82,390879,352843
44,19,female,Belg,1,6,ITC,win,5,left,7,ITC_outcome,0,undefined,0,0,102,389870,353852
44,19,female,Belg,1,7,guess,win,10,right,3,guess_start,703,space,0,0,102,389165,354557
44,19,female,Belg,1,7,guess,win,10,right,3,guess_choice,1337,j,0,0,102,387826,355896
44,19,female,Belg,1,7,guess,win,10,right,3,guess_outcome,0,undefined,0,0,122,386270,357452
44,19,female,Belg,1,7,ITC,win,10,right,3,ITC_start,1768,space,0,0,122,384501,359221
44,19,female,Belg,1,7,ITC,win,10,right,3,ITC_choice,1841,j,0,0,122,382659,361063
44,19,female,Belg,1,7,ITC,win,10,right,3,ITC_wait,0,undefined,0,0,122,372644,371078
44,19,female,Belg,1,7,ITC,win,10,right,3,ITC_collect,1509,k,0,0,122,371134,372588
44,19,female,Belg,1,7,ITC,win,10,right,3,ITC_outcome,0,undefined,0,0,142,370123,373599
44,19,female,Belg,1,8,guess,loss,5,right,13,guess_start,739,space,0,0,142,369382,374340
44,19,female,Belg,1,8,guess,loss,5,right,13,guess_choice,1405,f,0,0,142,367974,375748
44,19,female,Belg,1,8,guess,loss,5,right,13,guess_outcome,0,undefined,0,0,127,366413,377309
44,19,female,Belg,1,8,ITC,loss,5,right,13,ITC_start,490,space,0,0,127,365922,377800
44,19,female,Belg,1,8,ITC,loss,5,right,13,ITC_choice,1760,f,0,0,127,364161,379561
44,19,female,Belg,1,8,ITC,loss,5,right,13,ITC_wait,0,undefined,0,0,127,364159,379563
44,19,female,Belg,1,8,ITC,loss,5,right,13,ITC_collect,720,k,0,0,127,363437,380285
44,19,female,Belg,1,8,ITC,loss,5,right,13,ITC_outcome,0,undefined,0,0,140,362423,381299
44,19,female,Belg,1,9,guess,neutral,5,right,3,guess_start,268,space,0,0,140,362154,381568
44,19,female,Belg,1,9,guess,neutral,5,right,3,guess_choice,1281,f,0,0,140,360871,382851
44,19,female,Belg,1,9,guess,neutral,5,right,3,guess_outcome,0,undefined,0,0,140,359303,384419
44,19,female,Belg,1,9,ITC,neutral,5,right,3,ITC_start,1245,space,0,0,140,358056,385666
44,19,female,Belg,1,9,ITC,neutral,5,right,3,ITC_choice,2195,j,0,0,140,355867,387855
44,19,female,Belg,1,9,ITC,neutral,5,right,3,ITC_wait,0,undefined,0,0,140,350860,392862
44,19,female,Belg,1,9,ITC,neutral,5,right,3,ITC_collect,542,k,0,0,140,350317,393405
44,19,female,Belg,1,9,ITC,neutral,5,right,3,ITC_outcome,0,undefined,0,0,160,349310,394412
44,19,female,Belg,1,10,guess,loss,5,left,11,guess_start,2776,space,0,0,160,346533,397189
44,19,female,Belg,1,10,guess,loss,5,left,11,guess_choice,1502,j,0,0,160,345029,398693
44,19,female,Belg,1,10,guess,loss,5,left,11,guess_outcome,0,undefined,0,0,145,343474,400248
44,19,female,Belg,1,10,ITC,loss,5,left,11,ITC_start,633,space,0,0,145,342840,400882
44,19,female,Belg,1,10,ITC,loss,5,left,11,ITC_choice,1925,j,0,0,145,340913,402809
44,19,female,Belg,1,10,ITC,loss,5,left,11,ITC_wait,0,undefined,0,0,145,340911,402811
44,19,female,Belg,1,10,ITC,loss,5,left,11,ITC_collect,1364,k,0,0,145,339545,404177
44,19,female,Belg,1,10,ITC,loss,5,left,11,ITC_outcome,0,undefined,0,0,156,338531,405191
44,19,female,Belg,1,11,guess,neutral,5,left,11,guess_start,630,space,0,0,156,337899,405823
44,19,female,Belg,1,11,guess,neutral,5,left,11,guess_choice,1081,j,0,0,156,336816,406906
44,19,female,Belg,1,11,guess,neutral,5,left,11,guess_outcome,0,undefined,0,0,156,335251,408471
44,19,female,Belg,1,11,ITC,neutral,5,left,11,ITC_start,410,space,0,0,156,334839,408883
44,19,female,Belg,1,11,ITC,neutral,5,left,11,ITC_choice,1876,f,0,0,156,332962,410760
44,19,female,Belg,1,11,ITC,neutral,5,left,11,ITC_wait,0,undefined,0,0,156,327951,415771
44,19,female,Belg,1,11,ITC,neutral,5,left,11,ITC_collect,1198,k,0,0,156,326752,416970
44,19,female,Belg,1,11,ITC,neutral,5,left,11,ITC_outcome,0,undefined,0,0,176,325731,417991
44,19,female,Belg,1,12,guess,win,10,left,6,guess_start,1806,space,0,0,176,323923,419799
44,19,female,Belg,1,12,guess,win,10,left,6,guess_choice,1435,j,0,0,176,322485,421237
44,19,female,Belg,1,12,guess,win,10,left,6,guess_outcome,0,undefined,0,0,196,320931,422791
44,19,female,Belg,1,12,ITC,win,10,left,6,ITC_start,500,space,0,0,196,320430,423292
44,19,female,Belg,1,12,ITC,win,10,left,6,ITC_choice,1771,j,0,0,196,318657,425065
44,19,female,Belg,1,12,ITC,win,10,left,6,ITC_wait,0,undefined,0,0,196,318655,425067
44,19,female,Belg,1,12,ITC,win,10,left,6,ITC_collect,1228,k,0,0,196,317425,426297
44,19,female,Belg,1,12,ITC,win,10,left,6,ITC_outcome,0,undefined,0,0,202,316421,427301
44,19,female,Belg,1,13,guess,win,5,left,13,guess_start,738,space,0,0,202,315681,428041
44,19,female,Belg,1,13,guess,win,5,left,13,guess_choice,1120,f,0,0,202,314558,429164
44,19,female,Belg,1,13,guess,win,5,left,13,guess_outcome,0,undefined,0,0,222,313001,430721
44,19,female,Belg,1,13,ITC,win,5,left,13,ITC_start,598,space,0,0,222,312402,431320
44,19,female,Belg,1,13,ITC,win,5,left,13,ITC_choice,1562,j,0,0,222,310839,432883
44,19,female,Belg,1,13,ITC,win,5,left,13,ITC_wait,0,undefined,0,0,222,310837,432885
44,19,female,Belg,1,13,ITC,win,5,left,13,ITC_collect,1174,k,0,0,222,309662,434060
44,19,female,Belg,1,13,ITC,win,5,left,13,ITC_outcome,0,undefined,0,0,235,308651,435071
44,19,female,Belg,1,14,guess,win,5,left,14,guess_start,625,space,0,0,235,308025,435697
44,19,female,Belg,1,14,guess,win,5,left,14,guess_choice,1126,j,0,0,235,306896,436826
44,19,female,Belg,1,14,guess,win,5,left,14,guess_outcome,0,undefined,0,0,255,305331,438391
44,19,female,Belg,1,14,ITC,win,5,left,14,ITC_start,519,space,0,0,255,304810,438912
44,19,female,Belg,1,14,ITC,win,5,left,14,ITC_choice,1496,j,0,0,255,303313,440409
44,19,female,Belg,1,14,ITC,win,5,left,14,ITC_wait,0,undefined,0,0,255,303310,440412
44,19,female,Belg,1,14,ITC,win,5,left,14,ITC_collect,1987,k,0,0,255,301321,442401
44,19,female,Belg,1,14,ITC,win,5,left,14,ITC_outcome,0,undefined,0,0,269,300301,443421
44,19,female,Belg,1,15,guess,loss,10,left,2,guess_start,536,space,0,0,269,299763,443959
44,19,female,Belg,1,15,guess,loss,10,left,2,guess_choice,1122,j,0,0,269,298638,445084
44,19,female,Belg,1,15,guess,loss,10,left,2,guess_outcome,0,undefined,0,0,254,297065,446657
44,19,female,Belg,1,15,ITC,loss,10,left,2,ITC_start,522,space,0,0,254,296541,447181
44,19,female,Belg,1,15,ITC,loss,10,left,2,ITC_choice,1326,f,0,0,254,295214,448508
44,19,female,Belg,1,15,ITC,loss,10,left,2,ITC_wait,0,undefined,0,0,254,285209,458513
44,19,female,Belg,1,15,ITC,loss,10,left,2,ITC_collect,17472,k,0,0,254,267736,475986
44,19,female,Belg,1,15,ITC,loss,10,left,2,ITC_outcome,0,undefined,0,0,274,266716,477006
44,19,female,Belg,1,16,guess,win,10,left,2,guess_start,3710,space,0,0,274,263004,480718
44,19,female,Belg,1,16,guess,win,10,left,2,guess_choice,1170,f,0,0,274,261831,481891
44,19,female,Belg,1,16,guess,win,10,left,2,guess_outcome,0,undefined,0,0,294,260276,483446
44,19,female,Belg,1,16,ITC,win,10,left,2,ITC_start,1055,space,0,0,294,259220,484502
44,19,female,Belg,1,16,ITC,win,10,left,2,ITC_choice,3125,f,0,0,294,256094,487628
44,19,female,Belg,1,16,ITC,win,10,left,2,ITC_wait,0,undefined,0,0,294,246091,497631
44,19,female,Belg,1,16,ITC,win,10,left,2,ITC_collect,2327,k,0,0,294,243763,499959
44,19,female,Belg,1,16,ITC,win,10,left,2,ITC_outcome,0,undefined,0,0,314,242757,500965
44,19,female,Belg,1,17,guess,win,5,right,11,guess_start,684,space,0,0,314,242071,501651
44,19,female,Belg,1,17,guess,win,5,right,11,guess_choice,612,j,0,0,314,241457,502265
44,19,female,Belg,1,17,guess,win,5,right,11,guess_outcome,0,undefined,0,0,334,239887,503835
44,19,female,Belg,1,17,ITC,win,5,right,11,ITC_start,654,space,0,0,334,239231,504491
44,19,female,Belg,1,17,ITC,win,5,right,11,ITC_choice,1756,f,0,0,334,237476,506246
44,19,female,Belg,1,17,ITC,win,5,right,11,ITC_wait,0,undefined,0,0,334,237474,506248
44,19,female,Belg,1,17,ITC,win,5,right,11,ITC_collect,864,k,0,0,334,236608,507114
44,19,female,Belg,1,17,ITC,win,5,right,11,ITC_outcome,0,undefined,0,0,345,235599,508123
44,19,female,Belg,1,18,guess,win,5,right,6,guess_start,501,space,0,0,345,235097,508625
44,19,female,Belg,1,18,guess,win,5,right,6,guess_choice,1421,j,0,0,345,233673,510049
44,19,female,Belg,1,18,guess,win,5,right,6,guess_outcome,0,undefined,0,0,365,232119,511603
44,19,female,Belg,1,18,ITC,win,5,right,6,ITC_start,554,space,0,0,365,231563,512159
44,19,female,Belg,1,18,ITC,win,5,right,6,ITC_wait,0,undefined,0,0,365,229888,513834
44,19,female,Belg,1,18,ITC,win,5,right,6,ITC_choice,1672,f,0,0,365,229890,513832
44,19,female,Belg,1,18,ITC,win,5,right,6,ITC_collect,756,k,0,0,365,229131,514591
44,19,female,Belg,1,18,ITC,win,5,right,6,ITC_outcome,0,undefined,0,0,371,228119,515603
44,19,female,Belg,1,19,guess,loss,10,left,4,guess_start,495,space,0,0,371,227623,516099
44,19,female,Belg,1,19,guess,loss,10,left,4,guess_choice,1066,j,0,0,371,226555,517167
44,19,female,Belg,1,19,guess,loss,10,left,4,guess_outcome,0,undefined,0,0,356,224999,518723
44,19,female,Belg,1,19,ITC,loss,10,left,4,ITC_start,460,space,0,0,356,224537,519185
44,19,female,Belg,1,19,ITC,loss,10,left,4,ITC_choice,2579,f,0,0,356,221957,521765
44,19,female,Belg,1,19,ITC,loss,10,left,4,ITC_wait,0,undefined,0,0,356,211943,531779
44,19,female,Belg,1,19,ITC,loss,10,left,4,ITC_collect,695,k,0,0,356,211244,532478
44,19,female,Belg,1,19,ITC,loss,10,left,4,ITC_outcome,0,undefined,0,0,376,210229,533493
44,19,female,Belg,1,20,guess,neutral,5,left,13,guess_start,375,space,0,0,376,209852,533870
44,19,female,Belg,1,20,guess,neutral,5,left,13,guess_choice,1161,f,0,0,376,208688,535034
44,19,female,Belg,1,20,guess,neutral,5,left,13,guess_outcome,0,undefined,0,0,376,207129,536593
44,19,female,Belg,1,20,ITC,neutral,5,left,13,ITC_start,466,space,0,0,376,206662,537060
44,19,female,Belg,1,20,ITC,neutral,5,left,13,ITC_choice,1156,j,0,0,376,205504,538218
44,19,female,Belg,1,20,ITC,neutral,5,left,13,ITC_wait,0,undefined,0,0,376,205502,538220
44,19,female,Belg,1,20,ITC,neutral,5,left,13,ITC_collect,1039,k,0,0,376,204460,539262
44,19,female,Belg,1,20,ITC,neutral,5,left,13,ITC_outcome,0,undefined,0,0,389,203449,540273
44,19,female,Belg,1,21,guess,neutral,10,left,2,guess_start,485,space,0,0,389,202963,540759
44,19,female,Belg,1,21,guess,neutral,10,left,2,guess_choice,707,f,0,0,389,202253,541469
44,19,female,Belg,1,21,guess,neutral,10,left,2,guess_outcome,0,undefined,0,0,389,200690,543032
44,19,female,Belg,1,21,ITC,neutral,10,left,2,ITC_start,93,space,0,0,389,200596,543126
44,19,female,Belg,1,21,ITC,neutral,10,left,2,ITC_choice,1767,j,0,0,389,198828,544894
44,19,female,Belg,1,21,ITC,neutral,10,left,2,ITC_wait,0,undefined,0,0,389,198825,544897
44,19,female,Belg,1,21,ITC,neutral,10,left,2,ITC_collect,959,k,0,0,389,197865,545857
44,19,female,Belg,1,21,ITC,neutral,10,left,2,ITC_outcome,0,undefined,0,0,391,196849,546873
44,19,female,Belg,1,22,guess,loss,10,right,1,guess_start,615,space,0,0,391,196233,547489
44,19,female,Belg,1,22,guess,loss,10,right,1,guess_choice,836,j,0,0,391,195394,548328
44,19,female,Belg,1,22,guess,loss,10,right,1,guess_outcome,0,undefined,0,0,376,193829,549893
44,19,female,Belg,1,22,ITC,loss,10,right,1,ITC_start,672,space,0,0,376,193156,550566
44,19,female,Belg,1,22,ITC,loss,10,right,1,ITC_choice,3768,f,0,0,376,189386,554336
44,19,female,Belg,1,22,ITC,loss,10,right,1,ITC_wait,0,undefined,0,0,376,189383,554339
44,19,female,Belg,1,22,ITC,loss,10,right,1,ITC_collect,625,k,0,0,376,188757,554965
44,19,female,Belg,1,22,ITC,loss,10,right,1,ITC_outcome,0,undefined,0,0,377,187739,555983
44,19,female,Belg,1,23,guess,loss,10,right,6,guess_start,492,space,0,0,377,187245,556477
44,19,female,Belg,1,23,guess,loss,10,right,6,guess_choice,997,j,0,0,377,186246,557476
44,19,female,Belg,1,23,guess,loss,10,right,6,guess_outcome,0,undefined,0,0,362,184683,559039
44,19,female,Belg,1,23,ITC,loss,10,right,6,ITC_start,906,space,0,0,362,183776,559946
44,19,female,Belg,1,23,ITC,loss,10,right,6,ITC_choice,3584,j,0,0,362,180189,563533
44,19,female,Belg,1,23,ITC,loss,10,right,6,ITC_wait,0,undefined,0,0,362,170169,573553
44,19,female,Belg,1,23,ITC,loss,10,right,6,ITC_collect,828,k,0,0,362,169338,574384
44,19,female,Belg,1,23,ITC,loss,10,right,6,ITC_outcome,0,undefined,0,0,382,168335,575387
44,19,female,Belg,1,24,guess,neutral,5,left,14,guess_start,642,space,0,0,382,167691,576031
44,19,female,Belg,1,24,guess,neutral,5,left,14,guess_choice,831,j,0,0,382,166857,576865
44,19,female,Belg,1,24,guess,neutral,5,left,14,guess_outcome,0,undefined,0,0,382,165286,578436
44,19,female,Belg,1,24,ITC,neutral,5,left,14,ITC_start,536,space,0,0,382,164749,578973
44,19,female,Belg,1,24,ITC,neutral,5,left,14,ITC_choice,976,j,0,0,382,163771,579951
44,19,female,Belg,1,24,ITC,neutral,5,left,14,ITC_wait,0,undefined,0,0,382,163769,579953
44,19,female,Belg,1,24,ITC,neutral,5,left,14,ITC_collect,1239,k,0,0,382,162528,581194
44,19,female,Belg,1,24,ITC,neutral,5,left,14,ITC_outcome,0,undefined,0,0,396,161516,582206
44,19,female,Belg,1,25,guess,win,5,right,1,guess_start,504,space,0,0,396,161010,582712
44,19,female,Belg,1,25,guess,win,5,right,1,guess_choice,796,j,0,0,396,160211,583511
44,19,female,Belg,1,25,guess,win,5,right,1,guess_outcome,0,undefined,0,0,416,158646,585076
44,19,female,Belg,1,25,ITC,win,5,right,1,ITC_start,120,space,0,0,416,158524,585198
44,19,female,Belg,1,25,ITC,win,5,right,1,ITC_choice,2656,j,0,0,416,155867,587855
44,19,female,Belg,1,25,ITC,win,5,right,1,ITC_wait,0,undefined,0,0,416,150845,592877
44,19,female,Belg,1,25,ITC,win,5,right,1,ITC_collect,637,k,0,0,416,150207,593515
44,19,female,Belg,1,25,ITC,win,5,right,1,ITC_outcome,0,undefined,0,0,436,149199,594523
44,19,female,Belg,1,26,guess,loss,5,left,3,guess_start,587,space,0,0,436,148610,595112
44,19,female,Belg,1,26,guess,loss,5,left,3,guess_choice,726,j,0,0,436,147881,595841
44,19,female,Belg,1,26,guess,loss,5,left,3,guess_outcome,0,undefined,0,0,421,146316,597406
44,19,female,Belg,1,26,ITC,loss,5,left,3,ITC_start,2167,space,0,0,421,144147,599575
44,19,female,Belg,1,26,ITC,loss,5,left,3,ITC_choice,837,j,0,0,421,143309,600413
44,19,female,Belg,1,26,ITC,loss,5,left,3,ITC_wait,0,undefined,0,0,421,143306,600416
44,19,female,Belg,1,26,ITC,loss,5,left,3,ITC_collect,819,k,0,0,421,142485,601237
44,19,female,Belg,1,26,ITC,loss,5,left,3,ITC_outcome,0,undefined,0,0,424,141464,602258
44,19,female,Belg,1,27,guess,neutral,5,left,16,guess_start,550,space,0,0,424,140913,602809
44,19,female,Belg,1,27,guess,neutral,5,left,16,guess_choice,852,j,0,0,424,140057,603665
44,19,female,Belg,1,27,guess,neutral,5,left,16,guess_outcome,0,undefined,0,0,424,138496,605226
44,19,female,Belg,1,27,ITC,neutral,5,left,16,ITC_start,787,space,0,0,424,137707,606015
44,19,female,Belg,1,27,ITC,neutral,5,left,16,ITC_wait,0,undefined,0,0,424,135643,608079
44,19,female,Belg,1,27,ITC,neutral,5,left,16,ITC_choice,2061,j,0,0,424,135645,608077
44,19,female,Belg,1,27,ITC,neutral,5,left,16,ITC_collect,740,k,0,0,424,134901,608821
44,19,female,Belg,1,27,ITC,neutral,5,left,16,ITC_outcome,0,undefined,0,0,440,133882,609840
44,19,female,Belg,1,28,guess,win,5,left,2,guess_start,864,space,0,0,440,133014,610708
44,19,female,Belg,1,28,guess,win,5,left,2,guess_choice,653,j,0,0,440,132359,611363
44,19,female,Belg,1,28,guess,win,5,left,2,guess_outcome,0,undefined,0,0,460,130806,612916
44,19,female,Belg,1,28,ITC,win,5,left,2,ITC_start,1483,space,0,0,460,129322,614400
44,19,female,Belg,1,28,ITC,win,5,left,2,ITC_choice,2305,f,0,0,460,127015,616707
44,19,female,Belg,1,28,ITC,win,5,left,2,ITC_wait,0,undefined,0,0,460,122004,621718
44,19,female,Belg,1,28,ITC,win,5,left,2,ITC_collect,699,k,0,0,460,121303,622419
44,19,female,Belg,1,28,ITC,win,5,left,2,ITC_outcome,0,undefined,0,0,480,120299,623423
44,19,female,Belg,1,29,guess,neutral,10,left,1,guess_start,492,space,0,0,480,119804,623918
44,19,female,Belg,1,29,guess,neutral,10,left,1,guess_choice,686,f,0,0,480,119115,624607
44,19,female,Belg,1,29,guess,neutral,10,left,1,guess_outcome,0,undefined,0,0,480,117546,626176
44,19,female,Belg,1,29,ITC,neutral,10,left,1,ITC_start,1173,space,0,0,480,116370,627352
44,19,female,Belg,1,29,ITC,neutral,10,left,1,ITC_choice,1941,f,0,0,480,114436,629286
44,19,female,Belg,1,29,ITC,neutral,10,left,1,ITC_wait,0,undefined,0,0,480,104430,639292
44,19,female,Belg,1,29,ITC,neutral,10,left,1,ITC_collect,1110,k,0,0,480,103314,640408
44,19,female,Belg,1,29,ITC,neutral,10,left,1,ITC_outcome,0,undefined,0,0,500,102307,641415
44,19,female,Belg,1,30,guess,win,5,left,16,guess_start,2487,space,0,0,500,99817,643905
44,19,female,Belg,1,30,guess,win,5,left,16,guess_choice,1179,f,0,0,500,98635,645087
44,19,female,Belg,1,30,guess,win,5,left,16,guess_outcome,0,undefined,0,0,520,97068,646654
44,19,female,Belg,1,30,ITC,win,5,left,16,ITC_start,548,space,0,0,520,96518,647204
44,19,female,Belg,1,30,ITC,win,5,left,16,ITC_choice,1856,j,0,0,520,94660,649062
44,19,female,Belg,1,30,ITC,win,5,left,16,ITC_wait,0,undefined,0,0,520,94658,649064
44,19,female,Belg,1,30,ITC,win,5,left,16,ITC_collect,960,k,0,0,520,93695,650027
44,19,female,Belg,1,30,ITC,win,5,left,16,ITC_outcome,0,undefined,0,0,536,92688,651034
44,19,female,Belg,1,31,guess,win,10,right,8,guess_start,1381,space,0,0,536,91305,652417
44,19,female,Belg,1,31,guess,win,10,right,8,guess_choice,1066,j,0,0,536,90237,653485
44,19,female,Belg,1,31,guess,win,10,right,8,guess_outcome,0,undefined,0,0,556,88668,655054
44,19,female,Belg,1,31,ITC,win,10,right,8,ITC_start,1628,space,0,0,556,87036,656686
44,19,female,Belg,1,31,ITC,win,10,right,8,ITC_choice,2366,f,0,0,556,84668,659054
44,19,female,Belg,1,31,ITC,win,10,right,8,ITC_wait,0,undefined,0,0,556,84664,659058
44,19,female,Belg,1,31,ITC,win,10,right,8,ITC_collect,802,k,0,0,556,83861,659861
44,19,female,Belg,1,31,ITC,win,10,right,8,ITC_outcome,0,undefined,0,0,564,82846,660876
44,19,female,Belg,1,32,guess,win,5,left,15,guess_start,414,space,0,0,564,82431,661291
44,19,female,Belg,1,32,guess,win,5,left,15,guess_choice,692,j,0,0,564,81736,661986
44,19,female,Belg,1,32,guess,win,5,left,15,guess_outcome,0,undefined,0,0,584,80161,663561
44,19,female,Belg,1,32,ITC,win,5,left,15,ITC_start,659,space,0,0,584,79499,664223
44,19,female,Belg,1,32,ITC,win,5,left,15,ITC_choice,967,j,0,0,584,78530,665192
44,19,female,Belg,1,32,ITC,win,5,left,15,ITC_wait,0,undefined,0,0,584,78528,665194
44,19,female,Belg,1,32,ITC,win,5,left,15,ITC_collect,735,k,0,0,584,77791,665931
44,19,female,Belg,1,32,ITC,win,5,left,15,ITC_outcome,0,undefined,0,0,599,76771,666951
44,19,female,Belg,1,33,guess,neutral,5,left,2,guess_start,646,space,0,0,599,76124,667598
44,19,female,Belg,1,33,guess,neutral,5,left,2,guess_choice,522,j,0,0,599,75599,668123
44,19,female,Belg,1,33,guess,neutral,5,left,2,guess_outcome,0,undefined,0,0,599,74043,669679
44,19,female,Belg,1,33,ITC,neutral,5,left,2,ITC_start,559,space,0,0,599,73482,670240
44,19,female,Belg,1,33,ITC,neutral,5,left,2,ITC_choice,917,j,0,0,599,72563,671159
44,19,female,Belg,1,33,ITC,neutral,5,left,2,ITC_wait,0,undefined,0,0,599,72561,671161
44,19,female,Belg,1,33,ITC,neutral,5,left,2,ITC_collect,880,k,0,0,599,71679,672043
44,19,female,Belg,1,33,ITC,neutral,5,left,2,ITC_outcome,0,undefined,0,0,601,70657,673065
44,19,female,Belg,1,34,guess,win,5,right,8,guess_start,454,space,0,0,601,70201,673521
44,19,female,Belg,1,34,guess,win,5,right,8,guess_choice,1011,j,0,0,601,69188,674534
44,19,female,Belg,1,34,guess,win,5,right,8,guess_outcome,0,undefined,0,0,621,67626,676096
44,19,female,Belg,1,34,ITC,win,5,right,8,ITC_start,1228,space,0,0,621,66397,677325
44,19,female,Belg,1,34,ITC,win,5,right,8,ITC_choice,2002,j,0,0,621,64394,679328
44,19,female,Belg,1,34,ITC,win,5,right,8,ITC_wait,0,undefined,0,0,621,59386,684336
44,19,female,Belg,1,34,ITC,win,5,right,8,ITC_collect,845,k,0,0,621,58540,685182
44,19,female,Belg,1,34,ITC,win,5,right,8,ITC_outcome,0,undefined,0,0,641,57529,686193
44,19,female,Belg,1,35,guess,neutral,10,left,3,guess_start,1384,space,0,0,641,56142,687580
44,19,female,Belg,1,35,guess,neutral,10,left,3,guess_choice,647,j,0,0,641,55492,688230
44,19,female,Belg,1,35,guess,neutral,10,left,3,guess_outcome,0,undefined,0,0,641,53929,689793
44,19,female,Belg,1,35,ITC,neutral,10,left,3,ITC_start,1707,space,0,0,641,52220,691502
44,19,female,Belg,1,35,ITC,neutral,10,left,3,ITC_choice,1562,j,0,0,641,50656,693066
44,19,female,Belg,1,35,ITC,neutral,10,left,3,ITC_wait,0,undefined,0,0,641,50653,693069
44,19,female,Belg,1,35,ITC,neutral,10,left,3,ITC_collect,824,k,0,0,641,49827,693895
44,19,female,Belg,1,35,ITC,neutral,10,left,3,ITC_outcome,0,undefined,0,0,644,48818,694904
44,19,female,Belg,1,36,guess,neutral,10,left,7,guess_start,588,space,0,0,644,48228,695494
44,19,female,Belg,1,36,guess,neutral,10,left,7,guess_choice,620,f,0,0,644,47605,696117
44,19,female,Belg,1,36,guess,neutral,10,left,7,guess_outcome,0,undefined,0,0,644,46039,697683
44,19,female,Belg,1,36,ITC,neutral,10,left,7,ITC_start,1139,space,0,0,644,44898,698824
44,19,female,Belg,1,36,ITC,neutral,10,left,7,ITC_choice,759,j,0,0,644,44138,699584
44,19,female,Belg,1,36,ITC,neutral,10,left,7,ITC_wait,0,undefined,0,0,644,44135,699587
44,19,female,Belg,1,36,ITC,neutral,10,left,7,ITC_collect,794,k,0,0,644,43340,700382
44,19,female,Belg,1,36,ITC,neutral,10,left,7,ITC_outcome,0,undefined,0,0,651,42318,701404
44,19,female,Belg,1,37,guess,loss,10,left,7,guess_start,475,space,0,0,651,41841,701881
44,19,female,Belg,1,37,guess,loss,10,left,7,guess_choice,580,j,0,0,651,41257,702465
44,19,female,Belg,1,37,guess,loss,10,left,7,guess_outcome,0,undefined,0,0,636,39689,704033
44,19,female,Belg,1,37,ITC,loss,10,left,7,ITC_start,1677,space,0,0,636,38010,705712
44,19,female,Belg,1,37,ITC,loss,10,left,7,ITC_choice,1792,j,0,0,636,36217,707505
44,19,female,Belg,1,37,ITC,loss,10,left,7,ITC_wait,0,undefined,0,0,636,36213,707509
44,19,female,Belg,1,37,ITC,loss,10,left,7,ITC_collect,658,k,0,0,636,35553,708169
44,19,female,Belg,1,37,ITC,loss,10,left,7,ITC_outcome,0,undefined,0,0,643,34537,709185
44,19,female,Belg,1,38,guess,win,5,right,4,guess_start,460,space,0,0,643,34075,709647
44,19,female,Belg,1,38,guess,win,5,right,4,guess_choice,811,f,0,0,643,33261,710461
44,19,female,Belg,1,38,guess,win,5,right,4,guess_outcome,0,undefined,0,0,663,31698,712024
44,19,female,Belg,1,38,ITC,win,5,right,4,ITC_start,494,space,0,0,663,31202,712520
44,19,female,Belg,1,38,ITC,win,5,right,4,ITC_choice,2661,j,0,0,663,28540,715182
44,19,female,Belg,1,38,ITC,win,5,right,4,ITC_wait,0,undefined,0,0,663,23528,720194
44,19,female,Belg,1,38,ITC,win,5,right,4,ITC_collect,770,k,0,0,663,22757,720965
44,19,female,Belg,1,38,ITC,win,5,right,4,ITC_outcome,0,undefined,0,0,683,21748,721974
44,19,female,Belg,1,39,guess,loss,5,right,14,guess_start,716,space,0,0,683,21029,722693
44,19,female,Belg,1,39,guess,loss,5,right,14,guess_choice,716,j,0,0,683,20311,723411
44,19,female,Belg,1,39,guess,loss,5,right,14,guess_outcome,0,undefined,0,0,668,18749,724973
44,19,female,Belg,1,39,ITC,loss,5,right,14,ITC_start,559,space,0,0,668,18188,725534
44,19,female,Belg,1,39,ITC,loss,5,right,14,ITC_choice,2282,f,0,0,668,15905,727817
44,19,female,Belg,1,39,ITC,loss,5,right,14,ITC_wait,0,undefined,0,0,668,15902,727820
44,19,female,Belg,1,39,ITC,loss,5,right,14,ITC_collect,624,k,0,0,668,15277,728445
44,19,female,Belg,1,39,ITC,loss,5,right,14,ITC_outcome,0,undefined,0,0,682,14258,729464
44,19,female,Belg,1,40,guess,win,5,left,9,guess_start,512,space,0,0,682,13744,729978
44,19,female,Belg,1,40,guess,win,5,left,9,guess_choice,962,f,0,0,682,12779,730943
44,19,female,Belg,1,40,guess,win,5,left,9,guess_outcome,0,undefined,0,0,702,11214,732508
44,19,female,Belg,1,40,ITC,win,5,left,9,ITC_start,581,space,0,0,702,10632,733090
44,19,female,Belg,1,40,ITC,win,5,left,9,ITC_choice,1784,j,0,0,702,8847,734875
44,19,female,Belg,1,40,ITC,win,5,left,9,ITC_wait,0,undefined,0,0,702,8844,734878
44,19,female,Belg,1,40,ITC,win,5,left,9,ITC_collect,879,k,0,0,702,7963,735759
44,19,female,Belg,1,40,ITC,win,5,left,9,ITC_outcome,0,undefined,0,0,711,6955,736767
44,19,female,Belg,1,41,guess,neutral,10,left,5,guess_start,269,space,0,0,711,6685,737037
44,19,female,Belg,1,41,guess,neutral,10,left,5,guess_choice,531,f,0,0,711,6150,737572
44,19,female,Belg,1,41,guess,neutral,10,left,5,guess_outcome,0,undefined,0,0,711,4584,739138
44,19,female,Belg,1,41,ITC,neutral,10,left,5,ITC_start,535,space,0,0,711,4048,739674
44,19,female,Belg,1,41,ITC,neutral,10,left,5,ITC_choice,2011,j,0,0,711,2035,741687
44,19,female,Belg,1,41,ITC,neutral,10,left,5,ITC_wait,0,undefined,0,0,711,2032,741690
44,19,female,Belg,1,41,ITC,neutral,10,left,5,ITC_collect,983,k,0,0,711,1046,742676
44,19,female,Belg,1,41,ITC,neutral,10,left,5,ITC_outcome,0,undefined,0,0,716,20,743702
44,19,female,Belg,1,42,guess,loss,5,right,9,guess_start,0,undefined,0,0,716,-12,743734
44,19,female,Belg,2,43,guess,loss,10,right,8,guess_start,1337,space,0,0,0,478662,755264
44,19,female,Belg,2,43,guess,loss,10,right,8,guess_choice,610,f,0,0,0,478049,755877
44,19,female,Belg,2,43,guess,loss,10,right,8,guess_outcome,0,undefined,0,0,-15,476483,757443
44,19,female,Belg,2,43,ITC,loss,10,right,8,ITC_start,777,space,0,0,-15,475695,758231
44,19,female,Belg,2,43,ITC,loss,10,right,8,ITC_choice,1397,j,0,0,-15,474296,759630
44,19,female,Belg,2,43,ITC,loss,10,right,8,ITC_wait,0,undefined,0,0,-15,464277,769649
44,19,female,Belg,2,43,ITC,loss,10,right,8,ITC_collect,979,k,0,0,-15,463296,770630
44,19,female,Belg,2,43,ITC,loss,10,right,8,ITC_outcome,0,undefined,0,0,5,462285,771641
44,19,female,Belg,2,44,guess,win,5,right,12,guess_start,1029,space,0,0,5,461253,772673
44,19,female,Belg,2,44,guess,win,5,right,12,guess_choice,621,f,0,0,5,460629,773297
44,19,female,Belg,2,44,guess,win,5,right,12,guess_outcome,0,undefined,0,0,25,459066,774860
44,19,female,Belg,2,44,ITC,win,5,right,12,ITC_start,690,space,0,0,25,458375,775551
44,19,female,Belg,2,44,ITC,win,5,right,12,ITC_choice,2155,f,0,0,25,456218,777708
44,19,female,Belg,2,44,ITC,win,5,right,12,ITC_wait,0,undefined,0,0,25,456215,777711
44,19,female,Belg,2,44,ITC,win,5,right,12,ITC_collect,628,k,0,0,25,455585,778341
44,19,female,Belg,2,44,ITC,win,5,right,12,ITC_outcome,0,undefined,0,0,37,454565,779361
44,19,female,Belg,2,45,guess,neutral,5,left,7,guess_start,843,space,0,0,37,453719,780207
44,19,female,Belg,2,45,guess,neutral,5,left,7,guess_choice,1079,j,0,0,37,452637,781289
44,19,female,Belg,2,45,guess,neutral,5,left,7,guess_outcome,0,undefined,0,0,37,451066,782860
44,19,female,Belg,2,45,ITC,neutral,5,left,7,ITC_start,1105,space,0,0,37,449959,783967
44,19,female,Belg,2,45,ITC,neutral,5,left,7,ITC_choice,1417,j,0,0,37,448540,785386
44,19,female,Belg,2,45,ITC,neutral,5,left,7,ITC_wait,0,undefined,0,0,37,448536,785390
44,19,female,Belg,2,45,ITC,neutral,5,left,7,ITC_collect,762,k,0,0,37,447772,786154
44,19,female,Belg,2,45,ITC,neutral,5,left,7,ITC_outcome,0,undefined,0,0,44,446761,787165
44,19,female,Belg,2,46,guess,loss,10,right,3,guess_start,461,space,0,0,44,446297,787629
44,19,female,Belg,2,46,guess,loss,10,right,3,guess_choice,805,f,0,0,44,445489,788437
44,19,female,Belg,2,46,guess,loss,10,right,3,guess_outcome,0,undefined,0,0,29,443925,790001
44,19,female,Belg,2,46,ITC,loss,10,right,3,ITC_start,1516,space,0,0,29,442407,791519
44,19,female,Belg,2,46,ITC,loss,10,right,3,ITC_choice,1347,f,0,0,29,441059,792867
44,19,female,Belg,2,46,ITC,loss,10,right,3,ITC_wait,0,undefined,0,0,29,441055,792871
44,19,female,Belg,2,46,ITC,loss,10,right,3,ITC_collect,515,k,0,0,29,440538,793388
44,19,female,Belg,2,46,ITC,loss,10,right,3,ITC_outcome,0,undefined,0,0,32,439513,794413
44,19,female,Belg,2,47,guess,loss,5,left,12,guess_start,406,space,0,0,32,439106,794820
44,19,female,Belg,2,47,guess,loss,5,left,12,guess_choice,1141,j,0,0,32,437962,795964
44,19,female,Belg,2,47,guess,loss,5,left,12,guess_outcome,0,undefined,0,0,17,436396,797530
44,19,female,Belg,2,47,ITC,loss,5,left,12,ITC_start,1419,space,0,0,17,434975,798951
44,19,female,Belg,2,47,ITC,loss,5,left,12,ITC_choice,2342,j,0,0,17,432632,801294
44,19,female,Belg,2,47,ITC,loss,5,left,12,ITC_wait,0,undefined,0,0,17,432630,801296
44,19,female,Belg,2,47,ITC,loss,5,left,12,ITC_collect,680,k,0,0,17,431947,801979
44,19,female,Belg,2,47,ITC,loss,5,left,12,ITC_outcome,0,undefined,0,0,29,430935,802991
44,19,female,Belg,2,48,guess,win,10,left,7,guess_start,464,space,0,0,29,430469,803457
44,19,female,Belg,2,48,guess,win,10,left,7,guess_choice,607,f,0,0,29,429859,804067
44,19,female,Belg,2,48,guess,win,10,left,7,guess_outcome,0,undefined,0,0,49,428285,805641
44,19,female,Belg,2,48,ITC,win,10,left,7,ITC_start,863,space,0,0,49,427421,806505
44,19,female,Belg,2,48,ITC,win,10,left,7,ITC_choice,1967,j,0,0,49,425453,808473
44,19,female,Belg,2,48,ITC,win,10,left,7,ITC_wait,0,undefined,0,0,49,425451,808475
44,19,female,Belg,2,48,ITC,win,10,left,7,ITC_collect,645,k,0,0,49,424804,809122
44,19,female,Belg,2,48,ITC,win,10,left,7,ITC_outcome,0,undefined,0,0,56,423784,810142
44,19,female,Belg,2,49,guess,neutral,10,left,4,guess_start,489,space,0,0,56,423294,810632
44,19,female,Belg,2,49,guess,neutral,10,left,4,guess_choice,521,f,0,0,56,422771,811155
44,19,female,Belg,2,49,guess,neutral,10,left,4,guess_outcome,0,undefined,0,0,56,421210,812716
44,19,female,Belg,2,49,ITC,neutral,10,left,4,ITC_start,562,space,0,0,56,420655,813271
44,19,female,Belg,2,49,ITC,neutral,10,left,4,ITC_choice,1482,f,0,0,56,419172,814754
44,19,female,Belg,2,49,ITC,neutral,10,left,4,ITC_wait,0,undefined,0,0,56,409158,824768
44,19,female,Belg,2,49,ITC,neutral,10,left,4,ITC_collect,808,k,0,0,56,408349,825577
44,19,female,Belg,2,49,ITC,neutral,10,left,4,ITC_outcome,0,undefined,0,0,76,407346,826580
44,19,female,Belg,2,50,guess,loss,5,left,1,guess_start,510,space,0,0,76,406834,827092
44,19,female,Belg,2,50,guess,loss,5,left,1,guess_choice,761,f,0,0,76,406071,827855
44,19,female,Belg,2,50,guess,loss,5,left,1,guess_outcome,0,undefined,0,0,61,404505,829421
44,19,female,Belg,2,50,ITC,loss,5,left,1,ITC_start,527,space,0,0,61,403977,829949
44,19,female,Belg,2,50,ITC,loss,5,left,1,ITC_choice,958,f,0,0,61,403018,830908
44,19,female,Belg,2,50,ITC,loss,5,left,1,ITC_wait,0,undefined,0,0,61,398010,835916
44,19,female,Belg,2,50,ITC,loss,5,left,1,ITC_collect,276,k,0,0,61,397732,836194
44,19,female,Belg,2,50,ITC,loss,5,left,1,ITC_outcome,0,undefined,0,0,81,396710,837216
44,19,female,Belg,2,51,guess,neutral,10,right,8,guess_start,600,space,0,0,81,396109,837817
44,19,female,Belg,2,51,guess,neutral,10,right,8,guess_choice,612,f,0,0,81,395495,838431
44,19,female,Belg,2,51,guess,neutral,10,right,8,guess_outcome,0,undefined,0,0,81,393930,839996
44,19,female,Belg,2,51,ITC,neutral,10,right,8,ITC_start,757,space,0,0,81,393172,840754
44,19,female,Belg,2,51,ITC,neutral,10,right,8,ITC_choice,1751,f,0,0,81,391419,842507
44,19,female,Belg,2,51,ITC,neutral,10,right,8,ITC_wait,0,undefined,0,0,81,391417,842509
44,19,female,Belg,2,51,ITC,neutral,10,right,8,ITC_collect,650,k,0,0,81,390765,843161
44,19,female,Belg,2,51,ITC,neutral,10,right,8,ITC_outcome,0,undefined,0,0,89,389750,844176
44,19,female,Belg,2,52,guess,neutral,5,right,15,guess_start,442,space,0,0,89,389306,844620
44,19,female,Belg,2,52,guess,neutral,5,right,15,guess_choice,632,j,0,0,89,388672,845254
44,19,female,Belg,2,52,guess,neutral,5,right,15,guess_outcome,0,undefined,0,0,89,387100,846826
44,19,female,Belg,2,52,ITC,neutral,5,right,15,ITC_start,800,space,0,0,89,386299,847627
44,19,female,Belg,2,52,ITC,neutral,5,right,15,ITC_choice,777,f,0,0,89,385521,848405
44,19,female,Belg,2,52,ITC,neutral,5,right,15,ITC_wait,0,undefined,0,0,89,385519,848407
44,19,female,Belg,2,52,ITC,neutral,5,right,15,ITC_collect,596,k,0,0,89,384921,849005
44,19,female,Belg,2,52,ITC,neutral,5,right,15,ITC_outcome,0,undefined,0,0,104,383910,850016
44,19,female,Belg,2,53,guess,win,5,left,3,guess_start,486,space,0,0,104,383423,850503
44,19,female,Belg,2,53,guess,win,5,left,3,guess_choice,529,f,0,0,104,382892,851034
44,19,female,Belg,2,53,guess,win,5,left,3,guess_outcome,0,undefined,0,0,124,381330,852596
44,19,female,Belg,2,53,ITC,win,5,left,3,ITC_start,608,space,0,0,124,380721,853205
44,19,female,Belg,2,53,ITC,win,5,left,3,ITC_choice,1182,f,0,0,124,379537,854389
44,19,female,Belg,2,53,ITC,win,5,left,3,ITC_wait,0,undefined,0,0,124,374529,859397
44,19,female,Belg,2,53,ITC,win,5,left,3,ITC_collect,600,k,0,0,124,373928,859998
44,19,female,Belg,2,53,ITC,win,5,left,3,ITC_outcome,0,undefined,0,0,144,372925,861001
44,19,female,Belg,2,54,guess,win,10,left,1,guess_start,639,space,0,0,144,372285,861641
44,19,female,Belg,2,54,guess,win,10,left,1,guess_choice,698,f,0,0,144,371584,862342
44,19,female,Belg,2,54,guess,win,10,left,1,guess_outcome,0,undefined,0,0,164,370031,863895
44,19,female,Belg,2,54,ITC,win,10,left,1,ITC_start,1281,space,0,0,164,368749,865177
44,19,female,Belg,2,54,ITC,win,10,left,1,ITC_choice,2087,j,0,0,164,366661,867265
44,19,female,Belg,2,54,ITC,win,10,left,1,ITC_wait,0,undefined,0,0,164,366658,867268
44,19,female,Belg,2,54,ITC,win,10,left,1,ITC_collect,974,k,0,0,164,365682,868244
44,19,female,Belg,2,54,ITC,win,10,left,1,ITC_outcome,0,undefined,0,0,165,364665,869261
44,19,female,Belg,2,55,guess,loss,10,right,5,guess_start,485,space,0,0,165,364179,869747
44,19,female,Belg,2,55,guess,loss,10,right,5,guess_choice,478,f,0,0,165,363699,870227
44,19,female,Belg,2,55,guess,loss,10,right,5,guess_outcome,0,undefined,0,0,150,362131,871795
44,19,female,Belg,2,55,ITC,loss,10,right,5,ITC_start,594,space,0,0,150,361536,872390
44,19,female,Belg,2,55,ITC,loss,10,right,5,ITC_choice,2097,f,0,0,150,359433,874493
44,19,female,Belg,2,55,ITC,loss,10,right,5,ITC_wait,0,undefined,0,0,150,359431,874495
44,19,female,Belg,2,55,ITC,loss,10,right,5,ITC_collect,836,k,0,0,150,358593,875333
44,19,female,Belg,2,55,ITC,loss,10,right,5,ITC_outcome,0,undefined,0,0,155,357576,876350
44,19,female,Belg,2,56,guess,neutral,5,right,5,guess_start,419,space,0,0,155,357155,876771
44,19,female,Belg,2,56,guess,neutral,5,right,5,guess_choice,522,f,0,0,155,356630,877296
44,19,female,Belg,2,56,guess,neutral,5,right,5,guess_outcome,0,undefined,0,0,155,355076,878850
44,19,female,Belg,2,56,ITC,neutral,5,right,5,ITC_start,728,space,0,0,155,354346,879580
44,19,female,Belg,2,56,ITC,neutral,5,right,5,ITC_choice,1903,j,0,0,155,352442,881484
44,19,female,Belg,2,56,ITC,neutral,5,right,5,ITC_wait,0,undefined,0,0,155,347425,886501
44,19,female,Belg,2,56,ITC,neutral,5,right,5,ITC_collect,1169,k,0,0,155,346255,887671
44,19,female,Belg,2,56,ITC,neutral,5,right,5,ITC_outcome,0,undefined,0,0,175,345245,888681
44,19,female,Belg,2,57,guess,loss,5,right,7,guess_start,502,space,0,0,175,344741,889185
44,19,female,Belg,2,57,guess,loss,5,right,7,guess_choice,641,j,0,0,175,344097,889829
44,19,female,Belg,2,57,guess,loss,5,right,7,guess_outcome,0,undefined,0,0,160,342535,891391
44,19,female,Belg,2,57,ITC,loss,5,right,7,ITC_start,943,space,0,0,160,341590,892336
44,19,female,Belg,2,57,ITC,loss,5,right,7,ITC_choice,1657,j,0,0,160,339932,893994
44,19,female,Belg,2,57,ITC,loss,5,right,7,ITC_wait,0,undefined,0,0,160,334915,899011
44,19,female,Belg,2,57,ITC,loss,5,right,7,ITC_collect,740,k,0,0,160,334174,899752
44,19,female,Belg,2,57,ITC,loss,5,right,7,ITC_outcome,0,undefined,0,0,180,333161,900765
44,19,female,Belg,2,58,guess,win,5,left,10,guess_start,743,space,0,0,180,332417,901509
44,19,female,Belg,2,58,guess,win,5,left,10,guess_choice,502,f,0,0,180,331912,902014
44,19,female,Belg,2,58,guess,win,5,left,10,guess_outcome,0,undefined,0,0,200,330346,903580
44,19,female,Belg,2,58,ITC,win,5,left,10,ITC_start,1719,space,0,0,200,328625,905301
44,19,female,Belg,2,58,ITC,win,5,left,10,ITC_choice,1192,j,0,0,200,327432,906494
44,19,female,Belg,2,58,ITC,win,5,left,10,ITC_wait,0,undefined,0,0,200,327430,906496
44,19,female,Belg,2,58,ITC,win,5,left,10,ITC_collect,835,k,0,0,200,326593,907333
44,19,female,Belg,2,58,ITC,win,5,left,10,ITC_outcome,0,undefined,0,0,210,325585,908341
44,19,female,Belg,2,59,guess,loss,5,right,2,guess_start,399,space,0,0,210,325184,908742
44,19,female,Belg,2,59,guess,loss,5,right,2,guess_choice,568,f,0,0,210,324615,909311
44,19,female,Belg,2,59,guess,loss,5,right,2,guess_outcome,0,undefined,0,0,195,323056,910870
44,19,female,Belg,2,59,ITC,loss,5,right,2,ITC_start,1167,space,0,0,195,321888,912038
44,19,female,Belg,2,59,ITC,loss,5,right,2,ITC_choice,1977,j,0,0,195,319910,914016
44,19,female,Belg,2,59,ITC,loss,5,right,2,ITC_wait,0,undefined,0,0,195,314896,919030
44,19,female,Belg,2,59,ITC,loss,5,right,2,ITC_collect,346,k,0,0,195,314549,919377
44,19,female,Belg,2,59,ITC,loss,5,right,2,ITC_outcome,0,undefined,0,0,215,313536,920390
44,19,female,Belg,2,60,guess,win,5,left,5,guess_start,454,space,0,0,215,313080,920846
44,19,female,Belg,2,60,guess,win,5,left,5,guess_choice,438,j,0,0,215,312640,921286
44,19,female,Belg,2,60,guess,win,5,left,5,guess_outcome,0,undefined,0,0,235,311086,922840
44,19,female,Belg,2,60,ITC,win,5,left,5,ITC_start,1169,space,0,0,235,309916,924010
44,19,female,Belg,2,60,ITC,win,5,left,5,ITC_choice,872,j,0,0,235,309042,924884
44,19,female,Belg,2,60,ITC,win,5,left,5,ITC_wait,0,undefined,0,0,235,309040,924886
44,19,female,Belg,2,60,ITC,win,5,left,5,ITC_collect,380,k,0,0,235,308658,925268
44,19,female,Belg,2,60,ITC,win,5,left,5,ITC_outcome,0,undefined,0,0,240,307646,926280
44,19,female,Belg,2,61,guess,neutral,5,right,6,guess_start,395,space,0,0,240,307249,926677
44,19,female,Belg,2,61,guess,neutral,5,right,6,guess_choice,572,f,0,0,240,306675,927251
44,19,female,Belg,2,61,guess,neutral,5,right,6,guess_outcome,0,undefined,0,0,240,305106,928820
44,19,female,Belg,2,61,ITC,neutral,5,right,6,ITC_start,1016,space,0,0,240,304088,929838
44,19,female,Belg,2,61,ITC,neutral,5,right,6,ITC_choice,2132,f,0,0,240,301955,931971
44,19,female,Belg,2,61,ITC,neutral,5,right,6,ITC_wait,0,undefined,0,0,240,301953,931973
44,19,female,Belg,2,61,ITC,neutral,5,right,6,ITC_collect,681,k,0,0,240,301271,932655
44,19,female,Belg,2,61,ITC,neutral,5,right,6,ITC_outcome,0,undefined,0,0,246,300265,933661
44,19,female,Belg,2,62,guess,loss,5,left,10,guess_start,511,space,0,0,246,299752,934174
44,19,female,Belg,2,62,guess,loss,5,left,10,guess_choice,627,j,0,0,246,299119,934807
44,19,female,Belg,2,62,guess,loss,5,left,10,guess_outcome,0,undefined,0,0,231,297553,936373
44,19,female,Belg,2,62,ITC,loss,5,left,10,ITC_start,420,space,0,0,231,297131,936795
44,19,female,Belg,2,62,ITC,loss,5,left,10,ITC_choice,739,j,0,0,231,296391,937535
44,19,female,Belg,2,62,ITC,loss,5,left,10,ITC_wait,0,undefined,0,0,231,296383,937543
44,19,female,Belg,2,62,ITC,loss,5,left,10,ITC_collect,499,k,0,0,231,295883,938043
44,19,female,Belg,2,62,ITC,loss,5,left,10,ITC_outcome,0,undefined,0,0,241,294862,939064
44,19,female,Belg,2,63,guess,loss,5,right,8,guess_start,362,space,0,0,241,294499,939427
44,19,female,Belg,2,63,guess,loss,5,right,8,guess_choice,443,f,0,0,241,294054,939872
44,19,female,Belg,2,63,guess,loss,5,right,8,guess_outcome,0,undefined,0,0,226,292482,941444
44,19,female,Belg,2,63,ITC,loss,5,right,8,ITC_start,33,space,0,0,226,292448,941478
44,19,female,Belg,2,63,ITC,loss,5,right,8,ITC_choice,2322,j,0,0,226,290125,943801
44,19,female,Belg,2,63,ITC,loss,5,right,8,ITC_wait,0,undefined,0,0,226,285112,948814
44,19,female,Belg,2,63,ITC,loss,5,right,8,ITC_collect,685,k,0,0,226,284425,949501
44,19,female,Belg,2,63,ITC,loss,5,right,8,ITC_outcome,0,undefined,0,0,246,283412,950514
44,19,female,Belg,2,64,guess,win,10,right,5,guess_start,1162,space,0,0,246,282248,951678
44,19,female,Belg,2,64,guess,win,10,right,5,guess_choice,518,f,0,0,246,281727,952199
44,19,female,Belg,2,64,guess,win,10,right,5,guess_outcome,0,undefined,0,0,266,280163,953763
44,19,female,Belg,2,64,ITC,win,10,right,5,ITC_start,1241,space,0,0,266,278920,955006
44,19,female,Belg,2,64,ITC,win,10,right,5,ITC_choice,2150,f,0,0,266,276768,957158
44,19,female,Belg,2,64,ITC,win,10,right,5,ITC_wait,0,undefined,0,0,266,276766,957160
44,19,female,Belg,2,64,ITC,win,10,right,5,ITC_collect,522,k,0,0,266,276242,957684
44,19,female,Belg,2,64,ITC,win,10,right,5,ITC_outcome,0,undefined,0,0,271,275222,958704
44,19,female,Belg,2,65,guess,loss,5,right,5,guess_start,645,space,0,0,271,274575,959351
44,19,female,Belg,2,65,guess,loss,5,right,5,guess_choice,947,j,0,0,271,273625,960301
44,19,female,Belg,2,65,guess,loss,5,right,5,guess_outcome,0,undefined,0,0,256,272054,961872
44,19,female,Belg,2,65,ITC,loss,5,right,5,ITC_start,794,space,0,0,256,271259,962667
44,19,female,Belg,2,65,ITC,loss,5,right,5,ITC_choice,1048,f,0,0,256,270210,963716
44,19,female,Belg,2,65,ITC,loss,5,right,5,ITC_wait,0,undefined,0,0,256,270207,963719
44,19,female,Belg,2,65,ITC,loss,5,right,5,ITC_collect,555,k,0,0,256,269651,964275
44,19,female,Belg,2,65,ITC,loss,5,right,5,ITC_outcome,0,undefined,0,0,261,268644,965282
44,19,female,Belg,2,66,guess,neutral,10,right,6,guess_start,451,space,0,0,261,268192,965734
44,19,female,Belg,2,66,guess,neutral,10,right,6,guess_choice,588,j,0,0,261,267602,966324
44,19,female,Belg,2,66,guess,neutral,10,right,6,guess_outcome,0,undefined,0,0,261,266034,967892
44,19,female,Belg,2,66,ITC,neutral,10,right,6,ITC_start,508,space,0,0,261,265525,968401
44,19,female,Belg,2,66,ITC,neutral,10,right,6,ITC_choice,1822,f,0,0,261,263701,970225
44,19,female,Belg,2,66,ITC,neutral,10,right,6,ITC_wait,0,undefined,0,0,261,263699,970227
44,19,female,Belg,2,66,ITC,neutral,10,right,6,ITC_collect,451,k,0,0,261,263247,970679
44,19,female,Belg,2,66,ITC,neutral,10,right,6,ITC_outcome,0,undefined,0,0,267,262244,971682
44,19,female,Belg,2,67,guess,neutral,5,left,8,guess_start,360,space,0,0,267,261882,972044
44,19,female,Belg,2,67,guess,neutral,5,left,8,guess_choice,482,f,0,0,267,261399,972527
44,19,female,Belg,2,67,guess,neutral,5,left,8,guess_outcome,0,undefined,0,0,267,259834,974092
44,19,female,Belg,2,67,ITC,neutral,5,left,8,ITC_start,727,space,0,0,267,259106,974820
44,19,female,Belg,2,67,ITC,neutral,5,left,8,ITC_choice,1953,j,0,0,267,257152,976774
44,19,female,Belg,2,67,ITC,neutral,5,left,8,ITC_wait,0,undefined,0,0,267,257150,976776
44,19,female,Belg,2,67,ITC,neutral,5,left,8,ITC_collect,1015,k,0,0,267,256133,977793
44,19,female,Belg,2,67,ITC,neutral,5,left,8,ITC_outcome,0,undefined,0,0,275,255114,978812
44,19,female,Belg,2,68,guess,neutral,5,left,9,guess_start,399,space,0,0,275,254714,979212
44,19,female,Belg,2,68,guess,neutral,5,left,9,guess_choice,537,j,0,0,275,254174,979752
44,19,female,Belg,2,68,guess,neutral,5,left,9,guess_outcome,0,undefined,0,0,275,252608,981318
44,19,female,Belg,2,68,ITC,neutral,5,left,9,ITC_start,562,space,0,0,275,252042,981884
44,19,female,Belg,2,68,ITC,neutral,5,left,9,ITC_choice,932,j,0,0,275,251108,982818
44,19,female,Belg,2,68,ITC,neutral,5,left,9,ITC_wait,0,undefined,0,0,275,251105,982821
44,19,female,Belg,2,68,ITC,neutral,5,left,9,ITC_collect,775,k,0,0,275,250328,983598
44,19,female,Belg,2,68,ITC,neutral,5,left,9,ITC_outcome,0,undefined,0,0,284,249315,984611
44,19,female,Belg,2,69,guess,neutral,5,left,4,guess_start,917,space,0,0,284,248396,985530
44,19,female,Belg,2,69,guess,neutral,5,left,4,guess_choice,444,f,0,0,284,247950,985976
44,19,female,Belg,2,69,guess,neutral,5,left,4,guess_outcome,0,undefined,0,0,284,246384,987542
44,19,female,Belg,2,69,ITC,neutral,5,left,4,ITC_start,570,space,0,0,284,245814,988112
44,19,female,Belg,2,69,ITC,neutral,5,left,4,ITC_choice,1103,f,0,0,284,244710,989216
44,19,female,Belg,2,69,ITC,neutral,5,left,4,ITC_wait,0,undefined,0,0,284,239705,994221
44,19,female,Belg,2,69,ITC,neutral,5,left,4,ITC_collect,544,k,0,0,284,239160,994766
44,19,female,Belg,2,69,ITC,neutral,5,left,4,ITC_outcome,0,undefined,0,0,304,238163,995763
44,19,female,Belg,2,70,guess,neutral,5,right,10,guess_start,570,space,0,0,304,237592,996334
44,19,female,Belg,2,70,guess,neutral,5,right,10,guess_choice,523,j,0,0,304,237068,996858
44,19,female,Belg,2,70,guess,neutral,5,right,10,guess_outcome,0,undefined,0,0,304,235503,998423
44,19,female,Belg,2,70,ITC,neutral,5,right,10,ITC_start,661,space,0,0,304,234840,999086
44,19,female,Belg,2,70,ITC,neutral,5,right,10,ITC_choice,1556,f,0,0,304,233282,1000644
44,19,female,Belg,2,70,ITC,neutral,5,right,10,ITC_wait,0,undefined,0,0,304,233280,1000646
44,19,female,Belg,2,70,ITC,neutral,5,right,10,ITC_collect,560,k,0,0,304,232718,1001208
44,19,female,Belg,2,70,ITC,neutral,5,right,10,ITC_outcome,0,undefined,0,0,314,231703,1002223
44,19,female,Belg,2,71,guess,neutral,5,right,1,guess_start,1341,space,0,0,314,230360,1003566
44,19,female,Belg,2,71,guess,neutral,5,right,1,guess_choice,508,f,0,0,314,229850,1004076
44,19,female,Belg,2,71,guess,neutral,5,right,1,guess_outcome,0,undefined,0,0,314,228292,1005634
44,19,female,Belg,2,71,ITC,neutral,5,right,1,ITC_start,1119,space,0,0,314,227172,1006754
44,19,female,Belg,2,71,ITC,neutral,5,right,1,ITC_choice,1837,j,0,0,314,225333,1008593
44,19,female,Belg,2,71,ITC,neutral,5,right,1,ITC_wait,0,undefined,0,0,314,220325,1013601
44,19,female,Belg,2,71,ITC,neutral,5,right,1,ITC_collect,544,k,0,0,314,219779,1014147
44,19,female,Belg,2,71,ITC,neutral,5,right,1,ITC_outcome,0,undefined,0,0,334,218768,1015158
44,19,female,Belg,2,72,guess,loss,5,left,6,guess_start,512,space,0,0,334,218255,1015671
44,19,female,Belg,2,72,guess,loss,5,left,6,guess_choice,636,j,0,0,334,217616,1016310
44,19,female,Belg,2,72,guess,loss,5,left,6,guess_outcome,0,undefined,0,0,319,216053,1017873
44,19,female,Belg,2,72,ITC,loss,5,left,6,ITC_start,598,space,0,0,319,215454,1018472
44,19,female,Belg,2,72,ITC,loss,5,left,6,ITC_choice,1663,f,0,0,319,213789,1020137
44,19,female,Belg,2,72,ITC,loss,5,left,6,ITC_wait,0,undefined,0,0,319,208773,1025153
44,19,female,Belg,2,72,ITC,loss,5,left,6,ITC_collect,687,k,0,0,319,208085,1025841
44,19,female,Belg,2,72,ITC,loss,5,left,6,ITC_outcome,0,undefined,0,0,339,207073,1026853
44,19,female,Belg,2,73,guess,loss,10,right,2,guess_start,561,space,0,0,339,206510,1027416
44,19,female,Belg,2,73,guess,loss,10,right,2,guess_choice,552,j,0,0,339,205956,1027970
44,19,female,Belg,2,73,guess,loss,10,right,2,guess_outcome,0,undefined,0,0,324,204393,1029533
44,19,female,Belg,2,73,ITC,loss,10,right,2,ITC_start,1028,space,0,0,324,203364,1030562
44,19,female,Belg,2,73,ITC,loss,10,right,2,ITC_choice,1369,f,0,0,324,201994,1031932
44,19,female,Belg,2,73,ITC,loss,10,right,2,ITC_wait,0,undefined,0,0,324,201991,1031935
44,19,female,Belg,2,73,ITC,loss,10,right,2,ITC_collect,434,k,0,0,324,201555,1032371
44,19,female,Belg,2,73,ITC,loss,10,right,2,ITC_outcome,0,undefined,0,0,326,200543,1033383
44,19,female,Belg,2,74,guess,neutral,10,left,6,guess_start,430,space,0,0,326,200112,1033814
44,19,female,Belg,2,74,guess,neutral,10,left,6,guess_choice,552,j,0,0,326,199557,1034369
44,19,female,Belg,2,74,guess,neutral,10,left,6,guess_outcome,0,undefined,0,0,326,197993,1035933
44,19,female,Belg,2,74,ITC,neutral,10,left,6,ITC_start,547,space,0,0,326,197445,1036481
44,19,female,Belg,2,74,ITC,neutral,10,left,6,ITC_choice,1673,j,0,0,326,195771,1038155
44,19,female,Belg,2,74,ITC,neutral,10,left,6,ITC_wait,0,undefined,0,0,326,195769,1038157
44,19,female,Belg,2,74,ITC,neutral,10,left,6,ITC_collect,1275,k,0,0,326,194492,1039434
44,19,female,Belg,2,74,ITC,neutral,10,left,6,ITC_outcome,0,undefined,0,0,332,193473,1040453
44,19,female,Belg,2,75,guess,loss,5,left,9,guess_start,367,space,0,0,332,193104,1040822
44,19,female,Belg,2,75,guess,loss,5,left,9,guess_choice,497,f,0,0,332,192605,1041321
44,19,female,Belg,2,75,guess,loss,5,left,9,guess_outcome,0,undefined,0,0,317,191048,1042878
44,19,female,Belg,2,75,ITC,loss,5,left,9,ITC_start,770,space,0,0,317,190276,1043650
44,19,female,Belg,2,75,ITC,loss,5,left,9,ITC_choice,1387,j,0,0,317,188888,1045038
44,19,female,Belg,2,75,ITC,loss,5,left,9,ITC_wait,0,undefined,0,0,317,188886,1045040
44,19,female,Belg,2,75,ITC,loss,5,left,9,ITC_collect,731,k,0,0,317,188154,1045772
44,19,female,Belg,2,75,ITC,loss,5,left,9,ITC_outcome,0,undefined,0,0,326,187133,1046793
44,19,female,Belg,2,76,guess,loss,5,right,5,guess_start,587,space,0,0,326,186545,1047381
44,19,female,Belg,2,76,guess,loss,5,right,5,guess_choice,557,j,0,0,326,185985,1047941
44,19,female,Belg,2,76,guess,loss,5,right,5,guess_outcome,0,undefined,0,0,311,184423,1049503
44,19,female,Belg,2,76,ITC,loss,5,right,5,ITC_start,813,space,0,0,311,183609,1050317
44,19,female,Belg,2,76,ITC,loss,5,right,5,ITC_choice,2836,j,0,0,311,180772,1053154
44,19,female,Belg,2,76,ITC,loss,5,right,5,ITC_wait,0,undefined,0,0,311,175745,1058181
44,19,female,Belg,2,76,ITC,loss,5,right,5,ITC_collect,830,k,0,0,311,174914,1059012
44,19,female,Belg,2,76,ITC,loss,5,right,5,ITC_outcome,0,undefined,0,0,331,173895,1060031
44,19,female,Belg,2,77,guess,win,10,left,2,guess_start,422,space,0,0,331,173471,1060455
44,19,female,Belg,2,77,guess,win,10,left,2,guess_choice,638,f,0,0,331,172831,1061095
44,19,female,Belg,2,77,guess,win,10,left,2,guess_outcome,0,undefined,0,0,351,171264,1062662
44,19,female,Belg,2,77,ITC,win,10,left,2,ITC_start,506,space,0,0,351,170757,1063169
44,19,female,Belg,2,77,ITC,win,10,left,2,ITC_choice,1088,j,0,0,351,169668,1064258
44,19,female,Belg,2,77,ITC,win,10,left,2,ITC_wait,0,undefined,0,0,351,169666,1064260
44,19,female,Belg,2,77,ITC,win,10,left,2,ITC_collect,610,k,0,0,351,169053,1064873
44,19,female,Belg,2,77,ITC,win,10,left,2,ITC_outcome,0,undefined,0,0,353,168035,1065891
44,19,female,Belg,2,78,guess,loss,5,right,11,guess_start,382,space,0,0,353,167651,1066275
44,19,female,Belg,2,78,guess,loss,5,right,11,guess_choice,458,j,0,0,353,167191,1066735
44,19,female,Belg,2,78,guess,loss,5,right,11,guess_outcome,0,undefined,0,0,338,165635,1068291
44,19,female,Belg,2,78,ITC,loss,5,right,11,ITC_start,524,space,0,0,338,165109,1068817
44,19,female,Belg,2,78,ITC,loss,5,right,11,ITC_choice,2043,j,0,0,338,163065,1070861
44,19,female,Belg,2,78,ITC,loss,5,right,11,ITC_wait,0,undefined,0,0,338,158055,1075871
44,19,female,Belg,2,78,ITC,loss,5,right,11,ITC_collect,961,k,0,0,338,157092,1076834
44,19,female,Belg,2,78,ITC,loss,5,right,11,ITC_outcome,0,undefined,0,0,358,156075,1077851
44,19,female,Belg,2,79,guess,win,5,right,8,guess_start,485,space,0,0,358,155588,1078338
44,19,female,Belg,2,79,guess,win,5,right,8,guess_choice,512,j,0,0,358,155073,1078853
44,19,female,Belg,2,79,guess,win,5,right,8,guess_outcome,0,undefined,0,0,378,153505,1080421
44,19,female,Belg,2,79,ITC,win,5,right,8,ITC_start,1362,space,0,0,378,152141,1081785
44,19,female,Belg,2,79,ITC,win,5,right,8,ITC_choice,2177,j,0,0,378,149964,1083962
44,19,female,Belg,2,79,ITC,win,5,right,8,ITC_wait,0,undefined,0,0,378,144945,1088981
44,19,female,Belg,2,79,ITC,win,5,right,8,ITC_collect,689,k,0,0,378,144254,1089672
44,19,female,Belg,2,79,ITC,win,5,right,8,ITC_outcome,0,undefined,0,0,398,143245,1090681
44,19,female,Belg,2,80,guess,loss,5,right,8,guess_start,577,space,0,0,398,142666,1091260
44,19,female,Belg,2,80,guess,loss,5,right,8,guess_choice,457,f,0,0,398,142207,1091719
44,19,female,Belg,2,80,guess,loss,5,right,8,guess_outcome,0,undefined,0,0,383,140644,1093282
44,19,female,Belg,2,80,ITC,loss,5,right,8,ITC_start,444,space,0,0,383,140199,1093727
44,19,female,Belg,2,80,ITC,loss,5,right,8,ITC_choice,2182,j,0,0,383,138016,1095910
44,19,female,Belg,2,80,ITC,loss,5,right,8,ITC_wait,0,undefined,0,0,383,133005,1100921
44,19,female,Belg,2,80,ITC,loss,5,right,8,ITC_collect,450,k,0,0,383,132551,1101375
44,19,female,Belg,2,80,ITC,loss,5,right,8,ITC_outcome,0,undefined,0,0,403,131539,1102387
44,19,female,Belg,2,81,guess,loss,10,left,3,guess_start,523,space,0,0,403,131013,1102913
44,19,female,Belg,2,81,guess,loss,10,left,3,guess_choice,496,f,0,0,403,130507,1103419
44,19,female,Belg,2,81,guess,loss,10,left,3,guess_outcome,0,undefined,0,0,388,128939,1104987
44,19,female,Belg,2,81,ITC,loss,10,left,3,ITC_start,485,space,0,0,388,128451,1105475
44,19,female,Belg,2,81,ITC,loss,10,left,3,ITC_choice,2090,j,0,0,388,126358,1107568
44,19,female,Belg,2,81,ITC,loss,10,left,3,ITC_wait,0,undefined,0,0,388,126352,1107574
44,19,female,Belg,2,81,ITC,loss,10,left,3,ITC_collect,634,k,0,0,388,125713,1108213
44,19,female,Belg,2,81,ITC,loss,10,left,3,ITC_outcome,0,undefined,0,0,391,124706,1109220
44,19,female,Belg,2,82,guess,neutral,5,left,3,guess_start,388,space,0,0,391,124315,1109611
44,19,female,Belg,2,82,guess,neutral,5,left,3,guess_choice,527,j,0,0,391,123781,1110145
44,19,female,Belg,2,82,guess,neutral,5,left,3,guess_outcome,0,undefined,0,0,391,122208,1111718
44,19,female,Belg,2,82,ITC,neutral,5,left,3,ITC_start,428,space,0,0,391,121777,1112149
44,19,female,Belg,2,82,ITC,neutral,5,left,3,ITC_choice,851,j,0,0,391,120919,1113007
44,19,female,Belg,2,82,ITC,neutral,5,left,3,ITC_wait,0,undefined,0,0,391,120914,1113012
44,19,female,Belg,2,82,ITC,neutral,5,left,3,ITC_collect,795,k,0,0,391,120115,1113811
44,19,female,Belg,2,82,ITC,neutral,5,left,3,ITC_outcome,0,undefined,0,0,394,119107,1114819
44,19,female,Belg,2,83,guess,win,5,left,7,guess_start,401,space,0,0,394,118701,1115225
44,19,female,Belg,2,83,guess,win,5,left,7,guess_choice,559,j,0,0,394,118137,1115789
44,19,female,Belg,2,83,guess,win,5,left,7,guess_outcome,0,undefined,0,0,414,116575,1117351
44,19,female,Belg,2,83,ITC,win,5,left,7,ITC_start,1333,space,0,0,414,115239,1118687
44,19,female,Belg,2,83,ITC,win,5,left,7,ITC_choice,1508,j,0,0,414,113727,1120199
44,19,female,Belg,2,83,ITC,win,5,left,7,ITC_wait,0,undefined,0,0,414,113720,1120206
44,19,female,Belg,2,83,ITC,win,5,left,7,ITC_collect,630,k,0,0,414,113087,1120839
44,19,female,Belg,2,83,ITC,win,5,left,7,ITC_outcome,0,undefined,0,0,421,112075,1121851
44,19,female,Belg,2,84,guess,neutral,10,right,1,guess_start,388,space,0,0,421,111683,1122243
44,19,female,Belg,2,84,guess,neutral,10,right,1,guess_choice,728,j,0,0,421,110949,1122977
44,19,female,Belg,2,84,guess,neutral,10,right,1,guess_outcome,0,undefined,0,0,421,109392,1124534
44,19,female,Belg,2,84,ITC,neutral,10,right,1,ITC_start,396,space,0,0,421,108992,1124934
44,19,female,Belg,2,84,ITC,neutral,10,right,1,ITC_choice,2709,f,0,0,421,106280,1127646
44,19,female,Belg,2,84,ITC,neutral,10,right,1,ITC_wait,0,undefined,0,0,421,106272,1127654
44,19,female,Belg,2,84,ITC,neutral,10,right,1,ITC_collect,459,k,0,0,421,105808,1128118
44,19,female,Belg,2,84,ITC,neutral,10,right,1,ITC_outcome,0,undefined,0,0,422,104793,1129133
44,19,female,Belg,2,85,guess,loss,5,left,12,guess_start,287,space,0,0,422,104501,1129425
44,19,female,Belg,2,85,guess,loss,5,left,12,guess_choice,663,j,0,0,422,103832,1130094
44,19,female,Belg,2,85,guess,loss,5,left,12,guess_outcome,0,undefined,0,0,407,102258,1131668
44,19,female,Belg,2,85,ITC,loss,5,left,12,ITC_start,1824,space,0,0,407,100430,1133496
44,19,female,Belg,2,85,ITC,loss,5,left,12,ITC_choice,1931,j,0,0,407,98493,1135433
44,19,female,Belg,2,85,ITC,loss,5,left,12,ITC_wait,0,undefined,0,0,407,98487,1135439
44,19,female,Belg,2,85,ITC,loss,5,left,12,ITC_collect,395,k,0,0,407,98088,1135838
44,19,female,Belg,2,85,ITC,loss,5,left,12,ITC_outcome,0,undefined,0,0,419,97064,1136862
44,19,female,Belg,2,86,guess,neutral,5,left,15,guess_start,384,space,0,0,419,96674,1137252
44,19,female,Belg,2,86,guess,neutral,5,left,15,guess_choice,542,f,0,0,419,96124,1137802
44,19,female,Belg,2,86,guess,neutral,5,left,15,guess_outcome,0,undefined,0,0,419,94559,1139367
44,19,female,Belg,2,86,ITC,neutral,5,left,15,ITC_start,389,space,0,0,419,94167,1139759
44,19,female,Belg,2,86,ITC,neutral,5,left,15,ITC_choice,1563,j,0,0,419,92600,1141326
44,19,female,Belg,2,86,ITC,neutral,5,left,15,ITC_wait,0,undefined,0,0,419,92592,1141334
44,19,female,Belg,2,86,ITC,neutral,5,left,15,ITC_collect,428,k,0,0,419,92159,1141767
44,19,female,Belg,2,86,ITC,neutral,5,left,15,ITC_outcome,0,undefined,0,0,434,91144,1142782
44,19,female,Belg,2,87,guess,win,5,right,5,guess_start,414,space,0,0,434,90726,1143200
44,19,female,Belg,2,87,guess,win,5,right,5,guess_choice,580,f,0,0,434,90138,1143788
44,19,female,Belg,2,87,guess,win,5,right,5,guess_outcome,0,undefined,0,0,454,88577,1145349
44,19,female,Belg,2,87,ITC,win,5,right,5,ITC_start,434,space,0,0,454,88140,1145786
44,19,female,Belg,2,87,ITC,win,5,right,5,ITC_choice,2974,j,0,0,454,85162,1148764
44,19,female,Belg,2,87,ITC,win,5,right,5,ITC_wait,0,undefined,0,0,454,80147,1153779
44,19,female,Belg,2,87,ITC,win,5,right,5,ITC_collect,2541,k,0,0,454,77601,1156325
44,19,female,Belg,2,87,ITC,win,5,right,5,ITC_outcome,0,undefined,0,0,474,76579,1157347
44,19,female,Belg,2,88,guess,neutral,5,left,11,guess_start,445,space,0,0,474,76130,1157796
44,19,female,Belg,2,88,guess,neutral,5,left,11,guess_choice,563,j,0,0,474,75560,1158366
44,19,female,Belg,2,88,guess,neutral,5,left,11,guess_outcome,0,undefined,0,0,474,73995,1159931
44,19,female,Belg,2,88,ITC,neutral,5,left,11,ITC_start,431,space,0,0,474,73561,1160365
44,19,female,Belg,2,88,ITC,neutral,5,left,11,ITC_choice,959,j,0,0,474,72599,1161327
44,19,female,Belg,2,88,ITC,neutral,5,left,11,ITC_wait,0,undefined,0,0,474,72593,1161333
44,19,female,Belg,2,88,ITC,neutral,5,left,11,ITC_collect,384,k,0,0,474,72204,1161722
44,19,female,Belg,2,88,ITC,neutral,5,left,11,ITC_outcome,0,undefined,0,0,485,71195,1162731
44,19,female,Belg,2,89,guess,win,5,right,6,guess_start,281,space,0,0,485,70910,1163016
44,19,female,Belg,2,89,guess,win,5,right,6,guess_choice,479,j,0,0,485,70424,1163502
44,19,female,Belg,2,89,guess,win,5,right,6,guess_outcome,0,undefined,0,0,505,68862,1165064
44,19,female,Belg,2,89,ITC,win,5,right,6,ITC_start,1271,space,0,0,505,67588,1166338
44,19,female,Belg,2,89,ITC,win,5,right,6,ITC_choice,1929,j,0,0,505,65656,1168270
44,19,female,Belg,2,89,ITC,win,5,right,6,ITC_wait,0,undefined,0,0,505,60646,1173280
44,19,female,Belg,2,89,ITC,win,5,right,6,ITC_collect,530,k,0,0,505,60111,1173815
44,19,female,Belg,2,89,ITC,win,5,right,6,ITC_outcome,0,undefined,0,0,525,59096,1174830
44,19,female,Belg,2,90,guess,neutral,10,right,4,guess_start,393,space,0,0,525,58698,1175228
44,19,female,Belg,2,90,guess,neutral,10,right,4,guess_choice,471,f,0,0,525,58220,1175706
44,19,female,Belg,2,90,guess,neutral,10,right,4,guess_outcome,0,undefined,0,0,525,56647,1177279
44,19,female,Belg,2,90,ITC,neutral,10,right,4,ITC_start,586,space,0,0,525,56057,1177869
44,19,female,Belg,2,90,ITC,neutral,10,right,4,ITC_choice,1810,f,0,0,525,54245,1179681
44,19,female,Belg,2,90,ITC,neutral,10,right,4,ITC_wait,0,undefined,0,0,525,54239,1179687
44,19,female,Belg,2,90,ITC,neutral,10,right,4,ITC_collect,348,k,0,0,525,53885,1180041
44,19,female,Belg,2,90,ITC,neutral,10,right,4,ITC_outcome,0,undefined,0,0,529,52864,1181062
44,19,female,Belg,2,91,guess,neutral,5,left,5,guess_start,382,space,0,0,529,52478,1181448
44,19,female,Belg,2,91,guess,neutral,5,left,5,guess_choice,464,f,0,0,529,52006,1181920
44,19,female,Belg,2,91,guess,neutral,5,left,5,guess_outcome,0,undefined,0,0,529,50448,1183478
44,19,female,Belg,2,91,ITC,neutral,5,left,5,ITC_start,1453,space,0,0,529,48992,1184934
44,19,female,Belg,2,91,ITC,neutral,5,left,5,ITC_choice,991,j,0,0,529,47998,1185928
44,19,female,Belg,2,91,ITC,neutral,5,left,5,ITC_wait,0,undefined,0,0,529,47993,1185933
44,19,female,Belg,2,91,ITC,neutral,5,left,5,ITC_collect,846,k,0,0,529,47143,1186783
44,19,female,Belg,2,91,ITC,neutral,5,left,5,ITC_outcome,0,undefined,0,0,534,46131,1187795
44,19,female,Belg,2,92,guess,win,5,left,13,guess_start,531,space,0,0,534,45596,1188330
44,19,female,Belg,2,92,guess,win,5,left,13,guess_choice,483,f,0,0,534,45107,1188819
44,19,female,Belg,2,92,guess,win,5,left,13,guess_outcome,0,undefined,0,0,554,43549,1190377
44,19,female,Belg,2,92,ITC,win,5,left,13,ITC_start,1068,space,0,0,554,42478,1191448
44,19,female,Belg,2,92,ITC,win,5,left,13,ITC_choice,921,j,0,0,554,41554,1192372
44,19,female,Belg,2,92,ITC,win,5,left,13,ITC_wait,0,undefined,0,0,554,41546,1192380
44,19,female,Belg,2,92,ITC,win,5,left,13,ITC_collect,388,k,0,0,554,41155,1192771
44,19,female,Belg,2,92,ITC,win,5,left,13,ITC_outcome,0,undefined,0,0,567,40132,1193794
44,19,female,Belg,2,93,guess,neutral,5,right,10,guess_start,387,space,0,0,567,39741,1194185
44,19,female,Belg,2,93,guess,neutral,5,right,10,guess_choice,479,f,0,0,567,39256,1194670
44,19,female,Belg,2,93,guess,neutral,5,right,10,guess_outcome,0,undefined,0,0,567,37682,1196244
44,19,female,Belg,2,93,ITC,neutral,5,right,10,ITC_start,484,space,0,0,567,37195,1196731
44,19,female,Belg,2,93,ITC,neutral,5,right,10,ITC_choice,1327,f,0,0,567,35863,1198063
44,19,female,Belg,2,93,ITC,neutral,5,right,10,ITC_wait,0,undefined,0,0,567,35857,1198069
44,19,female,Belg,2,93,ITC,neutral,5,right,10,ITC_collect,301,k,0,0,567,35551,1198375
44,19,female,Belg,2,93,ITC,neutral,5,right,10,ITC_outcome,0,undefined,0,0,577,34532,1199394
44,19,female,Belg,2,94,guess,loss,10,right,6,guess_start,349,space,0,0,577,34179,1199747
44,19,female,Belg,2,94,guess,loss,10,right,6,guess_choice,493,f,0,0,577,33679,1200247
44,19,female,Belg,2,94,guess,loss,10,right,6,guess_outcome,0,undefined,0,0,562,32116,1201810
44,19,female,Belg,2,94,ITC,loss,10,right,6,ITC_start,56,space,0,0,562,32056,1201870
44,19,female,Belg,2,94,ITC,loss,10,right,6,ITC_choice,1464,f,0,0,562,30589,1203337
44,19,female,Belg,2,94,ITC,loss,10,right,6,ITC_wait,0,undefined,0,0,562,30579,1203347
44,19,female,Belg,2,94,ITC,loss,10,right,6,ITC_collect,301,k,0,0,562,30273,1203653
44,19,female,Belg,2,94,ITC,loss,10,right,6,ITC_outcome,0,undefined,0,0,568,29250,1204676
44,19,female,Belg,2,95,guess,neutral,10,left,5,guess_start,474,space,0,0,568,28771,1205155
44,19,female,Belg,2,95,guess,neutral,10,left,5,guess_choice,938,j,0,0,568,27826,1206100
44,19,female,Belg,2,95,guess,neutral,10,left,5,guess_outcome,0,undefined,0,0,568,26267,1207659
44,19,female,Belg,2,95,ITC,neutral,10,left,5,ITC_start,933,space,0,0,568,25330,1208596
44,19,female,Belg,2,95,ITC,neutral,10,left,5,ITC_choice,1480,j,0,0,568,23847,1210079
44,19,female,Belg,2,95,ITC,neutral,10,left,5,ITC_wait,0,undefined,0,0,568,23841,1210085
44,19,female,Belg,2,95,ITC,neutral,10,left,5,ITC_collect,643,k,0,0,568,23193,1210733
44,19,female,Belg,2,95,ITC,neutral,10,left,5,ITC_outcome,0,undefined,0,0,573,22184,1211742
44,19,female,Belg,2,96,guess,neutral,5,right,6,guess_start,628,space,0,0,573,21551,1212375
44,19,female,Belg,2,96,guess,neutral,5,right,6,guess_choice,667,j,0,0,573,20878,1213048
44,19,female,Belg,2,96,guess,neutral,5,right,6,guess_outcome,0,undefined,0,0,573,19318,1214608
44,19,female,Belg,2,96,ITC,neutral,5,right,6,ITC_start,903,space,0,0,573,18413,1215513
44,19,female,Belg,2,96,ITC,neutral,5,right,6,ITC_choice,1490,f,0,0,573,16919,1217007
44,19,female,Belg,2,96,ITC,neutral,5,right,6,ITC_wait,0,undefined,0,0,573,16913,1217013
44,19,female,Belg,2,96,ITC,neutral,5,right,6,ITC_collect,1076,k,0,0,573,15833,1218093
44,19,female,Belg,2,96,ITC,neutral,5,right,6,ITC_outcome,0,undefined,0,0,579,14818,1219108
44,19,female,Belg,2,97,guess,loss,5,left,2,guess_start,356,space,0,0,579,14458,1219468
44,19,female,Belg,2,97,guess,loss,5,left,2,guess_choice,622,j,0,0,579,13828,1220098
44,19,female,Belg,2,97,guess,loss,5,left,2,guess_outcome,0,undefined,0,0,564,12269,1221657
44,19,female,Belg,2,97,ITC,loss,5,left,2,ITC_start,844,space,0,0,564,11420,1222506
44,19,female,Belg,2,97,ITC,loss,5,left,2,ITC_choice,1569,f,0,0,564,9847,1224079
44,19,female,Belg,2,97,ITC,loss,5,left,2,ITC_wait,0,undefined,0,0,564,4836,1229090
44,19,female,Belg,2,97,ITC,loss,5,left,2,ITC_collect,942,k,0,0,564,3891,1230035
44,19,female,Belg,2,97,ITC,loss,5,left,2,ITC_outcome,0,undefined,0,0,584,2870,1231056
44,19,female,Belg,2,98,guess,neutral,5,left,13,guess_start,493,space,0,0,584,2373,1231553
44,19,female,Belg,2,98,guess,neutral,5,left,13,guess_choice,531,f,0,0,584,1834,1232092
44,19,female,Belg,2,98,guess,neutral,5,left,13,guess_outcome,0,undefined,0,0,584,269,1233657
44,19,female,Belg,2,98,ITC,neutral,5,left,13,ITC_start,0,undefined,0,0,584,-22,1233948
44,19,female,Belg,3,99,guess,win,5,left,16,guess_start,656,space,0,0,0,479340,1241965
44,19,female,Belg,3,99,guess,win,5,left,16,guess_choice,556,j,0,0,0,478775,1242530
44,19,female,Belg,3,99,guess,win,5,left,16,guess_outcome,0,undefined,0,0,20,477215,1244090
44,19,female,Belg,3,99,ITC,win,5,left,16,ITC_start,39,space,0,0,20,477171,1244134
44,19,female,Belg,3,99,ITC,win,5,left,16,ITC_choice,771,j,0,0,20,476394,1244911
44,19,female,Belg,3,99,ITC,win,5,left,16,ITC_wait,0,undefined,0,0,20,476384,1244921
44,19,female,Belg,3,99,ITC,win,5,left,16,ITC_collect,533,k,0,0,20,475847,1245458
44,19,female,Belg,3,99,ITC,win,5,left,16,ITC_outcome,0,undefined,0,0,36,474833,1246472
44,19,female,Belg,3,100,guess,win,5,right,12,guess_start,458,space,0,0,36,474371,1246934
44,19,female,Belg,3,100,guess,win,5,right,12,guess_choice,397,f,0,0,36,473966,1247339
44,19,female,Belg,3,100,guess,win,5,right,12,guess_outcome,0,undefined,0,0,56,472400,1248905
44,19,female,Belg,3,100,ITC,win,5,right,12,ITC_start,910,space,0,0,56,471486,1249819
44,19,female,Belg,3,100,ITC,win,5,right,12,ITC_choice,2004,f,0,0,56,469479,1251826
44,19,female,Belg,3,100,ITC,win,5,right,12,ITC_wait,0,undefined,0,0,56,469473,1251832
44,19,female,Belg,3,100,ITC,win,5,right,12,ITC_collect,428,k,0,0,56,469039,1252266
44,19,female,Belg,3,100,ITC,win,5,right,12,ITC_outcome,0,undefined,0,0,68,468018,1253287
44,19,female,Belg,3,101,guess,loss,5,right,7,guess_start,333,space,0,0,68,467682,1253623
44,19,female,Belg,3,101,guess,loss,5,right,7,guess_choice,569,f,0,0,68,467106,1254199
44,19,female,Belg,3,101,guess,loss,5,right,7,guess_outcome,0,undefined,0,0,53,465534,1255771
44,19,female,Belg,3,101,ITC,loss,5,right,7,ITC_start,446,space,0,0,53,465085,1256220
44,19,female,Belg,3,101,ITC,loss,5,right,7,ITC_choice,1065,f,0,0,53,464016,1257289
44,19,female,Belg,3,101,ITC,loss,5,right,7,ITC_wait,0,undefined,0,0,53,464011,1257294
44,19,female,Belg,3,101,ITC,loss,5,right,7,ITC_collect,340,k,0,0,53,463667,1257638
44,19,female,Belg,3,101,ITC,loss,5,right,7,ITC_outcome,0,undefined,0,0,60,462650,1258655
44,19,female,Belg,3,102,guess,loss,10,left,4,guess_start,401,space,0,0,60,462245,1259060
44,19,female,Belg,3,102,guess,loss,10,left,4,guess_choice,1083,j,0,0,60,461156,1260149
44,19,female,Belg,3,102,guess,loss,10,left,4,guess_outcome,0,undefined,0,0,45,459585,1261720
44,19,female,Belg,3,102,ITC,loss,10,left,4,ITC_start,98,space,0,0,45,459484,1261821
44,19,female,Belg,3,102,ITC,loss,10,left,4,ITC_choice,1333,j,0,0,45,458146,1263159
44,19,female,Belg,3,102,ITC,loss,10,left,4,ITC_wait,0,undefined,0,0,45,458141,1263164
44,19,female,Belg,3,102,ITC,loss,10,left,4,ITC_collect,385,k,0,0,45,457749,1263556
44,19,female,Belg,3,102,ITC,loss,10,left,4,ITC_outcome,0,undefined,0,0,49,456735,1264570
44,19,female,Belg,3,103,guess,neutral,5,left,12,guess_start,342,space,0,0,49,456389,1264916
44,19,female,Belg,3,103,guess,neutral,5,left,12,guess_choice,1351,j,0,0,49,455030,1266275
44,19,female,Belg,3,103,guess,neutral,5,left,12,guess_outcome,0,undefined,0,0,49,453468,1267837
44,19,female,Belg,3,103,ITC,neutral,5,left,12,ITC_start,133,space,0,0,49,453332,1267973
44,19,female,Belg,3,103,ITC,neutral,5,left,12,ITC_choice,1104,j,0,0,49,452225,1269080
44,19,female,Belg,3,103,ITC,neutral,5,left,12,ITC_wait,0,undefined,0,0,49,452218,1269087
44,19,female,Belg,3,103,ITC,neutral,5,left,12,ITC_collect,254,k,0,0,49,451961,1269344
44,19,female,Belg,3,103,ITC,neutral,5,left,12,ITC_outcome,0,undefined,0,0,61,450952,1270353
44,19,female,Belg,3,104,guess,win,5,left,3,guess_start,326,space,0,0,61,450622,1270683
44,19,female,Belg,3,104,guess,win,5,left,3,guess_choice,505,f,0,0,61,450108,1271197
44,19,female,Belg,3,104,guess,win,5,left,3,guess_outcome,0,undefined,0,0,81,448537,1272768
44,19,female,Belg,3,104,ITC,win,5,left,3,ITC_start,934,space,0,0,81,447599,1273706
44,19,female,Belg,3,104,ITC,win,5,left,3,ITC_choice,1585,f,0,0,81,446010,1275295
44,19,female,Belg,3,104,ITC,win,5,left,3,ITC_wait,0,undefined,0,0,81,441003,1280302
44,19,female,Belg,3,104,ITC,win,5,left,3,ITC_collect,661,k,0,0,81,440339,1280966
44,19,female,Belg,3,104,ITC,win,5,left,3,ITC_outcome,0,undefined,0,0,101,439320,1281985
44,19,female,Belg,3,105,guess,neutral,5,left,16,guess_start,460,space,0,0,101,438856,1282449
44,19,female,Belg,3,105,guess,neutral,5,left,16,guess_choice,634,j,0,0,101,438216,1283089
44,19,female,Belg,3,105,guess,neutral,5,left,16,guess_outcome,0,undefined,0,0,101,436654,1284651
44,19,female,Belg,3,105,ITC,neutral,5,left,16,ITC_start,800,space,0,0,101,435850,1285455
44,19,female,Belg,3,105,ITC,neutral,5,left,16,ITC_choice,747,j,0,0,101,435100,1286205
44,19,female,Belg,3,105,ITC,neutral,5,left,16,ITC_wait,0,undefined,0,0,101,435095,1286210
44,19,female,Belg,3,105,ITC,neutral,5,left,16,ITC_collect,444,k,0,0,101,434647,1286658
44,19,female,Belg,3,105,ITC,neutral,5,left,16,ITC_outcome,0,undefined,0,0,117,433637,1287668
44,19,female,Belg,3,106,guess,neutral,5,right,4,guess_start,366,space,0,0,117,433268,1288037
44,19,female,Belg,3,106,guess,neutral,5,right,4,guess_choice,567,j,0,0,117,432694,1288611
44,19,female,Belg,3,106,guess,neutral,5,right,4,guess_outcome,0,undefined,0,0,117,431120,1290185
44,19,female,Belg,3,106,ITC,neutral,5,right,4,ITC_start,843,space,0,0,117,430274,1291031
44,19,female,Belg,3,106,ITC,neutral,5,right,4,ITC_choice,2227,j,0,0,117,428041,1293264
44,19,female,Belg,3,106,ITC,neutral,5,right,4,ITC_wait,0,undefined,0,0,117,423019,1298286
44,19,female,Belg,3,106,ITC,neutral,5,right,4,ITC_collect,1559,k,0,0,117,421456,1299849
44,19,female,Belg,3,106,ITC,neutral,5,right,4,ITC_outcome,0,undefined,0,0,137,420439,1300866
44,19,female,Belg,3,107,guess,neutral,5,right,8,guess_start,961,space,0,0,137,419475,1301830
44,19,female,Belg,3,107,guess,neutral,5,right,8,guess_choice,626,j,0,0,137,418841,1302464
44,19,female,Belg,3,107,guess,neutral,5,right,8,guess_outcome,0,undefined,0,0,137,417279,1304026
44,19,female,Belg,3,107,ITC,neutral,5,right,8,ITC_start,2768,space,0,0,137,414508,1306797
44,19,female,Belg,3,107,ITC,neutral,5,right,8,ITC_choice,1692,f,0,0,137,412812,1308493
44,19,female,Belg,3,107,ITC,neutral,5,right,8,ITC_wait,0,undefined,0,0,137,412805,1308500
44,19,female,Belg,3,107,ITC,neutral,5,right,8,ITC_collect,762,k,0,0,137,412037,1309268
44,19,female,Belg,3,107,ITC,neutral,5,right,8,ITC_outcome,0,undefined,0,0,145,411023,1310282
44,19,female,Belg,3,108,guess,win,10,right,8,guess_start,345,space,0,0,145,410673,1310632
44,19,female,Belg,3,108,guess,win,10,right,8,guess_choice,501,f,0,0,145,410166,1311139
44,19,female,Belg,3,108,guess,win,10,right,8,guess_outcome,0,undefined,0,0,165,408609,1312696
44,19,female,Belg,3,108,ITC,win,10,right,8,ITC_start,537,space,0,0,165,408070,1313235
44,19,female,Belg,3,108,ITC,win,10,right,8,ITC_choice,1145,f,0,0,165,406921,1314384
44,19,female,Belg,3,108,ITC,win,10,right,8,ITC_wait,0,undefined,0,0,165,406914,1314391
44,19,female,Belg,3,108,ITC,win,10,right,8,ITC_collect,360,k,0,0,165,406546,1314759
44,19,female,Belg,3,108,ITC,win,10,right,8,ITC_outcome,0,undefined,0,0,173,405539,1315766
44,19,female,Belg,3,109,guess,neutral,10,right,8,guess_start,290,space,0,0,173,405244,1316061
44,19,female,Belg,3,109,guess,neutral,10,right,8,guess_choice,1057,j,0,0,173,404180,1317125
44,19,female,Belg,3,109,guess,neutral,10,right,8,guess_outcome,0,undefined,0,0,173,402607,1318698
44,19,female,Belg,3,109,ITC,neutral,10,right,8,ITC_start,481,space,0,0,173,402123,1319182
44,19,female,Belg,3,109,ITC,neutral,10,right,8,ITC_choice,922,f,0,0,173,401196,1320109
44,19,female,Belg,3,109,ITC,neutral,10,right,8,ITC_wait,0,undefined,0,0,173,401188,1320117
44,19,female,Belg,3,109,ITC,neutral,10,right,8,ITC_collect,317,k,0,0,173,400867,1320438
44,19,female,Belg,3,109,ITC,neutral,10,right,8,ITC_outcome,0,undefined,0,0,181,399858,1321447
44,19,female,Belg,3,110,guess,loss,5,left,3,guess_start,300,space,0,0,181,399553,1321752
44,19,female,Belg,3,110,guess,loss,5,left,3,guess_choice,523,f,0,0,181,399024,1322281
44,19,female,Belg,3,110,guess,loss,5,left,3,guess_outcome,0,undefined,0,0,166,397457,1323848
44,19,female,Belg,3,110,ITC,loss,5,left,3,ITC_start,341,space,0,0,166,397112,1324193
44,19,female,Belg,3,110,ITC,loss,5,left,3,ITC_choice,968,j,0,0,166,396139,1325166
44,19,female,Belg,3,110,ITC,loss,5,left,3,ITC_wait,0,undefined,0,0,166,396134,1325171
44,19,female,Belg,3,110,ITC,loss,5,left,3,ITC_collect,379,k,0,0,166,395750,1325555
44,19,female,Belg,3,110,ITC,loss,5,left,3,ITC_outcome,0,undefined,0,0,169,394725,1326580
44,19,female,Belg,3,111,guess,win,10,left,6,guess_start,323,space,0,0,169,394397,1326908
44,19,female,Belg,3,111,guess,win,10,left,6,guess_choice,397,f,0,0,169,393991,1327314
44,19,female,Belg,3,111,guess,win,10,left,6,guess_outcome,0,undefined,0,0,189,392425,1328880
44,19,female,Belg,3,111,ITC,win,10,left,6,ITC_start,562,space,0,0,189,391860,1329445
44,19,female,Belg,3,111,ITC,win,10,left,6,ITC_choice,1542,j,0,0,189,390313,1330992
44,19,female,Belg,3,111,ITC,win,10,left,6,ITC_wait,0,undefined,0,0,189,390306,1330999
44,19,female,Belg,3,111,ITC,win,10,left,6,ITC_collect,319,k,0,0,189,389983,1331322
44,19,female,Belg,3,111,ITC,win,10,left,6,ITC_outcome,0,undefined,0,0,195,388975,1332330
44,19,female,Belg,3,112,guess,neutral,5,right,9,guess_start,254,space,0,0,195,388717,1332588
44,19,female,Belg,3,112,guess,neutral,5,right,9,guess_choice,403,f,0,0,195,388307,1332998
44,19,female,Belg,3,112,guess,neutral,5,right,9,guess_outcome,0,undefined,0,0,195,386742,1334563
44,19,female,Belg,3,112,ITC,neutral,5,right,9,ITC_start,292,space,0,0,195,386445,1334860
44,19,female,Belg,3,112,ITC,neutral,5,right,9,ITC_choice,1324,f,0,0,195,385117,1336188
44,19,female,Belg,3,112,ITC,neutral,5,right,9,ITC_wait,0,undefined,0,0,195,385108,1336197
44,19,female,Belg,3,112,ITC,neutral,5,right,9,ITC_collect,310,k,0,0,195,384793,1336512
44,19,female,Belg,3,112,ITC,neutral,5,right,9,ITC_outcome,0,undefined,0,0,204,383777,1337528
44,19,female,Belg,3,113,guess,loss,10,right,8,guess_start,277,space,0,0,204,383496,1337809
44,19,female,Belg,3,113,guess,loss,10,right,8,guess_choice,841,j,0,0,204,382647,1338658
44,19,female,Belg,3,113,guess,loss,10,right,8,guess_outcome,0,undefined,0,0,189,381072,1340233
44,19,female,Belg,3,113,ITC,loss,10,right,8,ITC_start,139,space,0,0,189,380930,1340375
44,19,female,Belg,3,113,ITC,loss,10,right,8,ITC_choice,779,f,0,0,189,380146,1341159
44,19,female,Belg,3,113,ITC,loss,10,right,8,ITC_wait,0,undefined,0,0,189,380138,1341167
44,19,female,Belg,3,113,ITC,loss,10,right,8,ITC_collect,267,k,0,0,189,379866,1341439
44,19,female,Belg,3,113,ITC,loss,10,right,8,ITC_outcome,0,undefined,0,0,197,378860,1342445
44,19,female,Belg,3,114,guess,neutral,10,right,3,guess_start,287,space,0,0,197,378568,1342737
44,19,female,Belg,3,114,guess,neutral,10,right,3,guess_choice,547,f,0,0,197,378013,1343292
44,19,female,Belg,3,114,guess,neutral,10,right,3,guess_outcome,0,undefined,0,0,197,376442,1344863
44,19,female,Belg,3,114,ITC,neutral,10,right,3,ITC_start,381,space,0,0,197,376058,1345247
44,19,female,Belg,3,114,ITC,neutral,10,right,3,ITC_choice,901,f,0,0,197,375154,1346151
44,19,female,Belg,3,114,ITC,neutral,10,right,3,ITC_wait,0,undefined,0,0,197,375149,1346156
44,19,female,Belg,3,114,ITC,neutral,10,right,3,ITC_collect,440,k,0,0,197,374704,1346601
44,19,female,Belg,3,114,ITC,neutral,10,right,3,ITC_outcome,0,undefined,0,0,200,373693,1347612
44,19,female,Belg,3,115,guess,win,5,right,9,guess_start,290,space,0,0,200,373397,1347908
44,19,female,Belg,3,115,guess,win,5,right,9,guess_choice,552,f,0,0,200,372837,1348468
44,19,female,Belg,3,115,guess,win,5,right,9,guess_outcome,0,undefined,0,0,220,371277,1350028
44,19,female,Belg,3,115,ITC,win,5,right,9,ITC_start,364,space,0,0,220,370910,1350395
44,19,female,Belg,3,115,ITC,win,5,right,9,ITC_choice,1086,f,0,0,220,369819,1351486
44,19,female,Belg,3,115,ITC,win,5,right,9,ITC_wait,0,undefined,0,0,220,369811,1351494
44,19,female,Belg,3,115,ITC,win,5,right,9,ITC_collect,252,k,0,0,220,369554,1351751
44,19,female,Belg,3,115,ITC,win,5,right,9,ITC_outcome,0,undefined,0,0,229,368544,1352761
44,19,female,Belg,3,116,guess,win,10,left,3,guess_start,282,space,0,0,229,368256,1353049
44,19,female,Belg,3,116,guess,win,10,left,3,guess_choice,413,j,0,0,229,367837,1353468
44,19,female,Belg,3,116,guess,win,10,left,3,guess_outcome,0,undefined,0,0,249,366277,1355028
44,19,female,Belg,3,116,ITC,win,10,left,3,ITC_start,373,space,0,0,249,365900,1355405
44,19,female,Belg,3,116,ITC,win,10,left,3,ITC_choice,2314,j,0,0,249,363582,1357723
44,19,female,Belg,3,116,ITC,win,10,left,3,ITC_wait,0,undefined,0,0,249,363576,1357729
44,19,female,Belg,3,116,ITC,win,10,left,3,ITC_collect,261,k,0,0,249,363309,1357996
44,19,female,Belg,3,116,ITC,win,10,left,3,ITC_outcome,0,undefined,0,0,252,362294,1359011
44,19,female,Belg,3,117,guess,loss,10,left,7,guess_start,422,space,0,0,252,361866,1359439
44,19,female,Belg,3,117,guess,loss,10,left,7,guess_choice,267,f,0,0,252,361591,1359714
44,19,female,Belg,3,117,guess,loss,10,left,7,guess_outcome,0,undefined,0,0,237,360029,1361276
44,19,female,Belg,3,117,ITC,loss,10,left,7,ITC_start,141,space,0,0,237,359885,1361420
44,19,female,Belg,3,117,ITC,loss,10,left,7,ITC_choice,871,j,0,0,237,359010,1362295
44,19,female,Belg,3,117,ITC,loss,10,left,7,ITC_wait,0,undefined,0,0,237,359003,1362302
44,19,female,Belg,3,117,ITC,loss,10,left,7,ITC_collect,262,k,0,0,237,358736,1362569
44,19,female,Belg,3,117,ITC,loss,10,left,7,ITC_outcome,0,undefined,0,0,244,357728,1363577
44,19,female,Belg,3,118,guess,loss,10,right,1,guess_start,465,space,0,0,244,357258,1364047
44,19,female,Belg,3,118,guess,loss,10,right,1,guess_choice,498,j,0,0,244,356754,1364551
44,19,female,Belg,3,118,guess,loss,10,right,1,guess_outcome,0,undefined,0,0,229,355194,1366111
44,19,female,Belg,3,118,ITC,loss,10,right,1,ITC_start,169,space,0,0,229,355023,1366282
44,19,female,Belg,3,118,ITC,loss,10,right,1,ITC_choice,1718,f,0,0,229,353300,1368005
44,19,female,Belg,3,118,ITC,loss,10,right,1,ITC_wait,0,undefined,0,0,229,353293,1368012
44,19,female,Belg,3,118,ITC,loss,10,right,1,ITC_collect,856,k,0,0,229,352431,1368874
44,19,female,Belg,3,118,ITC,loss,10,right,1,ITC_outcome,0,undefined,0,0,230,351411,1369894
44,19,female,Belg,3,119,guess,win,5,left,1,guess_start,692,space,0,0,230,350715,1370590
44,19,female,Belg,3,119,guess,win,5,left,1,guess_choice,358,j,0,0,230,350349,1370956
44,19,female,Belg,3,119,guess,win,5,left,1,guess_outcome,0,undefined,0,0,250,348780,1372525
44,19,female,Belg,3,119,ITC,win,5,left,1,ITC_start,413,space,0,0,250,348363,1372942
44,19,female,Belg,3,119,ITC,win,5,left,1,ITC_choice,1288,f,0,0,250,347071,1374234
44,19,female,Belg,3,119,ITC,win,5,left,1,ITC_wait,0,undefined,0,0,250,342063,1379242
44,19,female,Belg,3,119,ITC,win,5,left,1,ITC_collect,568,k,0,0,250,341490,1379815
44,19,female,Belg,3,119,ITC,win,5,left,1,ITC_outcome,0,undefined,0,0,270,340479,1380826
44,19,female,Belg,3,120,guess,neutral,5,left,1,guess_start,337,space,0,0,270,340139,1381166
44,19,female,Belg,3,120,guess,neutral,5,left,1,guess_choice,455,j,0,0,270,339678,1381627
44,19,female,Belg,3,120,guess,neutral,5,left,1,guess_outcome,0,undefined,0,0,270,338113,1383192
44,19,female,Belg,3,120,ITC,neutral,5,left,1,ITC_start,466,space,0,0,270,337642,1383663
44,19,female,Belg,3,120,ITC,neutral,5,left,1,ITC_choice,945,f,0,0,270,336694,1384611
44,19,female,Belg,3,120,ITC,neutral,5,left,1,ITC_wait,0,undefined,0,0,270,331680,1389625
44,19,female,Belg,3,120,ITC,neutral,5,left,1,ITC_collect,348,k,0,0,270,331329,1389976
44,19,female,Belg,3,120,ITC,neutral,5,left,1,ITC_outcome,0,undefined,0,0,290,330313,1390992
44,19,female,Belg,3,121,guess,neutral,5,right,7,guess_start,444,space,0,0,290,329865,1391440
44,19,female,Belg,3,121,guess,neutral,5,right,7,guess_choice,651,j,0,0,290,329207,1392098
44,19,female,Belg,3,121,guess,neutral,5,right,7,guess_outcome,0,undefined,0,0,290,327649,1393656
44,19,female,Belg,3,121,ITC,neutral,5,right,7,ITC_start,445,space,0,0,290,327201,1394104
44,19,female,Belg,3,121,ITC,neutral,5,right,7,ITC_choice,1199,f,0,0,290,325996,1395309
44,19,female,Belg,3,121,ITC,neutral,5,right,7,ITC_wait,0,undefined,0,0,290,325990,1395315
44,19,female,Belg,3,121,ITC,neutral,5,right,7,ITC_collect,297,k,0,0,290,325689,1395616
44,19,female,Belg,3,121,ITC,neutral,5,right,7,ITC_outcome,0,undefined,0,0,297,324681,1396624
44,19,female,Belg,3,122,guess,loss,5,left,16,guess_start,356,space,0,0,297,324320,1396985
44,19,female,Belg,3,122,guess,loss,5,left,16,guess_choice,436,f,0,0,297,323877,1397428
44,19,female,Belg,3,122,guess,loss,5,left,16,guess_outcome,0,undefined,0,0,282,322318,1398987
44,19,female,Belg,3,122,ITC,loss,5,left,16,ITC_start,543,space,0,0,282,321771,1399534
44,19,female,Belg,3,122,ITC,loss,5,left,16,ITC_choice,959,j,0,0,282,320808,1400497
44,19,female,Belg,3,122,ITC,loss,5,left,16,ITC_wait,0,undefined,0,0,282,320803,1400502
44,19,female,Belg,3,122,ITC,loss,5,left,16,ITC_collect,375,k,0,0,282,320423,1400882
44,19,female,Belg,3,122,ITC,loss,5,left,16,ITC_outcome,0,undefined,0,0,298,319415,1401890
44,19,female,Belg,3,123,guess,neutral,5,left,2,guess_start,374,space,0,0,298,319036,1402269
44,19,female,Belg,3,123,guess,neutral,5,left,2,guess_choice,613,j,0,0,298,318415,1402890
44,19,female,Belg,3,123,guess,neutral,5,left,2,guess_outcome,0,undefined,0,0,298,316849,1404456
44,19,female,Belg,3,123,ITC,neutral,5,left,2,ITC_start,382,space,0,0,298,316464,1404841
44,19,female,Belg,3,123,ITC,neutral,5,left,2,ITC_choice,1630,f,0,0,298,314830,1406475
44,19,female,Belg,3,123,ITC,neutral,5,left,2,ITC_wait,0,undefined,0,0,298,309816,1411489
44,19,female,Belg,3,123,ITC,neutral,5,left,2,ITC_collect,1130,k,0,0,298,308682,1412623
44,19,female,Belg,3,123,ITC,neutral,5,left,2,ITC_outcome,0,undefined,0,0,318,307667,1413638
44,19,female,Belg,3,124,guess,loss,5,left,10,guess_start,395,space,0,0,318,307268,1414037
44,19,female,Belg,3,124,guess,loss,5,left,10,guess_choice,528,j,0,0,318,306737,1414568
44,19,female,Belg,3,124,guess,loss,5,left,10,guess_outcome,0,undefined,0,0,303,305167,1416138
44,19,female,Belg,3,124,ITC,loss,5,left,10,ITC_start,423,space,0,0,303,304741,1416564
44,19,female,Belg,3,124,ITC,loss,5,left,10,ITC_choice,1092,j,0,0,303,303645,1417660
44,19,female,Belg,3,124,ITC,loss,5,left,10,ITC_wait,0,undefined,0,0,303,303640,1417665
44,19,female,Belg,3,124,ITC,loss,5,left,10,ITC_collect,749,k,0,0,303,302887,1418418
44,19,female,Belg,3,124,ITC,loss,5,left,10,ITC_outcome,0,undefined,0,0,313,301867,1419438
44,19,female,Belg,3,125,guess,win,5,right,10,guess_start,450,space,0,0,313,301411,1419894
44,19,female,Belg,3,125,guess,win,5,right,10,guess_choice,613,f,0,0,313,300792,1420513
44,19,female,Belg,3,125,guess,win,5,right,10,guess_outcome,0,undefined,0,0,333,299233,1422072
44,19,female,Belg,3,125,ITC,win,5,right,10,ITC_start,509,space,0,0,333,298721,1422584
44,19,female,Belg,3,125,ITC,win,5,right,10,ITC_choice,1273,f,0,0,333,297444,1423861
44,19,female,Belg,3,125,ITC,win,5,right,10,ITC_wait,0,undefined,0,0,333,297438,1423867
44,19,female,Belg,3,125,ITC,win,5,right,10,ITC_collect,634,k,0,0,333,296799,1424506
44,19,female,Belg,3,125,ITC,win,5,right,10,ITC_outcome,0,undefined,0,0,343,295785,1425520
44,19,female,Belg,3,126,guess,win,10,right,1,guess_start,302,space,0,0,343,295478,1425827
44,19,female,Belg,3,126,guess,win,10,right,1,guess_choice,868,f,0,0,343,294603,1426702
44,19,female,Belg,3,126,guess,win,10,right,1,guess_outcome,0,undefined,0,0,363,293035,1428270
44,19,female,Belg,3,126,ITC,win,10,right,1,ITC_start,1013,space,0,0,363,292018,1429287
44,19,female,Belg,3,126,ITC,win,10,right,1,ITC_choice,1224,j,0,0,363,290790,1430515
44,19,female,Belg,3,126,ITC,win,10,right,1,ITC_wait,0,undefined,0,0,363,280770,1440535
44,19,female,Belg,3,126,ITC,win,10,right,1,ITC_collect,622,k,0,0,363,280144,1441161
44,19,female,Belg,3,126,ITC,win,10,right,1,ITC_outcome,0,undefined,0,0,383,279137,1442168
44,19,female,Belg,3,127,guess,win,10,left,4,guess_start,426,space,0,0,383,278707,1442598
44,19,female,Belg,3,127,guess,win,10,left,4,guess_choice,543,j,0,0,383,278157,1443148
44,19,female,Belg,3,127,guess,win,10,left,4,guess_outcome,0,undefined,0,0,403,276587,1444718
44,19,female,Belg,3,127,ITC,win,10,left,4,ITC_start,1341,space,0,0,403,275243,1446062
44,19,female,Belg,3,127,ITC,win,10,left,4,ITC_choice,1136,j,0,0,403,274103,1447202
44,19,female,Belg,3,127,ITC,win,10,left,4,ITC_wait,0,undefined,0,0,403,274098,1447207
44,19,female,Belg,3,127,ITC,win,10,left,4,ITC_collect,527,k,0,0,403,273566,1447739
44,19,female,Belg,3,127,ITC,win,10,left,4,ITC_outcome,0,undefined,0,0,407,272552,1448753
44,19,female,Belg,3,128,guess,loss,5,left,13,guess_start,399,space,0,0,407,272148,1449157
44,19,female,Belg,3,128,guess,loss,5,left,13,guess_choice,582,f,0,0,407,271560,1449745
44,19,female,Belg,3,128,guess,loss,5,left,13,guess_outcome,0,undefined,0,0,392,269987,1451318
44,19,female,Belg,3,128,ITC,loss,5,left,13,ITC_start,610,space,0,0,392,269373,1451932
44,19,female,Belg,3,128,ITC,loss,5,left,13,ITC_choice,850,j,0,0,392,268519,1452786
44,19,female,Belg,3,128,ITC,loss,5,left,13,ITC_wait,0,undefined,0,0,392,268513,1452792
44,19,female,Belg,3,128,ITC,loss,5,left,13,ITC_collect,564,k,0,0,392,267945,1453360
44,19,female,Belg,3,128,ITC,loss,5,left,13,ITC_outcome,0,undefined,0,0,405,266937,1454368
44,19,female,Belg,3,129,guess,loss,5,left,4,guess_start,318,space,0,0,405,266614,1454691
44,19,female,Belg,3,129,guess,loss,5,left,4,guess_choice,513,j,0,0,405,266095,1455210
44,19,female,Belg,3,129,guess,loss,5,left,4,guess_outcome,0,undefined,0,0,390,264527,1456778
44,19,female,Belg,3,129,ITC,loss,5,left,4,ITC_start,440,space,0,0,390,264084,1457221
44,19,female,Belg,3,129,ITC,loss,5,left,4,ITC_choice,730,j,0,0,390,263350,1457955
44,19,female,Belg,3,129,ITC,loss,5,left,4,ITC_wait,0,undefined,0,0,390,263345,1457960
44,19,female,Belg,3,129,ITC,loss,5,left,4,ITC_collect,329,k,0,0,390,263011,1458294
44,19,female,Belg,3,129,ITC,loss,5,left,4,ITC_outcome,0,undefined,0,0,394,261988,1459317
44,19,female,Belg,3,130,guess,loss,5,right,15,guess_start,304,space,0,0,394,261679,1459626
44,19,female,Belg,3,130,guess,loss,5,right,15,guess_choice,408,f,0,0,394,261264,1460041
44,19,female,Belg,3,130,guess,loss,5,right,15,guess_outcome,0,undefined,0,0,379,259688,1461617
44,19,female,Belg,3,130,ITC,loss,5,right,15,ITC_start,452,space,0,0,379,259232,1462073
44,19,female,Belg,3,130,ITC,loss,5,right,15,ITC_choice,705,j,0,0,379,258524,1462781
44,19,female,Belg,3,130,ITC,loss,5,right,15,ITC_wait,0,undefined,0,0,379,253506,1467799
44,19,female,Belg,3,130,ITC,loss,5,right,15,ITC_collect,354,k,0,0,379,253149,1468156
44,19,female,Belg,3,130,ITC,loss,5,right,15,ITC_outcome,0,undefined,0,0,399,252139,1469166
44,19,female,Belg,3,131,guess,neutral,10,left,2,guess_start,462,space,0,0,399,251672,1469633
44,19,female,Belg,3,131,guess,neutral,10,left,2,guess_choice,417,f,0,0,399,251248,1470057
44,19,female,Belg,3,131,guess,neutral,10,left,2,guess_outcome,0,undefined,0,0,399,249689,1471616
44,19,female,Belg,3,131,ITC,neutral,10,left,2,ITC_start,120,space,0,0,399,249566,1471739
44,19,female,Belg,3,131,ITC,neutral,10,left,2,ITC_choice,634,j,0,0,399,248927,1472378
44,19,female,Belg,3,131,ITC,neutral,10,left,2,ITC_wait,0,undefined,0,0,399,248922,1472383
44,19,female,Belg,3,131,ITC,neutral,10,left,2,ITC_collect,254,k,0,0,399,248664,1472641
44,19,female,Belg,3,131,ITC,neutral,10,left,2,ITC_outcome,0,undefined,0,0,401,247657,1473648
44,19,female,Belg,3,132,guess,win,5,right,11,guess_start,257,space,0,0,401,247395,1473910
44,19,female,Belg,3,132,guess,win,5,right,11,guess_choice,327,f,0,0,401,247061,1474244
44,19,female,Belg,3,132,ITC,win,5,right,11,ITC_start,140,space,0,0,421,245345,1475960
44,19,female,Belg,3,132,guess,win,5,right,11,guess_outcome,0,undefined,0,0,421,245489,1475816
44,19,female,Belg,3,132,ITC,win,5,right,11,ITC_choice,1277,f,0,0,421,244063,1477242
44,19,female,Belg,3,132,ITC,win,5,right,11,ITC_wait,0,undefined,0,0,421,244056,1477249
44,19,female,Belg,3,132,ITC,win,5,right,11,ITC_collect,923,k,0,0,421,243129,1478176
44,19,female,Belg,3,132,ITC,win,5,right,11,ITC_outcome,0,undefined,0,0,432,242106,1479199
44,19,female,Belg,3,133,guess,win,5,right,15,guess_start,291,space,0,0,432,241812,1479493
44,19,female,Belg,3,133,guess,win,5,right,15,guess_choice,416,f,0,0,432,241387,1479918
44,19,female,Belg,3,133,guess,win,5,right,15,guess_outcome,0,undefined,0,0,452,239823,1481482
44,19,female,Belg,3,133,ITC,win,5,right,15,ITC_start,382,space,0,0,452,239437,1481868
44,19,female,Belg,3,133,ITC,win,5,right,15,ITC_choice,1130,f,0,0,452,238303,1483002
44,19,female,Belg,3,133,ITC,win,5,right,15,ITC_wait,0,undefined,0,0,452,238294,1483011
44,19,female,Belg,3,133,ITC,win,5,right,15,ITC_collect,338,k,0,0,452,237954,1483351
44,19,female,Belg,3,133,ITC,win,5,right,15,ITC_outcome,0,undefined,0,0,467,236940,1484365
44,19,female,Belg,3,134,guess,win,10,right,5,guess_start,283,space,0,0,467,236652,1484653
44,19,female,Belg,3,134,guess,win,10,right,5,guess_choice,370,f,0,0,467,236275,1485030
44,19,female,Belg,3,134,guess,win,10,right,5,guess_outcome,0,undefined,0,0,487,234706,1486599
44,19,female,Belg,3,134,ITC,win,10,right,5,ITC_start,501,space,0,0,487,234201,1487104
44,19,female,Belg,3,134,ITC,win,10,right,5,ITC_choice,906,f,0,0,487,233291,1488014
44,19,female,Belg,3,134,ITC,win,10,right,5,ITC_wait,0,undefined,0,0,487,233286,1488019
44,19,female,Belg,3,134,ITC,win,10,right,5,ITC_collect,249,k,0,0,487,233033,1488272
44,19,female,Belg,3,134,ITC,win,10,right,5,ITC_outcome,0,undefined,0,0,492,232024,1489281
44,19,female,Belg,3,135,guess,loss,5,left,1,guess_start,289,space,0,0,492,231731,1489574
44,19,female,Belg,3,135,guess,loss,5,left,1,guess_choice,367,f,0,0,492,231355,1489950
44,19,female,Belg,3,135,guess,loss,5,left,1,guess_outcome,0,undefined,0,0,477,229791,1491514
44,19,female,Belg,3,135,ITC,loss,5,left,1,ITC_start,35,space,0,0,477,229751,1491554
44,19,female,Belg,3,135,ITC,loss,5,left,1,ITC_choice,1327,j,0,0,477,228422,1492883
44,19,female,Belg,3,135,ITC,loss,5,left,1,ITC_wait,0,undefined,0,0,477,228416,1492889
44,19,female,Belg,3,135,ITC,loss,5,left,1,ITC_collect,205,k,0,0,477,228206,1493099
44,19,female,Belg,3,135,ITC,loss,5,left,1,ITC_outcome,0,undefined,0,0,478,227191,1494114
44,19,female,Belg,3,136,guess,neutral,10,right,7,guess_start,299,space,0,0,478,226886,1494419
44,19,female,Belg,3,136,guess,neutral,10,right,7,guess_choice,1057,f,0,0,478,225822,1495483
44,19,female,Belg,3,136,guess,neutral,10,right,7,guess_outcome,0,undefined,0,0,478,224258,1497047
44,19,female,Belg,3,136,ITC,neutral,10,right,7,ITC_start,853,space,0,0,478,223402,1497903
44,19,female,Belg,3,136,ITC,neutral,10,right,7,ITC_choice,2851,f,0,0,478,220547,1500758
44,19,female,Belg,3,136,ITC,neutral,10,right,7,ITC_wait,0,undefined,0,0,478,220541,1500764
44,19,female,Belg,3,136,ITC,neutral,10,right,7,ITC_collect,293,k,0,0,478,220242,1501063
44,19,female,Belg,3,136,ITC,neutral,10,right,7,ITC_outcome,0,undefined,0,0,485,219225,1502080
44,19,female,Belg,3,137,guess,loss,10,right,5,guess_start,804,space,0,0,485,218417,1502888
44,19,female,Belg,3,137,guess,loss,10,right,5,guess_choice,591,f,0,0,485,217817,1503488
44,19,female,Belg,3,137,guess,loss,10,right,5,guess_outcome,0,undefined,0,0,470,216258,1505047
44,19,female,Belg,3,137,ITC,loss,10,right,5,ITC_start,417,space,0,0,470,215838,1505467
44,19,female,Belg,3,137,ITC,loss,10,right,5,ITC_choice,1040,f,0,0,470,214794,1506511
44,19,female,Belg,3,137,ITC,loss,10,right,5,ITC_wait,0,undefined,0,0,470,214787,1506518
44,19,female,Belg,3,137,ITC,loss,10,right,5,ITC_collect,334,k,0,0,470,214449,1506856
44,19,female,Belg,3,137,ITC,loss,10,right,5,ITC_outcome,0,undefined,0,0,475,213428,1507877
44,19,female,Belg,3,138,guess,loss,5,right,14,guess_start,310,space,0,0,475,213113,1508192
44,19,female,Belg,3,138,guess,loss,5,right,14,guess_choice,556,j,0,0,475,212549,1508756
44,19,female,Belg,3,138,guess,loss,5,right,14,guess_outcome,0,undefined,0,0,460,210976,1510329
44,19,female,Belg,3,138,ITC,loss,5,right,14,ITC_start,480,space,0,0,460,210492,1510813
44,19,female,Belg,3,138,ITC,loss,5,right,14,ITC_choice,649,f,0,0,460,209840,1511465
44,19,female,Belg,3,138,ITC,loss,5,right,14,ITC_wait,0,undefined,0,0,460,209834,1511471
44,19,female,Belg,3,138,ITC,loss,5,right,14,ITC_collect,249,k,0,0,460,209580,1511725
44,19,female,Belg,3,138,ITC,loss,5,right,14,ITC_outcome,0,undefined,0,0,474,208559,1512746
44,19,female,Belg,3,139,guess,win,10,left,7,guess_start,238,space,0,0,474,208316,1512989
44,19,female,Belg,3,139,guess,win,10,left,7,guess_choice,306,f,0,0,474,208002,1513303
44,19,female,Belg,3,139,guess,win,10,left,7,guess_outcome,0,undefined,0,0,494,206443,1514862
44,19,female,Belg,3,139,ITC,win,10,left,7,ITC_start,1221,space,0,0,494,205218,1516087
44,19,female,Belg,3,139,ITC,win,10,left,7,ITC_choice,760,j,0,0,494,204454,1516851
44,19,female,Belg,3,139,ITC,win,10,left,7,ITC_wait,0,undefined,0,0,494,204449,1516856
44,19,female,Belg,3,139,ITC,win,10,left,7,ITC_collect,176,k,0,0,494,204265,1517040
44,19,female,Belg,3,139,ITC,win,10,left,7,ITC_outcome,0,undefined,0,0,501,203244,1518061
44,19,female,Belg,3,140,guess,win,5,left,4,guess_start,282,space,0,0,501,202958,1518347
44,19,female,Belg,3,140,guess,win,5,left,4,guess_choice,482,f,0,0,501,202469,1518836
44,19,female,Belg,3,140,guess,win,5,left,4,guess_outcome,0,undefined,0,0,521,200910,1520395
44,19,female,Belg,3,140,ITC,win,5,left,4,ITC_start,904,space,0,0,521,200003,1521302
44,19,female,Belg,3,140,ITC,win,5,left,4,ITC_choice,719,j,0,0,521,199280,1522025
44,19,female,Belg,3,140,ITC,win,5,left,4,ITC_wait,0,undefined,0,0,521,199273,1522032
44,19,female,Belg,3,140,ITC,win,5,left,4,ITC_collect,183,k,0,0,521,199086,1522219
44,19,female,Belg,3,140,ITC,win,5,left,4,ITC_outcome,0,undefined,0,0,525,198077,1523228
44,19,female,Belg,3,141,guess,neutral,5,left,14,guess_start,301,space,0,0,525,197772,1523533
44,19,female,Belg,3,141,guess,neutral,5,left,14,guess_choice,423,f,0,0,525,197342,1523963
44,19,female,Belg,3,141,guess,neutral,5,left,14,guess_outcome,0,undefined,0,0,525,195777,1525528
44,19,female,Belg,3,141,ITC,neutral,5,left,14,ITC_start,971,space,0,0,525,194802,1526503
44,19,female,Belg,3,141,ITC,neutral,5,left,14,ITC_choice,645,j,0,0,525,194154,1527151
44,19,female,Belg,3,141,ITC,neutral,5,left,14,ITC_wait,0,undefined,0,0,525,194147,1527158
44,19,female,Belg,3,141,ITC,neutral,5,left,14,ITC_collect,197,k,0,0,525,193943,1527362
44,19,female,Belg,3,141,ITC,neutral,5,left,14,ITC_outcome,0,undefined,0,0,539,192927,1528378
44,19,female,Belg,3,142,guess,win,5,right,14,guess_start,287,space,0,0,539,192637,1528668
44,19,female,Belg,3,142,guess,win,5,right,14,guess_choice,772,f,0,0,539,191858,1529447
44,19,female,Belg,3,142,guess,win,5,right,14,guess_outcome,0,undefined,0,0,559,190295,1531010
44,19,female,Belg,3,142,ITC,win,5,right,14,ITC_start,1143,space,0,0,559,189149,1532156
44,19,female,Belg,3,142,ITC,win,5,right,14,ITC_choice,794,f,0,0,559,188350,1532955
44,19,female,Belg,3,142,ITC,win,5,right,14,ITC_wait,0,undefined,0,0,559,188342,1532963
44,19,female,Belg,3,142,ITC,win,5,right,14,ITC_collect,533,k,0,0,559,187806,1533499
44,19,female,Belg,3,142,ITC,win,5,right,14,ITC_outcome,0,undefined,0,0,573,186796,1534509
44,19,female,Belg,3,143,guess,win,5,right,2,guess_start,253,space,0,0,573,186539,1534766
44,19,female,Belg,3,143,guess,win,5,right,2,guess_choice,498,f,0,0,573,186034,1535271
44,19,female,Belg,3,143,guess,win,5,right,2,guess_outcome,0,undefined,0,0,593,184462,1536843
44,19,female,Belg,3,143,ITC,win,5,right,2,ITC_start,418,space,0,0,593,184038,1537267
44,19,female,Belg,3,143,ITC,win,5,right,2,ITC_choice,720,f,0,0,593,183315,1537990
44,19,female,Belg,3,143,ITC,win,5,right,2,ITC_wait,0,undefined,0,0,593,183309,1537996
44,19,female,Belg,3,143,ITC,win,5,right,2,ITC_collect,338,k,0,0,593,182966,1538339
44,19,female,Belg,3,143,ITC,win,5,right,2,ITC_outcome,0,undefined,0,0,595,181946,1539359
44,19,female,Belg,3,144,guess,loss,5,right,6,guess_start,248,space,0,0,595,181694,1539611
44,19,female,Belg,3,144,guess,loss,5,right,6,guess_choice,463,f,0,0,595,181224,1540081
44,19,female,Belg,3,144,guess,loss,5,right,6,guess_outcome,0,undefined,0,0,580,179662,1541643
44,19,female,Belg,3,144,ITC,loss,5,right,6,ITC_start,13,space,0,0,580,179645,1541660
44,19,female,Belg,3,144,ITC,loss,5,right,6,ITC_choice,608,j,0,0,580,179034,1542271
44,19,female,Belg,3,144,ITC,loss,5,right,6,ITC_wait,0,undefined,0,0,580,174013,1547292
44,19,female,Belg,3,144,ITC,loss,5,right,6,ITC_collect,665,k,0,0,580,173345,1547960
44,19,female,Belg,3,144,ITC,loss,5,right,6,ITC_outcome,0,undefined,0,0,600,172330,1548975
44,19,female,Belg,3,145,guess,loss,5,left,10,guess_start,402,space,0,0,600,171924,1549381
44,19,female,Belg,3,145,guess,loss,5,left,10,guess_choice,628,j,0,0,600,171289,1550016
44,19,female,Belg,3,145,guess,loss,5,left,10,guess_outcome,0,undefined,0,0,585,169713,1551592
44,19,female,Belg,3,145,ITC,loss,5,left,10,ITC_start,575,space,0,0,585,169134,1552171
44,19,female,Belg,3,145,ITC,loss,5,left,10,ITC_choice,1127,j,0,0,585,168001,1553304
44,19,female,Belg,3,145,ITC,loss,5,left,10,ITC_wait,0,undefined,0,0,585,167993,1553312
