subjectID,age,gender,nationality,block_number,trial_number,trial_type,guess_outcome,delay_time,delay_pos,immediate_amount,stage,respRT,respKey,blur_count,focus_count,total_points,remaining_duration,time_elapsed
27,18,male,Belgian,1,1,guess,win,5,right,9,guess_start,2269,space,0,0,0,477730,278835
27,18,male,Belgian,1,1,guess,win,5,right,9,guess_choice,1482,f,0,0,0,476242,280323
27,18,male,Belgian,1,1,guess,win,5,right,9,guess_outcome,0,undefined,0,0,20,474681,281884
27,18,male,Belgian,1,1,ITC,win,5,right,9,ITC_start,3213,space,0,0,20,471466,285099
27,18,male,Belgian,1,1,ITC,win,5,right,9,ITC_choice,1582,j,0,0,20,469881,286684
27,18,male,Belgian,1,1,ITC,win,5,right,9,ITC_wait,0,undefined,0,0,20,464865,291700
27,18,male,Belgian,1,1,ITC,win,5,right,9,ITC_collect,1118,k,0,0,20,463744,292821
27,18,male,Belgian,1,1,ITC,win,5,right,9,ITC_outcome,0,undefined,0,0,40,462740,293825
27,18,male,Belgian,1,2,guess,win,5,left,14,guess_start,992,space,0,0,40,461744,294821
27,18,male,Belgian,1,2,guess,win,5,left,14,guess_choice,1168,j,0,0,40,460571,295994
27,18,male,Belgian,1,2,guess,win,5,left,14,guess_outcome,0,undefined,0,0,60,459008,297557
27,18,male,Belgian,1,2,ITC,win,5,left,14,ITC_start,1433,space,0,0,60,457574,298991
27,18,male,Belgian,1,2,ITC,win,5,left,14,ITC_choice,2087,j,0,0,60,455485,301080
27,18,male,Belgian,1,2,ITC,win,5,left,14,ITC_wait,0,undefined,0,0,60,455482,301083
27,18,male,Belgian,1,2,ITC,win,5,left,14,ITC_collect,3679,k,0,0,60,451802,304763
27,18,male,Belgian,1,2,ITC,win,5,left,14,ITC_outcome,0,undefined,0,0,74,450792,305773
27,18,male,Belgian,1,3,guess,neutral,5,right,9,guess_start,761,space,0,0,74,450029,306536
27,18,male,Belgian,1,3,guess,neutral,5,right,9,guess_choice,1648,j,0,0,74,448377,308188
27,18,male,Belgian,1,3,guess,neutral,5,right,9,guess_outcome,0,undefined,0,0,74,446822,309743
27,18,male,Belgian,1,3,ITC,neutral,5,right,9,ITC_start,836,space,0,0,74,445984,310581
27,18,male,Belgian,1,3,ITC,neutral,5,right,9,ITC_choice,1419,j,0,0,74,444564,312001
27,18,male,Belgian,1,3,ITC,neutral,5,right,9,ITC_wait,0,undefined,0,0,74,439554,317011
27,18,male,Belgian,1,3,ITC,neutral,5,right,9,ITC_collect,860,k,0,0,74,438692,317873
27,18,male,Belgian,1,3,ITC,neutral,5,right,9,ITC_outcome,0,undefined,0,0,94,437680,318885
27,18,male,Belgian,1,4,guess,neutral,5,left,14,guess_start,890,space,0,0,94,436789,319776
27,18,male,Belgian,1,4,guess,neutral,5,left,14,guess_choice,1232,f,0,0,94,435555,321010
27,18,male,Belgian,1,4,guess,neutral,5,left,14,guess_outcome,0,undefined,0,0,94,433998,322567
27,18,male,Belgian,1,4,ITC,neutral,5,left,14,ITC_start,585,space,0,0,94,433411,323154
27,18,male,Belgian,1,4,ITC,neutral,5,left,14,ITC_choice,1582,j,0,0,94,431827,324738
27,18,male,Belgian,1,4,ITC,neutral,5,left,14,ITC_wait,0,undefined,0,0,94,431823,324742
27,18,male,Belgian,1,4,ITC,neutral,5,left,14,ITC_collect,2972,k,0,0,94,428849,327716
27,18,male,Belgian,1,4,ITC,neutral,5,left,14,ITC_outcome,0,undefined,0,0,108,427829,328736
27,18,male,Belgian,1,5,guess,win,10,left,2,guess_start,471,space,0,0,108,427357,329208
27,18,male,Belgian,1,5,guess,win,10,left,2,guess_choice,933,f,0,0,108,426419,330146
27,18,male,Belgian,1,5,guess,win,10,left,2,guess_outcome,0,undefined,0,0,128,424858,331707
27,18,male,Belgian,1,5,ITC,win,10,left,2,ITC_start,836,space,0,0,128,424020,332545
27,18,male,Belgian,1,5,ITC,win,10,left,2,ITC_choice,1640,j,0,0,128,422379,334186
27,18,male,Belgian,1,5,ITC,win,10,left,2,ITC_wait,0,undefined,0,0,128,422376,334189
27,18,male,Belgian,1,5,ITC,win,10,left,2,ITC_collect,2609,k,0,0,128,419765,336800
27,18,male,Belgian,1,5,ITC,win,10,left,2,ITC_outcome,0,undefined,0,0,130,418748,337817
27,18,male,Belgian,1,6,guess,neutral,10,right,2,guess_start,730,space,0,0,130,418017,338548
27,18,male,Belgian,1,6,guess,neutral,10,right,2,guess_choice,978,j,0,0,130,417035,339530
27,18,male,Belgian,1,6,guess,neutral,10,right,2,guess_outcome,0,undefined,0,0,130,415472,341093
27,18,male,Belgian,1,6,ITC,neutral,10,right,2,ITC_start,654,space,0,0,130,414817,341748
27,18,male,Belgian,1,6,ITC,neutral,10,right,2,ITC_choice,1348,j,0,0,130,413467,343098
27,18,male,Belgian,1,6,ITC,neutral,10,right,2,ITC_wait,0,undefined,0,0,130,403461,353104
27,18,male,Belgian,1,6,ITC,neutral,10,right,2,ITC_collect,1000,k,0,0,130,402459,354106
27,18,male,Belgian,1,6,ITC,neutral,10,right,2,ITC_outcome,0,undefined,0,0,150,401449,355116
27,18,male,Belgian,1,7,guess,loss,10,right,4,guess_start,684,space,0,0,150,400763,355802
27,18,male,Belgian,1,7,guess,loss,10,right,4,guess_choice,842,f,0,0,150,399920,356645
27,18,male,Belgian,1,7,guess,loss,10,right,4,guess_outcome,0,undefined,0,0,135,398358,358207
27,18,male,Belgian,1,7,ITC,loss,10,right,4,ITC_start,968,space,0,0,135,397389,359176
27,18,male,Belgian,1,7,ITC,loss,10,right,4,ITC_choice,1893,j,0,0,135,395493,361072
27,18,male,Belgian,1,7,ITC,loss,10,right,4,ITC_wait,0,undefined,0,0,135,385488,371077
27,18,male,Belgian,1,7,ITC,loss,10,right,4,ITC_collect,425,k,0,0,135,385061,371504
27,18,male,Belgian,1,7,ITC,loss,10,right,4,ITC_outcome,0,undefined,0,0,155,384054,372511
27,18,male,Belgian,1,8,guess,loss,5,right,5,guess_start,653,space,0,0,155,383399,373166
27,18,male,Belgian,1,8,guess,loss,5,right,5,guess_choice,708,j,0,0,155,382686,373879
27,18,male,Belgian,1,8,guess,loss,5,right,5,guess_outcome,0,undefined,0,0,140,381124,375441
27,18,male,Belgian,1,8,ITC,loss,5,right,5,ITC_start,623,space,0,0,140,380500,376065
27,18,male,Belgian,1,8,ITC,loss,5,right,5,ITC_choice,1476,j,0,0,140,379022,377543
27,18,male,Belgian,1,8,ITC,loss,5,right,5,ITC_wait,0,undefined,0,0,140,374014,382551
27,18,male,Belgian,1,8,ITC,loss,5,right,5,ITC_collect,916,k,0,0,140,373097,383468
27,18,male,Belgian,1,8,ITC,loss,5,right,5,ITC_outcome,0,undefined,0,0,160,372084,384481
27,18,male,Belgian,1,9,guess,loss,5,left,2,guess_start,591,space,0,0,160,371491,385074
27,18,male,Belgian,1,9,guess,loss,5,left,2,guess_choice,1116,j,0,0,160,370371,386194
27,18,male,Belgian,1,9,guess,loss,5,left,2,guess_outcome,0,undefined,0,0,145,368814,387751
27,18,male,Belgian,1,9,ITC,loss,5,left,2,ITC_start,453,space,0,0,145,368359,388206
27,18,male,Belgian,1,9,ITC,loss,5,left,2,ITC_choice,1432,f,0,0,145,366926,389639
27,18,male,Belgian,1,9,ITC,loss,5,left,2,ITC_wait,0,undefined,0,0,145,361914,394651
27,18,male,Belgian,1,9,ITC,loss,5,left,2,ITC_collect,755,k,0,0,145,361157,395408
27,18,male,Belgian,1,9,ITC,loss,5,left,2,ITC_outcome,0,undefined,0,0,165,360144,396421
27,18,male,Belgian,1,10,guess,win,10,left,7,guess_start,406,space,0,0,165,359736,396829
27,18,male,Belgian,1,10,guess,win,10,left,7,guess_choice,1205,j,0,0,165,358526,398039
27,18,male,Belgian,1,10,guess,win,10,left,7,guess_outcome,0,undefined,0,0,185,356964,399601
27,18,male,Belgian,1,10,ITC,win,10,left,7,ITC_start,613,space,0,0,185,356349,400216
27,18,male,Belgian,1,10,ITC,win,10,left,7,ITC_choice,1311,j,0,0,185,355035,401530
27,18,male,Belgian,1,10,ITC,win,10,left,7,ITC_wait,0,undefined,0,0,185,355031,401534
27,18,male,Belgian,1,10,ITC,win,10,left,7,ITC_collect,1571,k,0,0,185,353459,403106
27,18,male,Belgian,1,10,ITC,win,10,left,7,ITC_outcome,0,undefined,0,0,192,352454,404111
27,18,male,Belgian,1,11,guess,loss,10,left,5,guess_start,382,space,0,0,192,352070,404495
27,18,male,Belgian,1,11,guess,loss,10,left,5,guess_choice,839,f,0,0,192,351227,405338
27,18,male,Belgian,1,11,guess,loss,10,left,5,guess_outcome,0,undefined,0,0,177,349654,406911
27,18,male,Belgian,1,11,ITC,loss,10,left,5,ITC_start,419,space,0,0,177,349233,407332
27,18,male,Belgian,1,11,ITC,loss,10,left,5,ITC_choice,1370,j,0,0,177,347861,408704
27,18,male,Belgian,1,11,ITC,loss,10,left,5,ITC_wait,0,undefined,0,0,177,347857,408708
27,18,male,Belgian,1,11,ITC,loss,10,left,5,ITC_collect,834,k,0,0,177,347021,409544
27,18,male,Belgian,1,11,ITC,loss,10,left,5,ITC_outcome,0,undefined,0,0,182,346004,410561
27,18,male,Belgian,1,12,guess,neutral,5,left,13,guess_start,303,space,0,0,182,345700,410865
27,18,male,Belgian,1,12,guess,neutral,5,left,13,guess_choice,963,f,0,0,182,344732,411833
27,18,male,Belgian,1,12,guess,neutral,5,left,13,guess_outcome,0,undefined,0,0,182,343168,413397
27,18,male,Belgian,1,12,ITC,neutral,5,left,13,ITC_start,633,space,0,0,182,342533,414032
27,18,male,Belgian,1,12,ITC,neutral,5,left,13,ITC_choice,1565,j,0,0,182,340966,415599
27,18,male,Belgian,1,12,ITC,neutral,5,left,13,ITC_wait,0,undefined,0,0,182,340962,415603
27,18,male,Belgian,1,12,ITC,neutral,5,left,13,ITC_collect,1666,k,0,0,182,339299,417266
27,18,male,Belgian,1,12,ITC,neutral,5,left,13,ITC_outcome,0,undefined,0,0,195,338288,418277
27,18,male,Belgian,1,13,guess,win,10,right,3,guess_start,348,space,0,0,195,337937,418628
27,18,male,Belgian,1,13,guess,win,10,right,3,guess_choice,856,j,0,0,195,337078,419487
27,18,male,Belgian,1,13,guess,win,10,right,3,guess_outcome,0,undefined,0,0,215,335514,421051
27,18,male,Belgian,1,13,ITC,win,10,right,3,ITC_start,682,space,0,0,215,334830,421735
27,18,male,Belgian,1,13,ITC,win,10,right,3,ITC_choice,993,j,0,0,215,333835,422730
27,18,male,Belgian,1,13,ITC,win,10,right,3,ITC_wait,0,undefined,0,0,215,323833,432732
27,18,male,Belgian,1,13,ITC,win,10,right,3,ITC_collect,899,k,0,0,215,322932,433633
27,18,male,Belgian,1,13,ITC,win,10,right,3,ITC_outcome,0,undefined,0,0,235,321920,434645
27,18,male,Belgian,1,14,guess,loss,5,right,3,guess_start,318,space,0,0,235,321601,434964
27,18,male,Belgian,1,14,guess,loss,5,right,3,guess_choice,905,f,0,0,235,320692,435873
27,18,male,Belgian,1,14,guess,loss,5,right,3,guess_outcome,0,undefined,0,0,220,319130,437435
27,18,male,Belgian,1,14,ITC,loss,5,right,3,ITC_start,353,space,0,0,220,318775,437790
27,18,male,Belgian,1,14,ITC,loss,5,right,3,ITC_choice,1016,j,0,0,220,317758,438807
27,18,male,Belgian,1,14,ITC,loss,5,right,3,ITC_wait,0,undefined,0,0,220,312750,443815
27,18,male,Belgian,1,14,ITC,loss,5,right,3,ITC_collect,603,k,0,0,220,312144,444421
27,18,male,Belgian,1,14,ITC,loss,5,right,3,ITC_outcome,0,undefined,0,0,240,311140,445425
27,18,male,Belgian,1,15,guess,loss,10,left,6,guess_start,384,space,0,0,240,310753,445812
27,18,male,Belgian,1,15,guess,loss,10,left,6,guess_choice,1041,f,0,0,240,309708,446857
27,18,male,Belgian,1,15,guess,loss,10,left,6,guess_outcome,0,undefined,0,0,225,308150,448415
27,18,male,Belgian,1,15,ITC,loss,10,left,6,ITC_start,299,space,0,0,225,307851,448714
27,18,male,Belgian,1,15,ITC,loss,10,left,6,ITC_choice,1142,j,0,0,225,306707,449858
27,18,male,Belgian,1,15,ITC,loss,10,left,6,ITC_wait,0,undefined,0,0,225,306704,449861
27,18,male,Belgian,1,15,ITC,loss,10,left,6,ITC_collect,1226,k,0,0,225,305476,451089
27,18,male,Belgian,1,15,ITC,loss,10,left,6,ITC_outcome,0,undefined,0,0,231,304469,452096
27,18,male,Belgian,1,16,guess,neutral,5,right,15,guess_start,364,space,0,0,231,304102,452463
27,18,male,Belgian,1,16,guess,neutral,5,right,15,guess_choice,771,j,0,0,231,303326,453239
27,18,male,Belgian,1,16,guess,neutral,5,right,15,guess_outcome,0,undefined,0,0,231,301766,454799
27,18,male,Belgian,1,16,ITC,neutral,5,right,15,ITC_start,713,space,0,0,231,301053,455512
27,18,male,Belgian,1,16,ITC,neutral,5,right,15,ITC_choice,1537,f,0,0,231,299514,457051
27,18,male,Belgian,1,16,ITC,neutral,5,right,15,ITC_wait,0,undefined,0,0,231,299511,457054
27,18,male,Belgian,1,16,ITC,neutral,5,right,15,ITC_collect,1858,k,0,0,231,297651,458914
27,18,male,Belgian,1,16,ITC,neutral,5,right,15,ITC_outcome,0,undefined,0,0,246,296640,459925
27,18,male,Belgian,1,17,guess,loss,10,right,1,guess_start,127,space,0,0,246,296512,460053
27,18,male,Belgian,1,17,guess,loss,10,right,1,guess_choice,946,f,0,0,246,295563,461002
27,18,male,Belgian,1,17,guess,loss,10,right,1,guess_outcome,0,undefined,0,0,231,294001,462564
27,18,male,Belgian,1,17,ITC,loss,10,right,1,ITC_start,238,space,0,0,231,293760,462805
27,18,male,Belgian,1,17,ITC,loss,10,right,1,ITC_choice,895,j,0,0,231,292863,463702
27,18,male,Belgian,1,17,ITC,loss,10,right,1,ITC_wait,0,undefined,0,0,231,282857,473708
27,18,male,Belgian,1,17,ITC,loss,10,right,1,ITC_collect,377,k,0,0,231,282478,474087
27,18,male,Belgian,1,17,ITC,loss,10,right,1,ITC_outcome,0,undefined,0,0,251,281470,475095
27,18,male,Belgian,1,18,guess,win,10,left,5,guess_start,236,space,0,0,251,281231,475334
27,18,male,Belgian,1,18,guess,win,10,left,5,guess_choice,666,j,0,0,251,280562,476003
27,18,male,Belgian,1,18,guess,win,10,left,5,guess_outcome,0,undefined,0,0,271,278996,477569
27,18,male,Belgian,1,18,ITC,win,10,left,5,ITC_start,639,space,0,0,271,278356,478209
27,18,male,Belgian,1,18,ITC,win,10,left,5,ITC_choice,1227,j,0,0,271,277127,479438
27,18,male,Belgian,1,18,ITC,win,10,left,5,ITC_wait,0,undefined,0,0,271,277123,479442
27,18,male,Belgian,1,18,ITC,win,10,left,5,ITC_collect,1074,k,0,0,271,276048,480517
27,18,male,Belgian,1,18,ITC,win,10,left,5,ITC_outcome,0,undefined,0,0,276,275036,481529
27,18,male,Belgian,1,19,guess,win,5,right,3,guess_start,358,space,0,0,276,274676,481889
27,18,male,Belgian,1,19,guess,win,5,right,3,guess_choice,402,j,0,0,276,274273,482292
27,18,male,Belgian,1,19,guess,win,5,right,3,guess_outcome,0,undefined,0,0,296,272720,483845
27,18,male,Belgian,1,19,ITC,win,5,right,3,ITC_start,509,space,0,0,296,272210,484355
27,18,male,Belgian,1,19,ITC,win,5,right,3,ITC_choice,816,j,0,0,296,271392,485173
27,18,male,Belgian,1,19,ITC,win,5,right,3,ITC_wait,0,undefined,0,0,296,266386,490179
27,18,male,Belgian,1,19,ITC,win,5,right,3,ITC_collect,688,k,0,0,296,265696,490869
27,18,male,Belgian,1,19,ITC,win,5,right,3,ITC_outcome,0,undefined,0,0,316,264687,491878
27,18,male,Belgian,1,20,guess,neutral,5,left,8,guess_start,279,space,0,0,316,264405,492160
27,18,male,Belgian,1,20,guess,neutral,5,left,8,guess_choice,743,f,0,0,316,263661,492904
27,18,male,Belgian,1,20,guess,neutral,5,left,8,guess_outcome,0,undefined,0,0,316,262098,494467
27,18,male,Belgian,1,20,ITC,neutral,5,left,8,ITC_start,454,space,0,0,316,261642,494923
27,18,male,Belgian,1,20,ITC,neutral,5,left,8,ITC_choice,1027,f,0,0,316,260613,495952
27,18,male,Belgian,1,20,ITC,neutral,5,left,8,ITC_wait,0,undefined,0,0,316,255600,500965
27,18,male,Belgian,1,20,ITC,neutral,5,left,8,ITC_collect,600,k,0,0,316,254998,501567
27,18,male,Belgian,1,20,ITC,neutral,5,left,8,ITC_outcome,0,undefined,0,0,336,253992,502573
27,18,male,Belgian,1,21,guess,neutral,5,left,12,guess_start,436,space,0,0,336,253552,503013
27,18,male,Belgian,1,21,guess,neutral,5,left,12,guess_choice,586,j,0,0,336,252962,503603
27,18,male,Belgian,1,21,guess,neutral,5,left,12,guess_outcome,0,undefined,0,0,336,251397,505168
27,18,male,Belgian,1,21,ITC,neutral,5,left,12,ITC_start,356,space,0,0,336,251039,505526
27,18,male,Belgian,1,21,ITC,neutral,5,left,12,ITC_choice,934,f,0,0,336,250104,506461
27,18,male,Belgian,1,21,ITC,neutral,5,left,12,ITC_wait,0,undefined,0,0,336,245096,511469
27,18,male,Belgian,1,21,ITC,neutral,5,left,12,ITC_collect,603,k,0,0,336,244491,512074
27,18,male,Belgian,1,21,ITC,neutral,5,left,12,ITC_outcome,0,undefined,0,0,356,243484,513081
27,18,male,Belgian,1,22,guess,loss,5,left,11,guess_start,345,space,0,0,356,243138,513427
27,18,male,Belgian,1,22,guess,loss,5,left,11,guess_choice,787,j,0,0,356,242346,514219
27,18,male,Belgian,1,22,guess,loss,5,left,11,guess_outcome,0,undefined,0,0,341,240786,515779
27,18,male,Belgian,1,22,ITC,loss,5,left,11,ITC_start,369,space,0,0,341,240415,516150
27,18,male,Belgian,1,22,ITC,loss,5,left,11,ITC_choice,913,f,0,0,341,239500,517065
27,18,male,Belgian,1,22,ITC,loss,5,left,11,ITC_wait,0,undefined,0,0,341,234486,522079
27,18,male,Belgian,1,22,ITC,loss,5,left,11,ITC_collect,663,k,0,0,341,233821,522744
27,18,male,Belgian,1,22,ITC,loss,5,left,11,ITC_outcome,0,undefined,0,0,361,232807,523758
27,18,male,Belgian,1,23,guess,loss,5,left,10,guess_start,246,space,0,0,361,232559,524006
27,18,male,Belgian,1,23,guess,loss,5,left,10,guess_choice,497,f,0,0,361,232057,524508
27,18,male,Belgian,1,23,guess,loss,5,left,10,guess_outcome,0,undefined,0,0,346,230501,526064
27,18,male,Belgian,1,23,ITC,loss,5,left,10,ITC_start,235,space,0,0,346,230265,526300
27,18,male,Belgian,1,23,ITC,loss,5,left,10,ITC_choice,931,f,0,0,346,229332,527233
27,18,male,Belgian,1,23,ITC,loss,5,left,10,ITC_wait,0,undefined,0,0,346,224327,532238
27,18,male,Belgian,1,23,ITC,loss,5,left,10,ITC_collect,522,k,0,0,346,223803,532762
27,18,male,Belgian,1,23,ITC,loss,5,left,10,ITC_outcome,0,undefined,0,0,366,222797,533768
27,18,male,Belgian,1,24,guess,neutral,10,left,8,guess_start,222,space,0,0,366,222573,533992
27,18,male,Belgian,1,24,guess,neutral,10,left,8,guess_choice,420,f,0,0,366,222149,534416
27,18,male,Belgian,1,24,guess,neutral,10,left,8,guess_outcome,0,undefined,0,0,366,220586,535979
27,18,male,Belgian,1,24,ITC,neutral,10,left,8,ITC_start,549,space,0,0,366,220036,536529
27,18,male,Belgian,1,24,ITC,neutral,10,left,8,ITC_choice,1149,j,0,0,366,218885,537680
27,18,male,Belgian,1,24,ITC,neutral,10,left,8,ITC_wait,0,undefined,0,0,366,218878,537687
27,18,male,Belgian,1,24,ITC,neutral,10,left,8,ITC_collect,815,k,0,0,366,218062,538503
27,18,male,Belgian,1,24,ITC,neutral,10,left,8,ITC_outcome,0,undefined,0,0,374,217054,539511
27,18,male,Belgian,1,25,guess,win,5,right,6,guess_start,368,space,0,0,374,216685,539880
27,18,male,Belgian,1,25,guess,win,5,right,6,guess_choice,596,j,0,0,374,216086,540479
27,18,male,Belgian,1,25,guess,win,5,right,6,guess_outcome,0,undefined,0,0,394,214527,542038
27,18,male,Belgian,1,25,ITC,win,5,right,6,ITC_start,601,space,0,0,394,213924,542641
27,18,male,Belgian,1,25,ITC,win,5,right,6,ITC_choice,941,j,0,0,394,212982,543583
27,18,male,Belgian,1,25,ITC,win,5,right,6,ITC_wait,0,undefined,54,54,394,207978,548587
27,18,male,Belgian,1,25,ITC,win,5,right,6,ITC_collect,577,k,17,17,394,207398,549167
27,18,male,Belgian,1,25,ITC,win,5,right,6,ITC_outcome,0,undefined,0,0,414,206394,550171
27,18,male,Belgian,1,26,guess,loss,10,left,7,guess_start,352,space,0,0,414,206040,550525
27,18,male,Belgian,1,26,guess,loss,10,left,7,guess_choice,735,j,0,0,414,205301,551264
27,18,male,Belgian,1,26,guess,loss,10,left,7,guess_outcome,0,undefined,0,0,399,203737,552828
27,18,male,Belgian,1,26,ITC,loss,10,left,7,ITC_start,351,space,0,0,399,203385,553180
27,18,male,Belgian,1,26,ITC,loss,10,left,7,ITC_choice,2586,j,0,0,399,200798,555767
27,18,male,Belgian,1,26,ITC,loss,10,left,7,ITC_wait,0,undefined,0,0,399,200794,555771
27,18,male,Belgian,1,26,ITC,loss,10,left,7,ITC_collect,808,k,0,0,399,199983,556582
27,18,male,Belgian,1,26,ITC,loss,10,left,7,ITC_outcome,0,undefined,0,0,406,198964,557601
27,18,male,Belgian,1,27,guess,win,5,right,13,guess_start,275,space,0,0,406,198687,557878
27,18,male,Belgian,1,27,guess,win,5,right,13,guess_choice,647,f,0,0,406,198035,558530
27,18,male,Belgian,1,27,guess,win,5,right,13,guess_outcome,0,undefined,0,0,426,196477,560088
27,18,male,Belgian,1,27,ITC,win,5,right,13,ITC_start,465,space,0,0,426,196011,560554
27,18,male,Belgian,1,27,ITC,win,5,right,13,ITC_choice,953,j,0,0,426,195056,561509
27,18,male,Belgian,1,27,ITC,win,5,right,13,ITC_wait,0,undefined,0,0,426,190048,566517
27,18,male,Belgian,1,27,ITC,win,5,right,13,ITC_collect,549,k,0,0,426,189496,567069
27,18,male,Belgian,1,27,ITC,win,5,right,13,ITC_outcome,0,undefined,0,0,446,188488,568077
27,18,male,Belgian,1,28,guess,loss,5,left,6,guess_start,351,space,0,0,446,188135,568430
27,18,male,Belgian,1,28,guess,loss,5,left,6,guess_choice,670,j,0,0,446,187460,569105
27,18,male,Belgian,1,28,guess,loss,5,left,6,guess_outcome,0,undefined,0,0,431,185897,570668
27,18,male,Belgian,1,28,ITC,loss,5,left,6,ITC_start,365,space,0,0,431,185531,571034
27,18,male,Belgian,1,28,ITC,loss,5,left,6,ITC_choice,870,f,0,0,431,184659,571906
27,18,male,Belgian,1,28,ITC,loss,5,left,6,ITC_wait,0,undefined,0,0,431,179657,576908
27,18,male,Belgian,1,28,ITC,loss,5,left,6,ITC_collect,393,k,0,0,431,179262,577303
27,18,male,Belgian,1,28,ITC,loss,5,left,6,ITC_outcome,0,undefined,0,0,451,178257,578308
27,18,male,Belgian,1,29,guess,loss,10,right,2,guess_start,243,space,0,0,451,178011,578554
27,18,male,Belgian,1,29,guess,loss,10,right,2,guess_choice,559,j,0,0,451,177450,579115
27,18,male,Belgian,1,29,guess,loss,10,right,2,guess_outcome,0,undefined,0,0,436,175887,580678
27,18,male,Belgian,1,29,ITC,loss,10,right,2,ITC_start,343,space,0,0,436,175543,581022
27,18,male,Belgian,1,29,ITC,loss,10,right,2,ITC_choice,741,j,0,0,436,174801,581764
27,18,male,Belgian,1,29,ITC,loss,10,right,2,ITC_wait,0,undefined,0,0,436,164796,591769
27,18,male,Belgian,1,29,ITC,loss,10,right,2,ITC_collect,287,k,0,0,436,164507,592058
27,18,male,Belgian,1,29,ITC,loss,10,right,2,ITC_outcome,0,undefined,0,0,456,163501,593064
27,18,male,Belgian,1,30,guess,neutral,10,left,1,guess_start,302,space,0,0,456,163197,593368
27,18,male,Belgian,1,30,guess,neutral,10,left,1,guess_choice,708,j,0,0,456,162484,594081
27,18,male,Belgian,1,30,guess,neutral,10,left,1,guess_outcome,0,undefined,0,0,456,160920,595645
27,18,male,Belgian,1,30,ITC,neutral,10,left,1,ITC_start,681,space,0,0,456,160237,596328
27,18,male,Belgian,1,30,ITC,neutral,10,left,1,ITC_choice,1056,j,0,0,456,159179,597386
27,18,male,Belgian,1,30,ITC,neutral,10,left,1,ITC_wait,0,undefined,0,0,456,159176,597389
27,18,male,Belgian,1,30,ITC,neutral,10,left,1,ITC_collect,1427,k,0,0,456,157749,598816
27,18,male,Belgian,1,30,ITC,neutral,10,left,1,ITC_outcome,0,undefined,0,0,457,156742,599823
27,18,male,Belgian,1,31,guess,neutral,5,right,10,guess_start,371,space,0,0,457,156368,600197
27,18,male,Belgian,1,31,guess,neutral,5,right,10,guess_choice,789,f,0,0,457,155574,600991
27,18,male,Belgian,1,31,guess,neutral,5,right,10,guess_outcome,0,undefined,0,0,457,154008,602557
27,18,male,Belgian,1,31,ITC,neutral,5,right,10,ITC_start,170,space,0,0,457,153836,602729
27,18,male,Belgian,1,31,ITC,neutral,5,right,10,ITC_choice,1334,f,0,0,457,152501,604064
27,18,male,Belgian,1,31,ITC,neutral,5,right,10,ITC_wait,0,undefined,0,0,457,152498,604067
27,18,male,Belgian,1,31,ITC,neutral,5,right,10,ITC_collect,1614,k,0,0,457,150882,605683
27,18,male,Belgian,1,31,ITC,neutral,5,right,10,ITC_outcome,0,undefined,0,0,467,149875,606690
27,18,male,Belgian,1,32,guess,win,5,right,7,guess_start,290,space,0,0,467,149584,606981
27,18,male,Belgian,1,32,guess,win,5,right,7,guess_choice,637,j,0,0,467,148942,607623
27,18,male,Belgian,1,32,guess,win,5,right,7,guess_outcome,0,undefined,0,0,487,147383,609182
27,18,male,Belgian,1,32,ITC,win,5,right,7,ITC_start,612,space,0,0,487,146770,609795
27,18,male,Belgian,1,32,ITC,win,5,right,7,ITC_choice,763,j,0,0,487,146004,610561
27,18,male,Belgian,1,32,ITC,win,5,right,7,ITC_wait,0,undefined,0,0,487,140998,615567
27,18,male,Belgian,1,32,ITC,win,5,right,7,ITC_collect,414,k,0,0,487,140582,615983
27,18,male,Belgian,1,32,ITC,win,5,right,7,ITC_outcome,0,undefined,0,0,507,139575,616990
27,18,male,Belgian,1,33,guess,loss,5,right,8,guess_start,1122,space,0,0,507,138452,618113
27,18,male,Belgian,1,33,guess,loss,5,right,8,guess_choice,616,j,0,0,507,137833,618732
27,18,male,Belgian,1,33,guess,loss,5,right,8,guess_outcome,0,undefined,0,0,492,136272,620293
27,18,male,Belgian,1,33,ITC,loss,5,right,8,ITC_start,362,space,0,0,492,135908,620657
27,18,male,Belgian,1,33,ITC,loss,5,right,8,ITC_choice,777,j,0,0,492,135128,621437
27,18,male,Belgian,1,33,ITC,loss,5,right,8,ITC_wait,0,undefined,0,0,492,130110,626455
27,18,male,Belgian,1,33,ITC,loss,5,right,8,ITC_collect,660,k,0,0,492,129447,627118
27,18,male,Belgian,1,33,ITC,loss,5,right,8,ITC_outcome,0,undefined,0,0,512,128430,628135
27,18,male,Belgian,1,34,guess,win,5,right,12,guess_start,299,space,0,0,512,128129,628436
27,18,male,Belgian,1,34,guess,win,5,right,12,guess_choice,521,j,0,0,512,127605,628960
27,18,male,Belgian,1,34,guess,win,5,right,12,guess_outcome,0,undefined,0,0,532,126040,630525
27,18,male,Belgian,1,34,ITC,win,5,right,12,ITC_start,304,space,0,0,532,125735,630830
27,18,male,Belgian,1,34,ITC,win,5,right,12,ITC_choice,1427,j,0,0,532,124306,632259
27,18,male,Belgian,1,34,ITC,win,5,right,12,ITC_wait,0,undefined,0,0,532,119301,637264
27,18,male,Belgian,1,34,ITC,win,5,right,12,ITC_collect,594,k,0,0,532,118705,637860
27,18,male,Belgian,1,34,ITC,win,5,right,12,ITC_outcome,0,undefined,0,0,552,117701,638864
27,18,male,Belgian,1,35,guess,loss,5,right,15,guess_start,377,space,0,0,552,117321,639244
27,18,male,Belgian,1,35,guess,loss,5,right,15,guess_choice,509,f,0,0,552,116810,639755
27,18,male,Belgian,1,35,guess,loss,5,right,15,guess_outcome,0,undefined,0,0,537,115250,641315
27,18,male,Belgian,1,35,ITC,loss,5,right,15,ITC_start,506,space,0,0,537,114743,641822
27,18,male,Belgian,1,35,ITC,loss,5,right,15,ITC_choice,1166,f,0,0,537,113575,642990
27,18,male,Belgian,1,35,ITC,loss,5,right,15,ITC_wait,0,undefined,0,0,537,113573,642992
27,18,male,Belgian,1,35,ITC,loss,5,right,15,ITC_collect,564,k,0,0,537,113007,643558
27,18,male,Belgian,1,35,ITC,loss,5,right,15,ITC_outcome,0,undefined,0,0,552,112000,644565
27,18,male,Belgian,1,36,guess,neutral,10,right,3,guess_start,416,space,0,0,552,111582,644983
27,18,male,Belgian,1,36,guess,neutral,10,right,3,guess_choice,511,j,0,0,552,111067,645498
27,18,male,Belgian,1,36,guess,neutral,10,right,3,guess_outcome,0,undefined,0,0,552,109510,647055
27,18,male,Belgian,1,36,ITC,neutral,10,right,3,ITC_start,514,space,0,0,552,108994,647571
27,18,male,Belgian,1,36,ITC,neutral,10,right,3,ITC_choice,698,j,0,0,552,108294,648271
27,18,male,Belgian,1,36,ITC,neutral,10,right,3,ITC_wait,0,undefined,0,0,552,98280,658285
27,18,male,Belgian,1,36,ITC,neutral,10,right,3,ITC_collect,349,k,0,0,552,97928,658637
27,18,male,Belgian,1,36,ITC,neutral,10,right,3,ITC_outcome,0,undefined,0,0,572,96917,659648
27,18,male,Belgian,1,37,guess,neutral,10,left,5,guess_start,310,space,0,0,572,96605,659960
27,18,male,Belgian,1,37,guess,neutral,10,left,5,guess_choice,629,f,0,0,572,95973,660592
27,18,male,Belgian,1,37,guess,neutral,10,left,5,guess_outcome,0,undefined,0,0,572,94415,662150
27,18,male,Belgian,1,37,ITC,neutral,10,left,5,ITC_start,294,space,0,0,572,94120,662445
27,18,male,Belgian,1,37,ITC,neutral,10,left,5,ITC_choice,1385,f,0,0,572,92733,663832
27,18,male,Belgian,1,37,ITC,neutral,10,left,5,ITC_wait,0,undefined,0,0,572,82718,673847
27,18,male,Belgian,1,37,ITC,neutral,10,left,5,ITC_collect,721,k,0,0,572,81996,674569
27,18,male,Belgian,1,37,ITC,neutral,10,left,5,ITC_outcome,0,undefined,0,0,592,80988,675577
27,18,male,Belgian,1,38,guess,neutral,10,left,4,guess_start,291,space,0,0,592,80695,675870
27,18,male,Belgian,1,38,guess,neutral,10,left,4,guess_choice,474,j,0,0,592,80217,676348
27,18,male,Belgian,1,38,guess,neutral,10,left,4,guess_outcome,0,undefined,0,0,592,78658,677907
27,18,male,Belgian,1,38,ITC,neutral,10,left,4,ITC_start,523,space,0,0,592,78132,678433
27,18,male,Belgian,1,38,ITC,neutral,10,left,4,ITC_choice,1273,f,0,0,592,76857,679708
27,18,male,Belgian,1,38,ITC,neutral,10,left,4,ITC_wait,0,undefined,0,0,592,66845,689720
27,18,male,Belgian,1,38,ITC,neutral,10,left,4,ITC_collect,484,k,0,0,592,66359,690206
27,18,male,Belgian,1,38,ITC,neutral,10,left,4,ITC_outcome,0,undefined,0,0,612,65348,691217
27,18,male,Belgian,1,39,guess,win,5,left,16,guess_start,180,space,0,0,612,65165,691400
27,18,male,Belgian,1,39,guess,win,5,left,16,guess_choice,927,f,0,0,612,64231,692334
27,18,male,Belgian,1,39,guess,win,5,left,16,guess_outcome,0,undefined,0,0,632,62678,693887
27,18,male,Belgian,1,39,ITC,win,5,left,16,ITC_start,519,space,0,0,632,62158,694407
27,18,male,Belgian,1,39,ITC,win,5,left,16,ITC_choice,1015,f,0,0,632,61140,695425
27,18,male,Belgian,1,39,ITC,win,5,left,16,ITC_wait,0,undefined,0,0,632,56129,700436
27,18,male,Belgian,1,39,ITC,win,5,left,16,ITC_collect,736,k,0,0,632,55392,701173
27,18,male,Belgian,1,39,ITC,win,5,left,16,ITC_outcome,0,undefined,0,0,652,54388,702177
27,18,male,Belgian,1,40,guess,win,5,right,2,guess_start,290,space,0,0,652,54095,702470
27,18,male,Belgian,1,40,guess,win,5,right,2,guess_choice,607,j,0,0,652,53485,703080
27,18,male,Belgian,1,40,guess,win,5,right,2,guess_outcome,0,undefined,0,0,672,51930,704635
27,18,male,Belgian,1,40,ITC,win,5,right,2,ITC_start,390,space,0,0,672,51538,705027
27,18,male,Belgian,1,40,ITC,win,5,right,2,ITC_choice,871,j,0,0,672,50665,705900
27,18,male,Belgian,1,40,ITC,win,5,right,2,ITC_wait,0,undefined,0,0,672,45648,710917
27,18,male,Belgian,1,40,ITC,win,5,right,2,ITC_collect,602,k,0,0,672,45045,711520
27,18,male,Belgian,1,40,ITC,win,5,right,2,ITC_outcome,0,undefined,0,0,692,44028,712537
27,18,male,Belgian,1,41,guess,loss,5,right,1,guess_start,467,space,0,0,692,43559,713006
27,18,male,Belgian,1,41,guess,loss,5,right,1,guess_choice,543,j,0,0,692,43012,713553
27,18,male,Belgian,1,41,guess,loss,5,right,1,guess_outcome,0,undefined,0,0,677,41459,715106
27,18,male,Belgian,1,41,ITC,loss,5,right,1,ITC_start,390,space,0,0,677,41067,715498
27,18,male,Belgian,1,41,ITC,loss,5,right,1,ITC_choice,794,j,0,0,677,40271,716294
27,18,male,Belgian,1,41,ITC,loss,5,right,1,ITC_wait,0,undefined,0,0,677,35268,721297
27,18,male,Belgian,1,41,ITC,loss,5,right,1,ITC_collect,802,k,0,0,677,34465,722100
27,18,male,Belgian,1,41,ITC,loss,5,right,1,ITC_outcome,0,undefined,0,0,697,33458,723107
27,18,male,Belgian,1,42,guess,win,5,right,1,guess_start,316,space,0,0,697,33141,723424
27,18,male,Belgian,1,42,guess,win,5,right,1,guess_choice,552,f,0,0,697,32583,723982
27,18,male,Belgian,1,42,guess,win,5,right,1,guess_outcome,0,undefined,0,0,717,31016,725549
27,18,male,Belgian,1,42,ITC,win,5,right,1,ITC_start,394,space,0,0,717,30621,725944
27,18,male,Belgian,1,42,ITC,win,5,right,1,ITC_choice,654,j,0,0,717,29966,726599
27,18,male,Belgian,1,42,ITC,win,5,right,1,ITC_wait,0,undefined,0,0,717,24958,731607
27,18,male,Belgian,1,42,ITC,win,5,right,1,ITC_collect,452,k,0,0,717,24505,732060
27,18,male,Belgian,1,42,ITC,win,5,right,1,ITC_outcome,0,undefined,0,0,737,23499,733066
27,18,male,Belgian,1,43,guess,loss,5,left,14,guess_start,362,space,0,0,737,23135,733430
27,18,male,Belgian,1,43,guess,loss,5,left,14,guess_choice,490,j,0,0,737,22641,733924
27,18,male,Belgian,1,43,guess,loss,5,left,14,guess_outcome,0,undefined,0,0,722,21088,735477
27,18,male,Belgian,1,43,ITC,loss,5,left,14,ITC_start,316,space,0,0,722,20771,735794
27,18,male,Belgian,1,43,ITC,loss,5,left,14,ITC_choice,945,f,0,0,722,19824,736741
27,18,male,Belgian,1,43,ITC,loss,5,left,14,ITC_wait,0,undefined,0,0,722,14818,741747
27,18,male,Belgian,1,43,ITC,loss,5,left,14,ITC_collect,568,k,0,0,722,14248,742317
27,18,male,Belgian,1,43,ITC,loss,5,left,14,ITC_outcome,0,undefined,0,0,742,13227,743338
27,18,male,Belgian,1,44,guess,loss,5,left,13,guess_start,357,space,0,0,742,12868,743697
27,18,male,Belgian,1,44,guess,loss,5,left,13,guess_choice,562,j,0,0,742,12304,744261
27,18,male,Belgian,1,44,guess,loss,5,left,13,guess_outcome,0,undefined,0,0,727,10748,745817
27,18,male,Belgian,1,44,ITC,loss,5,left,13,ITC_start,338,space,0,0,727,10409,746156
27,18,male,Belgian,1,44,ITC,loss,5,left,13,ITC_choice,751,f,0,0,727,9656,746909
27,18,male,Belgian,1,44,ITC,loss,5,left,13,ITC_wait,0,undefined,0,0,727,4648,751917
27,18,male,Belgian,1,44,ITC,loss,5,left,13,ITC_collect,555,k,0,0,727,4091,752474
27,18,male,Belgian,1,44,ITC,loss,5,left,13,ITC_outcome,0,undefined,0,0,747,3078,753487
27,18,male,Belgian,1,45,guess,win,10,left,4,guess_start,700,space,0,0,747,2375,754190
27,18,male,Belgian,1,45,guess,win,10,left,4,guess_choice,561,j,0,0,747,1812,754753
27,18,male,Belgian,1,45,guess,win,10,left,4,guess_outcome,0,undefined,0,0,767,258,756307
27,18,male,Belgian,1,45,ITC,win,10,left,4,ITC_start,0,undefined,0,0,767,-12,756577
27,18,male,Belgian,2,46,guess,win,10,left,1,guess_start,886,space,0,0,0,479113,767374
27,18,male,Belgian,2,46,guess,win,10,left,1,guess_choice,1059,j,0,0,0,478051,768436
27,18,male,Belgian,2,46,guess,win,10,left,1,guess_outcome,0,undefined,0,0,20,476497,769990
27,18,male,Belgian,2,46,ITC,win,10,left,1,ITC_start,691,space,0,0,20,475804,770683
27,18,male,Belgian,2,46,ITC,win,10,left,1,ITC_choice,704,f,0,0,20,475098,771389
27,18,male,Belgian,2,46,ITC,win,10,left,1,ITC_wait,0,undefined,0,0,20,465083,781404
27,18,male,Belgian,2,46,ITC,win,10,left,1,ITC_collect,619,k,0,0,20,464462,782025
27,18,male,Belgian,2,46,ITC,win,10,left,1,ITC_outcome,0,undefined,0,0,40,463454,783033
27,18,male,Belgian,2,47,guess,win,5,left,15,guess_start,290,space,0,0,40,463161,783326
27,18,male,Belgian,2,47,guess,win,5,left,15,guess_choice,523,j,0,0,40,462634,783853
27,18,male,Belgian,2,47,guess,win,5,left,15,guess_outcome,0,undefined,0,0,60,461074,785413
27,18,male,Belgian,2,47,ITC,win,5,left,15,ITC_start,70,space,0,0,60,461003,785484
27,18,male,Belgian,2,47,ITC,win,5,left,15,ITC_choice,988,j,0,0,60,460015,786472
27,18,male,Belgian,2,47,ITC,win,5,left,15,ITC_wait,0,undefined,0,0,60,460006,786481
27,18,male,Belgian,2,47,ITC,win,5,left,15,ITC_collect,767,k,0,0,60,459238,787249
27,18,male,Belgian,2,47,ITC,win,5,left,15,ITC_outcome,0,undefined,0,0,75,458224,788263
27,18,male,Belgian,2,48,guess,neutral,5,left,1,guess_start,286,space,0,0,75,457936,788551
27,18,male,Belgian,2,48,guess,neutral,5,left,1,guess_choice,623,j,0,0,75,457310,789177
27,18,male,Belgian,2,48,guess,neutral,5,left,1,guess_outcome,0,undefined,0,0,75,455754,790733
27,18,male,Belgian,2,48,ITC,neutral,5,left,1,ITC_start,415,space,0,0,75,455339,791148
27,18,male,Belgian,2,48,ITC,neutral,5,left,1,ITC_choice,701,f,0,0,75,454637,791850
27,18,male,Belgian,2,48,ITC,neutral,5,left,1,ITC_wait,0,undefined,0,0,75,449634,796853
27,18,male,Belgian,2,48,ITC,neutral,5,left,1,ITC_collect,571,k,0,0,75,449062,797425
27,18,male,Belgian,2,48,ITC,neutral,5,left,1,ITC_outcome,0,undefined,0,0,95,448054,798433
27,18,male,Belgian,2,49,guess,win,10,left,8,guess_start,253,space,0,0,95,447800,798687
27,18,male,Belgian,2,49,guess,win,10,left,8,guess_choice,493,j,0,0,95,447303,799184
27,18,male,Belgian,2,49,guess,win,10,left,8,guess_outcome,0,undefined,0,0,115,445746,800741
27,18,male,Belgian,2,49,ITC,win,10,left,8,ITC_start,350,space,0,0,115,445395,801092
27,18,male,Belgian,2,49,ITC,win,10,left,8,ITC_choice,685,f,0,0,115,444708,801779
27,18,male,Belgian,2,49,ITC,win,10,left,8,ITC_wait,0,undefined,0,0,115,434702,811785
27,18,male,Belgian,2,49,ITC,win,10,left,8,ITC_collect,700,k,0,0,115,434000,812487
27,18,male,Belgian,2,49,ITC,win,10,left,8,ITC_outcome,0,undefined,0,0,135,432985,813502
27,18,male,Belgian,2,50,guess,loss,10,right,8,guess_start,225,space,0,0,135,432759,813728
27,18,male,Belgian,2,50,guess,loss,10,right,8,guess_choice,252,j,0,0,135,432503,813984
27,18,male,Belgian,2,50,guess,loss,10,right,8,guess_outcome,0,undefined,0,0,120,430947,815540
27,18,male,Belgian,2,50,ITC,loss,10,right,8,ITC_start,306,space,0,0,120,430639,815848
27,18,male,Belgian,2,50,ITC,loss,10,right,8,ITC_choice,1057,f,0,0,120,429581,816906
27,18,male,Belgian,2,50,ITC,loss,10,right,8,ITC_wait,0,undefined,0,0,120,429578,816909
27,18,male,Belgian,2,50,ITC,loss,10,right,8,ITC_collect,741,k,0,0,120,428836,817651
27,18,male,Belgian,2,50,ITC,loss,10,right,8,ITC_outcome,0,undefined,0,0,128,427832,818655
27,18,male,Belgian,2,51,guess,win,5,right,4,guess_start,410,space,0,0,128,427421,819066
27,18,male,Belgian,2,51,guess,win,5,right,4,guess_choice,480,f,0,0,128,426937,819550
27,18,male,Belgian,2,51,guess,win,5,right,4,guess_outcome,0,undefined,0,0,148,425382,821105
27,18,male,Belgian,2,51,ITC,win,5,right,4,ITC_start,466,space,0,0,148,424915,821572
27,18,male,Belgian,2,51,ITC,win,5,right,4,ITC_choice,847,f,0,0,148,424067,822420
27,18,male,Belgian,2,51,ITC,win,5,right,4,ITC_wait,0,undefined,0,0,148,424064,822423
27,18,male,Belgian,2,51,ITC,win,5,right,4,ITC_collect,786,k,0,0,148,423277,823210
27,18,male,Belgian,2,51,ITC,win,5,right,4,ITC_outcome,0,undefined,0,0,152,422272,824215
27,18,male,Belgian,2,52,guess,loss,5,right,12,guess_start,25,space,0,0,152,422244,824243
27,18,male,Belgian,2,52,guess,loss,5,right,12,guess_choice,498,j,0,0,152,421743,824744
27,18,male,Belgian,2,52,guess,loss,5,right,12,guess_outcome,0,undefined,0,0,137,420182,826305
27,18,male,Belgian,2,52,ITC,loss,5,right,12,ITC_start,305,space,0,0,137,419874,826613
27,18,male,Belgian,2,52,ITC,loss,5,right,12,ITC_choice,879,f,0,0,137,418993,827494
27,18,male,Belgian,2,52,ITC,loss,5,right,12,ITC_wait,0,undefined,0,0,137,418989,827498
27,18,male,Belgian,2,52,ITC,loss,5,right,12,ITC_collect,634,k,0,0,137,418354,828133
27,18,male,Belgian,2,52,ITC,loss,5,right,12,ITC_outcome,0,undefined,0,0,149,417340,829147
27,18,male,Belgian,2,53,guess,neutral,10,right,6,guess_start,67,space,0,0,149,417272,829215
27,18,male,Belgian,2,53,guess,neutral,10,right,6,guess_choice,604,j,0,0,149,416666,829821
27,18,male,Belgian,2,53,guess,neutral,10,right,6,guess_outcome,0,undefined,0,0,149,415112,831375
27,18,male,Belgian,2,53,ITC,neutral,10,right,6,ITC_start,397,space,0,0,149,414713,831774
27,18,male,Belgian,2,53,ITC,neutral,10,right,6,ITC_choice,804,j,0,0,149,413908,832579
27,18,male,Belgian,2,53,ITC,neutral,10,right,6,ITC_wait,0,undefined,0,0,149,403894,842593
27,18,male,Belgian,2,53,ITC,neutral,10,right,6,ITC_collect,317,k,0,0,149,403574,842913
27,18,male,Belgian,2,53,ITC,neutral,10,right,6,ITC_outcome,0,undefined,0,0,169,402566,843921
27,18,male,Belgian,2,54,guess,loss,5,right,16,guess_start,177,space,0,0,169,402387,844100
27,18,male,Belgian,2,54,guess,loss,5,right,16,guess_choice,257,j,0,0,169,402126,844361
27,18,male,Belgian,2,54,guess,loss,5,right,16,guess_outcome,0,undefined,0,0,154,400568,845919
27,18,male,Belgian,2,54,ITC,loss,5,right,16,ITC_start,406,space,0,0,154,400161,846326
27,18,male,Belgian,2,54,ITC,loss,5,right,16,ITC_choice,778,f,0,0,154,399381,847106
27,18,male,Belgian,2,54,ITC,loss,5,right,16,ITC_wait,0,undefined,0,0,154,399378,847109
27,18,male,Belgian,2,54,ITC,loss,5,right,16,ITC_collect,613,k,0,0,154,398763,847724
27,18,male,Belgian,2,54,ITC,loss,5,right,16,ITC_outcome,0,undefined,0,0,170,397760,848727
27,18,male,Belgian,2,55,guess,neutral,5,right,16,guess_start,248,space,0,0,170,397509,848978
27,18,male,Belgian,2,55,guess,neutral,5,right,16,guess_choice,405,j,0,0,170,397100,849387
27,18,male,Belgian,2,55,guess,neutral,5,right,16,guess_outcome,0,undefined,0,0,170,395536,850951
27,18,male,Belgian,2,55,ITC,neutral,5,right,16,ITC_start,348,space,0,0,170,395185,851302
27,18,male,Belgian,2,55,ITC,neutral,5,right,16,ITC_choice,633,f,0,0,170,394551,851936
27,18,male,Belgian,2,55,ITC,neutral,5,right,16,ITC_wait,0,undefined,0,0,170,394549,851938
27,18,male,Belgian,2,55,ITC,neutral,5,right,16,ITC_collect,494,k,0,0,170,394054,852433
27,18,male,Belgian,2,55,ITC,neutral,5,right,16,ITC_outcome,0,undefined,0,0,186,393043,853444
27,18,male,Belgian,2,56,guess,neutral,5,left,3,guess_start,258,space,0,0,186,392783,853704
27,18,male,Belgian,2,56,guess,neutral,5,left,3,guess_choice,426,j,0,0,186,392355,854132
27,18,male,Belgian,2,56,guess,neutral,5,left,3,guess_outcome,0,undefined,0,0,186,390795,855692
27,18,male,Belgian,2,56,ITC,neutral,5,left,3,ITC_start,397,space,0,0,186,390394,856093
27,18,male,Belgian,2,56,ITC,neutral,5,left,3,ITC_choice,969,j,0,0,186,389423,857064
27,18,male,Belgian,2,56,ITC,neutral,5,left,3,ITC_wait,0,undefined,0,0,186,389421,857066
27,18,male,Belgian,2,56,ITC,neutral,5,left,3,ITC_collect,685,k,0,0,186,388735,857752
27,18,male,Belgian,2,56,ITC,neutral,5,left,3,ITC_outcome,0,undefined,0,0,189,387716,858771
27,18,male,Belgian,2,57,guess,loss,10,right,3,guess_start,298,space,0,0,189,387416,859071
27,18,male,Belgian,2,57,guess,loss,10,right,3,guess_choice,415,j,0,0,189,386999,859488
27,18,male,Belgian,2,57,guess,loss,10,right,3,guess_outcome,0,undefined,0,0,174,385445,861042
27,18,male,Belgian,2,57,ITC,loss,10,right,3,ITC_start,242,space,0,0,174,385201,861286
27,18,male,Belgian,2,57,ITC,loss,10,right,3,ITC_choice,927,f,0,0,174,384273,862214
27,18,male,Belgian,2,57,ITC,loss,10,right,3,ITC_wait,0,undefined,0,0,174,384270,862217
27,18,male,Belgian,2,57,ITC,loss,10,right,3,ITC_collect,577,k,0,0,174,383692,862795
27,18,male,Belgian,2,57,ITC,loss,10,right,3,ITC_outcome,0,undefined,0,0,177,382686,863801
27,18,male,Belgian,2,58,guess,neutral,5,right,11,guess_start,270,space,0,0,177,382415,864072
27,18,male,Belgian,2,58,guess,neutral,5,right,11,guess_choice,1217,j,0,0,177,381193,865294
27,18,male,Belgian,2,58,guess,neutral,5,right,11,guess_outcome,0,undefined,0,0,177,379636,866851
27,18,male,Belgian,2,58,ITC,neutral,5,right,11,ITC_start,638,space,0,0,177,378994,867493
27,18,male,Belgian,2,58,ITC,neutral,5,right,11,ITC_choice,693,f,0,0,177,378300,868187
27,18,male,Belgian,2,58,ITC,neutral,5,right,11,ITC_wait,0,undefined,0,0,177,378298,868189
27,18,male,Belgian,2,58,ITC,neutral,5,right,11,ITC_collect,519,k,0,0,177,377778,868709
27,18,male,Belgian,2,58,ITC,neutral,5,right,11,ITC_outcome,0,undefined,0,0,188,376768,869719
27,18,male,Belgian,2,59,guess,win,5,left,11,guess_start,537,space,0,0,188,376230,870257
27,18,male,Belgian,2,59,guess,win,5,left,11,guess_choice,645,f,0,0,188,375583,870904
27,18,male,Belgian,2,59,guess,win,5,left,11,guess_outcome,0,undefined,0,0,208,374027,872460
27,18,male,Belgian,2,59,ITC,win,5,left,11,ITC_start,190,space,0,0,208,373836,872651
27,18,male,Belgian,2,59,ITC,win,5,left,11,ITC_choice,1296,j,0,0,208,372538,873949
27,18,male,Belgian,2,59,ITC,win,5,left,11,ITC_wait,0,undefined,0,0,208,372535,873952
27,18,male,Belgian,2,59,ITC,win,5,left,11,ITC_collect,349,k,0,0,208,372185,874302
27,18,male,Belgian,2,59,ITC,win,5,left,11,ITC_outcome,0,undefined,0,0,219,371177,875310
27,18,male,Belgian,2,60,guess,neutral,5,left,6,guess_start,276,space,0,0,219,370898,875589
27,18,male,Belgian,2,60,guess,neutral,5,left,6,guess_choice,501,j,0,0,219,370393,876094
27,18,male,Belgian,2,60,guess,neutral,5,left,6,guess_outcome,0,undefined,0,0,219,368837,877650
27,18,male,Belgian,2,60,ITC,neutral,5,left,6,ITC_start,202,space,0,0,219,368635,877852
27,18,male,Belgian,2,60,ITC,neutral,5,left,6,ITC_choice,946,j,0,0,219,367687,878800
27,18,male,Belgian,2,60,ITC,neutral,5,left,6,ITC_wait,0,undefined,0,0,219,367685,878802
27,18,male,Belgian,2,60,ITC,neutral,5,left,6,ITC_collect,858,k,0,0,219,366825,879662
27,18,male,Belgian,2,60,ITC,neutral,5,left,6,ITC_outcome,0,undefined,0,0,225,365817,880670
27,18,male,Belgian,2,61,guess,win,5,left,10,guess_start,454,space,0,0,225,365360,881127
27,18,male,Belgian,2,61,guess,win,5,left,10,guess_choice,541,j,0,0,225,364814,881673
27,18,male,Belgian,2,61,guess,win,5,left,10,guess_outcome,0,undefined,0,0,245,363248,883239
27,18,male,Belgian,2,61,ITC,win,5,left,10,ITC_start,275,space,0,0,245,362971,883516
27,18,male,Belgian,2,61,ITC,win,5,left,10,ITC_choice,1041,j,0,0,245,361929,884558
27,18,male,Belgian,2,61,ITC,win,5,left,10,ITC_wait,0,undefined,0,0,245,361926,884561
27,18,male,Belgian,2,61,ITC,win,5,left,10,ITC_collect,747,k,0,0,245,361178,885309
27,18,male,Belgian,2,61,ITC,win,5,left,10,ITC_outcome,0,undefined,0,0,255,360172,886315
27,18,male,Belgian,2,62,guess,neutral,5,right,5,guess_start,357,space,0,0,255,359814,886673
27,18,male,Belgian,2,62,guess,neutral,5,right,5,guess_choice,708,f,0,0,255,359101,887386
27,18,male,Belgian,2,62,guess,neutral,5,right,5,guess_outcome,0,undefined,0,0,255,357545,888942
27,18,male,Belgian,2,62,ITC,neutral,5,right,5,ITC_start,241,space,0,0,255,357303,889184
27,18,male,Belgian,2,62,ITC,neutral,5,right,5,ITC_choice,1021,j,0,0,255,356280,890207
27,18,male,Belgian,2,62,ITC,neutral,5,right,5,ITC_wait,0,undefined,0,0,255,351275,895212
27,18,male,Belgian,2,62,ITC,neutral,5,right,5,ITC_collect,465,k,0,0,255,350807,895680
27,18,male,Belgian,2,62,ITC,neutral,5,right,5,ITC_outcome,0,undefined,0,0,275,349802,896685
27,18,male,Belgian,2,63,guess,win,10,right,6,guess_start,213,space,0,0,275,349586,896901
27,18,male,Belgian,2,63,guess,win,10,right,6,guess_choice,424,j,0,0,275,349160,897327
27,18,male,Belgian,2,63,guess,win,10,right,6,guess_outcome,0,undefined,0,0,295,347595,898892
27,18,male,Belgian,2,63,ITC,win,10,right,6,ITC_start,266,space,0,0,295,347325,899162
27,18,male,Belgian,2,63,ITC,win,10,right,6,ITC_wait,0,undefined,0,0,295,346052,900435
27,18,male,Belgian,2,63,ITC,win,10,right,6,ITC_choice,1267,f,0,0,295,346056,900431
27,18,male,Belgian,2,63,ITC,win,10,right,6,ITC_collect,390,k,0,0,295,345661,900826
27,18,male,Belgian,2,63,ITC,win,10,right,6,ITC_outcome,0,undefined,0,0,301,344655,901832
27,18,male,Belgian,2,64,guess,loss,5,left,7,guess_start,315,space,0,0,301,344337,902150
27,18,male,Belgian,2,64,guess,loss,5,left,7,guess_choice,641,j,0,0,301,343695,902792
27,18,male,Belgian,2,64,guess,loss,5,left,7,guess_outcome,0,undefined,0,0,286,342138,904349
27,18,male,Belgian,2,64,ITC,loss,5,left,7,ITC_start,452,space,0,0,286,341684,904803
27,18,male,Belgian,2,64,ITC,loss,5,left,7,ITC_choice,1092,j,0,0,286,340591,905896
27,18,male,Belgian,2,64,ITC,loss,5,left,7,ITC_wait,0,undefined,0,0,286,340587,905900
27,18,male,Belgian,2,64,ITC,loss,5,left,7,ITC_collect,351,k,0,0,286,340234,906253
27,18,male,Belgian,2,64,ITC,loss,5,left,7,ITC_outcome,0,undefined,0,0,293,339229,907258
27,18,male,Belgian,2,65,guess,neutral,5,right,7,guess_start,412,space,0,0,293,338815,907672
27,18,male,Belgian,2,65,guess,neutral,5,right,7,guess_choice,729,f,0,0,293,338080,908407
27,18,male,Belgian,2,65,guess,neutral,5,right,7,guess_outcome,0,undefined,0,0,293,336522,909965
27,18,male,Belgian,2,65,ITC,neutral,5,right,7,ITC_start,331,space,0,0,293,336189,910298
27,18,male,Belgian,2,65,ITC,neutral,5,right,7,ITC_choice,1299,j,0,0,293,334886,911601
27,18,male,Belgian,2,65,ITC,neutral,5,right,7,ITC_wait,0,undefined,0,0,293,329883,916604
27,18,male,Belgian,2,65,ITC,neutral,5,right,7,ITC_collect,487,k,0,0,293,329394,917093
27,18,male,Belgian,2,65,ITC,neutral,5,right,7,ITC_outcome,0,undefined,0,0,313,328378,918109
27,18,male,Belgian,2,66,guess,win,5,left,8,guess_start,301,space,0,0,313,328076,918411
27,18,male,Belgian,2,66,guess,win,5,left,8,guess_choice,306,j,0,0,313,327765,918722
27,18,male,Belgian,2,66,guess,win,5,left,8,guess_outcome,0,undefined,0,0,333,326207,920280
27,18,male,Belgian,2,66,ITC,win,5,left,8,ITC_start,251,space,0,0,333,325954,920533
27,18,male,Belgian,2,66,ITC,win,5,left,8,ITC_choice,1081,j,0,0,333,324871,921616
27,18,male,Belgian,2,66,ITC,win,5,left,8,ITC_wait,0,undefined,0,0,333,324867,921620
27,18,male,Belgian,2,66,ITC,win,5,left,8,ITC_collect,288,k,0,0,333,324577,921910
27,18,male,Belgian,2,66,ITC,win,5,left,8,ITC_outcome,0,undefined,0,0,341,323569,922918
27,18,male,Belgian,2,67,guess,win,5,right,5,guess_start,332,space,0,0,341,323235,923252
27,18,male,Belgian,2,67,guess,win,5,right,5,guess_choice,473,j,0,0,341,322760,923727
27,18,male,Belgian,2,67,guess,win,5,right,5,guess_outcome,0,undefined,0,0,361,321198,925289
27,18,male,Belgian,2,67,ITC,win,5,right,5,ITC_start,7,space,0,0,361,321188,925299
27,18,male,Belgian,2,67,ITC,win,5,right,5,ITC_choice,913,j,0,0,361,320274,926213
27,18,male,Belgian,2,67,ITC,win,5,right,5,ITC_wait,0,undefined,0,0,361,315268,931219
27,18,male,Belgian,2,67,ITC,win,5,right,5,ITC_collect,392,k,0,0,361,314874,931613
27,18,male,Belgian,2,67,ITC,win,5,right,5,ITC_outcome,0,undefined,0,0,381,313867,932620
27,18,male,Belgian,2,68,guess,neutral,5,left,4,guess_start,489,space,0,0,381,313376,933111
27,18,male,Belgian,2,68,guess,neutral,5,left,4,guess_choice,928,j,0,0,381,312444,934043
27,18,male,Belgian,2,68,guess,neutral,5,left,4,guess_outcome,0,undefined,0,0,381,310875,935612
27,18,male,Belgian,2,68,ITC,neutral,5,left,4,ITC_start,460,space,0,0,381,310414,936073
27,18,male,Belgian,2,68,ITC,neutral,5,left,4,ITC_choice,763,f,0,0,381,309648,936839
27,18,male,Belgian,2,68,ITC,neutral,5,left,4,ITC_wait,0,undefined,0,0,381,304639,941848
27,18,male,Belgian,2,68,ITC,neutral,5,left,4,ITC_collect,687,k,0,0,381,303951,942536
27,18,male,Belgian,2,68,ITC,neutral,5,left,4,ITC_outcome,0,undefined,0,0,401,302945,943542
27,18,male,Belgian,2,69,guess,neutral,5,left,2,guess_start,263,space,0,0,401,302680,943807
27,18,male,Belgian,2,69,guess,neutral,5,left,2,guess_choice,810,f,0,0,401,301866,944621
27,18,male,Belgian,2,69,guess,neutral,5,left,2,guess_outcome,0,undefined,0,0,401,300304,946183
27,18,male,Belgian,2,69,ITC,neutral,5,left,2,ITC_start,367,space,0,0,401,299935,946552
27,18,male,Belgian,2,69,ITC,neutral,5,left,2,ITC_choice,815,f,0,0,401,299118,947369
27,18,male,Belgian,2,69,ITC,neutral,5,left,2,ITC_wait,0,undefined,0,0,401,294115,952372
27,18,male,Belgian,2,69,ITC,neutral,5,left,2,ITC_collect,711,k,0,0,401,293404,953083
27,18,male,Belgian,2,69,ITC,neutral,5,left,2,ITC_outcome,0,undefined,0,0,421,292395,954092
27,18,male,Belgian,2,70,guess,loss,5,right,9,guess_start,150,space,0,0,421,292244,954243
27,18,male,Belgian,2,70,guess,loss,5,right,9,guess_choice,389,j,0,0,421,291852,954635
27,18,male,Belgian,2,70,guess,loss,5,right,9,guess_outcome,0,undefined,0,0,406,290294,956193
27,18,male,Belgian,2,70,ITC,loss,5,right,9,ITC_start,219,space,0,0,406,290074,956413
27,18,male,Belgian,2,70,ITC,loss,5,right,9,ITC_choice,894,f,0,0,406,289179,957308
27,18,male,Belgian,2,70,ITC,loss,5,right,9,ITC_wait,0,undefined,0,0,406,289175,957312
27,18,male,Belgian,2,70,ITC,loss,5,right,9,ITC_collect,862,k,0,0,406,288310,958177
27,18,male,Belgian,2,70,ITC,loss,5,right,9,ITC_outcome,0,undefined,0,0,415,287301,959186
27,18,male,Belgian,2,71,guess,neutral,10,left,7,guess_start,257,space,0,0,415,287042,959445
27,18,male,Belgian,2,71,guess,neutral,10,left,7,guess_choice,677,j,0,0,415,286361,960126
27,18,male,Belgian,2,71,guess,neutral,10,left,7,guess_outcome,0,undefined,0,0,415,284806,961681
27,18,male,Belgian,2,71,ITC,neutral,10,left,7,ITC_start,266,space,0,0,415,284539,961948
27,18,male,Belgian,2,71,ITC,neutral,10,left,7,ITC_choice,951,j,0,0,415,283592,962895
27,18,male,Belgian,2,71,ITC,neutral,10,left,7,ITC_wait,0,undefined,0,0,415,283589,962898
27,18,male,Belgian,2,71,ITC,neutral,10,left,7,ITC_collect,500,k,0,0,415,283088,963399
27,18,male,Belgian,2,71,ITC,neutral,10,left,7,ITC_outcome,0,undefined,0,0,422,282080,964407
27,18,male,Belgian,2,72,guess,loss,5,left,4,guess_start,301,space,0,0,422,281776,964711
27,18,male,Belgian,2,72,guess,loss,5,left,4,guess_choice,452,f,0,0,422,281320,965167
27,18,male,Belgian,2,72,guess,loss,5,left,4,guess_outcome,0,undefined,0,0,407,279759,966728
27,18,male,Belgian,2,72,ITC,loss,5,left,4,ITC_start,35,space,0,0,407,279724,966763
27,18,male,Belgian,2,72,ITC,loss,5,left,4,ITC_choice,877,f,0,0,407,278846,967641
27,18,male,Belgian,2,72,ITC,loss,5,left,4,ITC_wait,0,undefined,0,0,407,273831,972656
27,18,male,Belgian,2,72,ITC,loss,5,left,4,ITC_collect,358,k,0,0,407,273471,973016
27,18,male,Belgian,2,72,ITC,loss,5,left,4,ITC_outcome,0,undefined,0,0,427,272463,974024
27,18,male,Belgian,2,73,guess,win,10,left,6,guess_start,280,space,0,0,427,272181,974306
27,18,male,Belgian,2,73,guess,win,10,left,6,guess_choice,554,j,0,0,427,271622,974865
27,18,male,Belgian,2,73,guess,win,10,left,6,guess_outcome,0,undefined,0,0,447,270050,976437
27,18,male,Belgian,2,73,ITC,win,10,left,6,ITC_start,300,space,0,0,447,269748,976739
27,18,male,Belgian,2,73,ITC,win,10,left,6,ITC_choice,1029,j,0,0,447,268717,977770
27,18,male,Belgian,2,73,ITC,win,10,left,6,ITC_wait,0,undefined,0,0,447,268713,977774
27,18,male,Belgian,2,73,ITC,win,10,left,6,ITC_collect,309,k,0,0,447,268402,978085
27,18,male,Belgian,2,73,ITC,win,10,left,6,ITC_outcome,0,undefined,0,0,453,267390,979097
27,18,male,Belgian,2,74,guess,win,10,left,5,guess_start,249,space,0,0,453,267138,979349
27,18,male,Belgian,2,74,guess,win,10,left,5,guess_choice,549,f,0,0,453,266585,979902
27,18,male,Belgian,2,74,guess,win,10,left,5,guess_outcome,0,undefined,0,0,473,265020,981467
27,18,male,Belgian,2,74,ITC,win,10,left,5,ITC_start,259,space,0,0,473,264759,981728
27,18,male,Belgian,2,74,ITC,win,10,left,5,ITC_choice,893,j,0,0,473,263863,982624
27,18,male,Belgian,2,74,ITC,win,10,left,5,ITC_wait,0,undefined,0,0,473,263861,982626
27,18,male,Belgian,2,74,ITC,win,10,left,5,ITC_collect,288,k,0,0,473,263571,982916
27,18,male,Belgian,2,74,ITC,win,10,left,5,ITC_outcome,0,undefined,0,0,478,262560,983927
27,18,male,Belgian,2,75,guess,neutral,5,right,12,guess_start,325,space,0,0,478,262233,984254
27,18,male,Belgian,2,75,guess,neutral,5,right,12,guess_choice,368,j,0,0,478,261861,984626
27,18,male,Belgian,2,75,guess,neutral,5,right,12,guess_outcome,0,undefined,0,0,478,260300,986187
27,18,male,Belgian,2,75,ITC,neutral,5,right,12,ITC_start,481,space,0,0,478,259817,986670
27,18,male,Belgian,2,75,ITC,neutral,5,right,12,ITC_choice,843,f,0,0,478,258973,987514
27,18,male,Belgian,2,75,ITC,neutral,5,right,12,ITC_wait,0,undefined,0,0,478,258971,987516
27,18,male,Belgian,2,75,ITC,neutral,5,right,12,ITC_collect,453,k,0,0,478,258516,987971
27,18,male,Belgian,2,75,ITC,neutral,5,right,12,ITC_outcome,0,undefined,0,0,490,257514,988973
27,18,male,Belgian,2,76,guess,loss,10,right,6,guess_start,275,space,0,0,490,257237,989250
27,18,male,Belgian,2,76,guess,loss,10,right,6,guess_choice,525,f,0,0,490,256708,989779
27,18,male,Belgian,2,76,guess,loss,10,right,6,guess_outcome,0,undefined,0,0,475,255146,991341
27,18,male,Belgian,2,76,ITC,loss,10,right,6,ITC_start,168,space,0,0,475,254975,991512
27,18,male,Belgian,2,76,ITC,loss,10,right,6,ITC_choice,1271,f,0,0,475,253703,992784
27,18,male,Belgian,2,76,ITC,loss,10,right,6,ITC_wait,0,undefined,0,0,475,253700,992787
27,18,male,Belgian,2,76,ITC,loss,10,right,6,ITC_collect,462,k,0,0,475,253236,993251
27,18,male,Belgian,2,76,ITC,loss,10,right,6,ITC_outcome,0,undefined,0,0,481,252230,994257
27,18,male,Belgian,2,77,guess,neutral,5,right,2,guess_start,297,space,0,0,481,251929,994558
27,18,male,Belgian,2,77,guess,neutral,5,right,2,guess_choice,626,f,0,0,481,251299,995188
27,18,male,Belgian,2,77,guess,neutral,5,right,2,guess_outcome,0,undefined,0,0,481,249740,996747
27,18,male,Belgian,2,77,ITC,neutral,5,right,2,ITC_start,293,space,0,0,481,249445,997042
27,18,male,Belgian,2,77,ITC,neutral,5,right,2,ITC_choice,807,j,0,0,481,248636,997851
27,18,male,Belgian,2,77,ITC,neutral,5,right,2,ITC_wait,0,undefined,0,0,481,243630,1002857
27,18,male,Belgian,2,77,ITC,neutral,5,right,2,ITC_collect,251,k,0,0,481,243377,1003110
27,18,male,Belgian,2,77,ITC,neutral,5,right,2,ITC_outcome,0,undefined,0,0,501,242370,1004117
27,18,male,Belgian,2,78,guess,loss,10,left,2,guess_start,251,space,0,0,501,242115,1004372
27,18,male,Belgian,2,78,guess,loss,10,left,2,guess_choice,295,j,0,0,501,241816,1004671
27,18,male,Belgian,2,78,guess,loss,10,left,2,guess_outcome,0,undefined,0,0,486,240255,1006232
27,18,male,Belgian,2,78,ITC,loss,10,left,2,ITC_start,267,space,0,0,486,239987,1006500
27,18,male,Belgian,2,78,ITC,loss,10,left,2,ITC_choice,1319,f,0,0,486,238666,1007821
27,18,male,Belgian,2,78,ITC,loss,10,left,2,ITC_wait,0,undefined,0,0,486,228657,1017830
27,18,male,Belgian,2,78,ITC,loss,10,left,2,ITC_collect,407,k,0,0,486,228248,1018239
27,18,male,Belgian,2,78,ITC,loss,10,left,2,ITC_outcome,0,undefined,0,0,506,227237,1019250
27,18,male,Belgian,2,79,guess,win,10,right,4,guess_start,179,space,0,0,506,227056,1019431
27,18,male,Belgian,2,79,guess,win,10,right,4,guess_choice,486,j,0,0,506,226566,1019921
27,18,male,Belgian,2,79,guess,win,10,right,4,guess_outcome,0,undefined,0,0,526,225008,1021479
27,18,male,Belgian,2,79,ITC,win,10,right,4,ITC_start,119,space,0,0,526,224889,1021598
27,18,male,Belgian,2,79,ITC,win,10,right,4,ITC_choice,789,j,0,0,526,224096,1022391
27,18,male,Belgian,2,79,ITC,win,10,right,4,ITC_wait,0,undefined,0,0,526,214072,1032415
27,18,male,Belgian,2,79,ITC,win,10,right,4,ITC_collect,597,k,0,0,526,213472,1033015
27,18,male,Belgian,2,79,ITC,win,10,right,4,ITC_outcome,0,undefined,0,0,546,212466,1034021
27,18,male,Belgian,2,80,guess,loss,5,right,3,guess_start,248,space,0,0,546,212216,1034271
27,18,male,Belgian,2,80,guess,loss,5,right,3,guess_choice,296,f,0,0,546,211917,1034570
27,18,male,Belgian,2,80,guess,loss,5,right,3,guess_outcome,0,undefined,0,0,531,210352,1036135
27,18,male,Belgian,2,80,ITC,loss,5,right,3,ITC_start,40,space,0,0,531,210311,1036176
27,18,male,Belgian,2,80,ITC,loss,5,right,3,ITC_choice,733,j,0,0,531,209576,1036911
27,18,male,Belgian,2,80,ITC,loss,5,right,3,ITC_wait,0,undefined,0,0,531,204567,1041920
27,18,male,Belgian,2,80,ITC,loss,5,right,3,ITC_collect,633,k,0,0,531,203933,1042554
27,18,male,Belgian,2,80,ITC,loss,5,right,3,ITC_outcome,0,undefined,0,0,551,202916,1043571
27,18,male,Belgian,2,81,guess,neutral,5,left,4,guess_start,194,space,0,0,551,202720,1043767
27,18,male,Belgian,2,81,guess,neutral,5,left,4,guess_choice,361,j,0,0,551,202354,1044133
27,18,male,Belgian,2,81,guess,neutral,5,left,4,guess_outcome,0,undefined,0,0,551,200790,1045697
27,18,male,Belgian,2,81,ITC,neutral,5,left,4,ITC_start,186,space,0,0,551,200602,1045885
27,18,male,Belgian,2,81,ITC,neutral,5,left,4,ITC_choice,800,f,0,0,551,199800,1046687
27,18,male,Belgian,2,81,ITC,neutral,5,left,4,ITC_wait,0,undefined,0,0,551,194796,1051691
27,18,male,Belgian,2,81,ITC,neutral,5,left,4,ITC_collect,696,k,0,0,551,194096,1052391
27,18,male,Belgian,2,81,ITC,neutral,5,left,4,ITC_outcome,0,undefined,0,0,571,193086,1053401
27,18,male,Belgian,2,82,guess,win,5,left,6,guess_start,206,space,0,0,571,192877,1053610
27,18,male,Belgian,2,82,guess,win,5,left,6,guess_choice,421,j,0,0,571,192453,1054034
27,18,male,Belgian,2,82,guess,win,5,left,6,guess_outcome,0,undefined,0,0,591,190897,1055590
27,18,male,Belgian,2,82,ITC,win,5,left,6,ITC_start,292,space,0,0,591,190604,1055883
27,18,male,Belgian,2,82,ITC,win,5,left,6,ITC_choice,678,f,0,0,591,189923,1056564
27,18,male,Belgian,2,82,ITC,win,5,left,6,ITC_wait,0,undefined,0,0,591,184916,1061571
27,18,male,Belgian,2,82,ITC,win,5,left,6,ITC_collect,450,k,0,0,591,184464,1062023
27,18,male,Belgian,2,82,ITC,win,5,left,6,ITC_outcome,0,undefined,0,0,611,183456,1063031
27,18,male,Belgian,2,83,guess,loss,5,left,8,guess_start,255,space,0,0,611,183198,1063289
27,18,male,Belgian,2,83,guess,loss,5,left,8,guess_choice,507,f,0,0,611,182688,1063799
27,18,male,Belgian,2,83,guess,loss,5,left,8,guess_outcome,0,undefined,0,0,596,181116,1065371
27,18,male,Belgian,2,83,ITC,loss,5,left,8,ITC_start,158,space,0,0,596,180956,1065531
27,18,male,Belgian,2,83,ITC,loss,5,left,8,ITC_choice,1149,f,0,0,596,179804,1066683
27,18,male,Belgian,2,83,ITC,loss,5,left,8,ITC_wait,0,undefined,0,0,596,174787,1071700
27,18,male,Belgian,2,83,ITC,loss,5,left,8,ITC_collect,499,k,0,0,596,174286,1072201
27,18,male,Belgian,2,83,ITC,loss,5,left,8,ITC_outcome,0,undefined,0,0,616,173276,1073211
27,18,male,Belgian,2,84,guess,loss,5,left,7,guess_start,142,space,0,0,616,173131,1073356
27,18,male,Belgian,2,84,guess,loss,5,left,7,guess_choice,452,j,0,0,616,172675,1073812
27,18,male,Belgian,2,84,guess,loss,5,left,7,guess_outcome,0,undefined,0,0,601,171114,1075373
27,18,male,Belgian,2,84,ITC,loss,5,left,7,ITC_start,267,space,0,0,601,170844,1075643
27,18,male,Belgian,2,84,ITC,loss,5,left,7,ITC_choice,726,f,0,0,601,170116,1076371
27,18,male,Belgian,2,84,ITC,loss,5,left,7,ITC_wait,0,undefined,0,0,601,165106,1081381
27,18,male,Belgian,2,84,ITC,loss,5,left,7,ITC_collect,381,k,0,0,601,164722,1081765
27,18,male,Belgian,2,84,ITC,loss,5,left,7,ITC_outcome,0,undefined,0,0,621,163706,1082781
27,18,male,Belgian,2,85,guess,neutral,5,right,1,guess_start,572,space,0,0,621,163132,1083355
27,18,male,Belgian,2,85,guess,neutral,5,right,1,guess_choice,983,j,0,0,621,162145,1084342
27,18,male,Belgian,2,85,guess,neutral,5,right,1,guess_outcome,0,undefined,0,0,621,160586,1085901
27,18,male,Belgian,2,85,ITC,neutral,5,right,1,ITC_start,581,space,0,0,621,160003,1086484
27,18,male,Belgian,2,85,ITC,neutral,5,right,1,ITC_choice,687,j,0,0,621,159314,1087173
27,18,male,Belgian,2,85,ITC,neutral,5,right,1,ITC_wait,0,undefined,0,0,621,154307,1092180
27,18,male,Belgian,2,85,ITC,neutral,5,right,1,ITC_collect,535,k,0,0,621,153771,1092716
27,18,male,Belgian,2,85,ITC,neutral,5,right,1,ITC_outcome,0,undefined,0,0,641,152766,1093721
27,18,male,Belgian,2,86,guess,neutral,10,right,3,guess_start,457,space,0,0,641,152307,1094180
27,18,male,Belgian,2,86,guess,neutral,10,right,3,guess_choice,471,j,0,0,641,151831,1094656
27,18,male,Belgian,2,86,guess,neutral,10,right,3,guess_outcome,0,undefined,0,0,641,150276,1096211
27,18,male,Belgian,2,86,ITC,neutral,10,right,3,ITC_start,251,space,0,0,641,150024,1096463
27,18,male,Belgian,2,86,ITC,neutral,10,right,3,ITC_choice,801,j,0,0,641,149221,1097266
27,18,male,Belgian,2,86,ITC,neutral,10,right,3,ITC_wait,0,undefined,0,0,641,139212,1107275
27,18,male,Belgian,2,86,ITC,neutral,10,right,3,ITC_collect,585,k,0,0,641,138626,1107861
27,18,male,Belgian,2,86,ITC,neutral,10,right,3,ITC_outcome,0,undefined,0,0,661,137613,1108874
27,18,male,Belgian,2,87,guess,win,10,left,7,guess_start,116,space,0,0,661,137495,1108992
27,18,male,Belgian,2,87,guess,win,10,left,7,guess_choice,550,f,0,0,661,136942,1109545
27,18,male,Belgian,2,87,guess,win,10,left,7,guess_outcome,0,undefined,0,0,681,135383,1111104
27,18,male,Belgian,2,87,ITC,win,10,left,7,ITC_start,114,space,0,0,681,135267,1111220
27,18,male,Belgian,2,87,ITC,win,10,left,7,ITC_choice,814,j,0,0,681,134452,1112035
27,18,male,Belgian,2,87,ITC,win,10,left,7,ITC_wait,0,undefined,0,0,681,134450,1112037
27,18,male,Belgian,2,87,ITC,win,10,left,7,ITC_collect,390,k,0,0,681,134059,1112428
27,18,male,Belgian,2,87,ITC,win,10,left,7,ITC_outcome,0,undefined,0,0,688,133050,1113437
27,18,male,Belgian,2,88,guess,neutral,10,left,7,guess_start,217,space,0,0,688,132832,1113655
27,18,male,Belgian,2,88,guess,neutral,10,left,7,guess_choice,303,j,0,0,688,132527,1113960
27,18,male,Belgian,2,88,guess,neutral,10,left,7,guess_outcome,0,undefined,0,0,688,130973,1115514
27,18,male,Belgian,2,88,ITC,neutral,10,left,7,ITC_start,83,space,0,0,688,130888,1115599
27,18,male,Belgian,2,88,ITC,neutral,10,left,7,ITC_choice,686,j,0,0,688,130201,1116286
27,18,male,Belgian,2,88,ITC,neutral,10,left,7,ITC_wait,0,undefined,0,0,688,130197,1116290
27,18,male,Belgian,2,88,ITC,neutral,10,left,7,ITC_collect,214,k,0,0,688,129981,1116506
27,18,male,Belgian,2,88,ITC,neutral,10,left,7,ITC_outcome,0,undefined,0,0,695,128974,1117513
27,18,male,Belgian,2,89,guess,win,5,right,8,guess_start,255,space,0,0,695,128717,1117770
27,18,male,Belgian,2,89,guess,win,5,right,8,guess_choice,468,j,0,0,695,128247,1118240
27,18,male,Belgian,2,89,guess,win,5,right,8,guess_outcome,0,undefined,0,0,715,126687,1119800
27,18,male,Belgian,2,89,ITC,win,5,right,8,ITC_start,151,space,0,0,715,126532,1119955
27,18,male,Belgian,2,89,ITC,win,5,right,8,ITC_choice,912,f,0,0,715,125618,1120869
27,18,male,Belgian,2,89,ITC,win,5,right,8,ITC_wait,0,undefined,0,0,715,125615,1120872
27,18,male,Belgian,2,89,ITC,win,5,right,8,ITC_collect,344,k,0,0,715,125269,1121218
27,18,male,Belgian,2,89,ITC,win,5,right,8,ITC_outcome,0,undefined,0,0,723,124263,1122224
27,18,male,Belgian,2,90,guess,neutral,5,left,6,guess_start,230,space,0,0,723,124030,1122457
27,18,male,Belgian,2,90,guess,neutral,5,left,6,guess_choice,549,j,0,0,723,123478,1123009
27,18,male,Belgian,2,90,guess,neutral,5,left,6,guess_outcome,0,undefined,0,0,723,121923,1124564
27,18,male,Belgian,2,90,ITC,neutral,5,left,6,ITC_start,3,space,0,0,723,121918,1124569
27,18,male,Belgian,2,90,ITC,neutral,5,left,6,ITC_choice,947,f,0,0,723,120970,1125517
27,18,male,Belgian,2,90,ITC,neutral,5,left,6,ITC_wait,0,undefined,0,0,723,115954,1130533
27,18,male,Belgian,2,90,ITC,neutral,5,left,6,ITC_collect,588,k,0,0,723,115364,1131123
27,18,male,Belgian,2,90,ITC,neutral,5,left,6,ITC_outcome,0,undefined,0,0,743,114353,1132134
27,18,male,Belgian,2,91,guess,win,5,left,11,guess_start,286,space,0,0,743,114065,1132422
27,18,male,Belgian,2,91,guess,win,5,left,11,guess_choice,536,j,0,0,743,113526,1132961
27,18,male,Belgian,2,91,guess,win,5,left,11,guess_outcome,0,undefined,0,0,763,111964,1134523
27,18,male,Belgian,2,91,ITC,win,5,left,11,ITC_start,257,space,0,0,763,111705,1134782
27,18,male,Belgian,2,91,ITC,win,5,left,11,ITC_choice,1773,j,0,0,763,109929,1136558
27,18,male,Belgian,2,91,ITC,win,5,left,11,ITC_wait,0,undefined,0,0,763,109926,1136561
27,18,male,Belgian,2,91,ITC,win,5,left,11,ITC_collect,334,k,0,0,763,109590,1136897
27,18,male,Belgian,2,91,ITC,win,5,left,11,ITC_outcome,0,undefined,0,0,774,108583,1137904
27,18,male,Belgian,2,92,guess,neutral,10,left,6,guess_start,238,space,0,0,774,108343,1138144
27,18,male,Belgian,2,92,guess,neutral,10,left,6,guess_choice,650,f,0,0,774,107689,1138798
27,18,male,Belgian,2,92,guess,neutral,10,left,6,guess_outcome,0,undefined,0,0,774,106134,1140353
27,18,male,Belgian,2,92,ITC,neutral,10,left,6,ITC_start,231,space,0,0,774,105901,1140586
27,18,male,Belgian,2,92,ITC,neutral,10,left,6,ITC_choice,759,j,0,0,774,105140,1141347
27,18,male,Belgian,2,92,ITC,neutral,10,left,6,ITC_wait,0,undefined,0,0,774,105137,1141350
27,18,male,Belgian,2,92,ITC,neutral,10,left,6,ITC_collect,230,k,0,0,774,104906,1141581
27,18,male,Belgian,2,92,ITC,neutral,10,left,6,ITC_outcome,0,undefined,0,0,780,103903,1142584
27,18,male,Belgian,2,93,guess,win,5,left,2,guess_start,393,space,0,0,780,103507,1142980
27,18,male,Belgian,2,93,guess,win,5,left,2,guess_choice,458,j,0,0,780,103045,1143442
27,18,male,Belgian,2,93,guess,win,5,left,2,guess_outcome,0,undefined,0,0,800,101483,1145004
27,18,male,Belgian,2,93,ITC,win,5,left,2,ITC_start,315,space,0,0,800,101166,1145321
27,18,male,Belgian,2,93,ITC,win,5,left,2,ITC_choice,878,f,0,0,800,100286,1146201
27,18,male,Belgian,2,93,ITC,win,5,left,2,ITC_wait,0,undefined,0,0,800,95280,1151207
27,18,male,Belgian,2,93,ITC,win,5,left,2,ITC_collect,515,k,0,0,800,94763,1151724
27,18,male,Belgian,2,93,ITC,win,5,left,2,ITC_outcome,0,undefined,0,0,820,93753,1152734
27,18,male,Belgian,2,94,guess,loss,5,left,11,guess_start,197,space,0,0,820,93553,1152934
27,18,male,Belgian,2,94,guess,loss,5,left,11,guess_choice,541,f,0,0,820,93008,1153479
27,18,male,Belgian,2,94,guess,loss,5,left,11,guess_outcome,0,undefined,0,0,805,91443,1155044
27,18,male,Belgian,2,94,ITC,loss,5,left,11,ITC_start,118,space,0,0,805,91322,1155165
27,18,male,Belgian,2,94,ITC,loss,5,left,11,ITC_choice,967,f,0,0,805,90353,1156134
27,18,male,Belgian,2,94,ITC,loss,5,left,11,ITC_wait,0,undefined,0,0,805,85343,1161144
27,18,male,Belgian,2,94,ITC,loss,5,left,11,ITC_collect,371,k,0,0,805,84971,1161516
27,18,male,Belgian,2,94,ITC,loss,5,left,11,ITC_outcome,0,undefined,0,0,825,83965,1162522
27,18,male,Belgian,2,95,guess,loss,5,left,15,guess_start,145,space,0,0,825,83818,1162669
27,18,male,Belgian,2,95,guess,loss,5,left,15,guess_choice,326,j,0,0,825,83487,1163000
27,18,male,Belgian,2,95,guess,loss,5,left,15,guess_outcome,0,undefined,0,0,810,81923,1164564
27,18,male,Belgian,2,95,ITC,loss,5,left,15,ITC_start,228,space,0,0,810,81692,1164795
27,18,male,Belgian,2,95,ITC,loss,5,left,15,ITC_choice,1388,j,0,0,810,80302,1166185
27,18,male,Belgian,2,95,ITC,loss,5,left,15,ITC_wait,0,undefined,0,0,810,80300,1166187
27,18,male,Belgian,2,95,ITC,loss,5,left,15,ITC_collect,261,k,0,0,810,80038,1166449
27,18,male,Belgian,2,95,ITC,loss,5,left,15,ITC_outcome,0,undefined,0,0,825,79033,1167454
27,18,male,Belgian,2,96,guess,loss,10,left,4,guess_start,223,space,0,0,825,78807,1167680
27,18,male,Belgian,2,96,guess,loss,10,left,4,guess_choice,507,f,0,0,825,78295,1168192
27,18,male,Belgian,2,96,guess,loss,10,left,4,guess_outcome,0,undefined,0,0,810,76733,1169754
27,18,male,Belgian,2,96,ITC,loss,10,left,4,ITC_start,181,space,0,0,810,76549,1169938
27,18,male,Belgian,2,96,ITC,loss,10,left,4,ITC_choice,1112,j,0,0,810,75436,1171051
27,18,male,Belgian,2,96,ITC,loss,10,left,4,ITC_wait,0,undefined,0,0,810,75433,1171054
27,18,male,Belgian,2,96,ITC,loss,10,left,4,ITC_collect,197,k,0,0,810,75234,1171253
27,18,male,Belgian,2,96,ITC,loss,10,left,4,ITC_outcome,0,undefined,0,0,814,74223,1172264
27,18,male,Belgian,2,97,guess,win,5,left,13,guess_start,209,space,0,0,814,74012,1172475
27,18,male,Belgian,2,97,guess,win,5,left,13,guess_choice,411,j,0,0,814,73598,1172889
27,18,male,Belgian,2,97,guess,win,5,left,13,guess_outcome,0,undefined,0,0,834,72043,1174444
27,18,male,Belgian,2,97,ITC,win,5,left,13,ITC_start,265,space,0,0,834,71777,1174710
27,18,male,Belgian,2,97,ITC,win,5,left,13,ITC_choice,1079,j,0,0,834,70695,1175792
27,18,male,Belgian,2,97,ITC,win,5,left,13,ITC_wait,0,undefined,0,0,834,70691,1175796
27,18,male,Belgian,2,97,ITC,win,5,left,13,ITC_collect,286,k,0,0,834,70403,1176084
27,18,male,Belgian,2,97,ITC,win,5,left,13,ITC_outcome,0,undefined,0,0,847,69393,1177094
27,18,male,Belgian,2,98,guess,loss,10,left,3,guess_start,240,space,0,0,847,69152,1177335
27,18,male,Belgian,2,98,guess,loss,10,left,3,guess_choice,396,j,0,0,847,68752,1177735
27,18,male,Belgian,2,98,guess,loss,10,left,3,guess_outcome,0,undefined,0,0,832,67187,1179300
27,18,male,Belgian,2,98,ITC,loss,10,left,3,ITC_start,48,space,0,0,832,67137,1179350
27,18,male,Belgian,2,98,ITC,loss,10,left,3,ITC_choice,1474,f,0,0,832,65661,1180826
27,18,male,Belgian,2,98,ITC,loss,10,left,3,ITC_wait,0,undefined,0,0,832,55656,1190831
27,18,male,Belgian,2,98,ITC,loss,10,left,3,ITC_collect,346,k,0,0,832,55308,1191179
27,18,male,Belgian,2,98,ITC,loss,10,left,3,ITC_outcome,0,undefined,0,0,852,54291,1192196
27,18,male,Belgian,2,99,guess,win,5,right,5,guess_start,543,space,0,0,852,53745,1192742
27,18,male,Belgian,2,99,guess,win,5,right,5,guess_choice,502,f,0,0,852,53238,1193249
27,18,male,Belgian,2,99,guess,win,5,right,5,guess_outcome,0,undefined,0,0,872,51683,1194804
27,18,male,Belgian,2,99,ITC,win,5,right,5,ITC_start,88,space,0,0,872,51593,1194894
27,18,male,Belgian,2,99,ITC,win,5,right,5,ITC_choice,797,j,0,0,872,50794,1195693
27,18,male,Belgian,2,99,ITC,win,5,right,5,ITC_wait,0,undefined,0,0,872,45784,1200703
27,18,male,Belgian,2,99,ITC,win,5,right,5,ITC_collect,368,k,0,0,872,45415,1201072
27,18,male,Belgian,2,99,ITC,win,5,right,5,ITC_outcome,0,undefined,0,0,892,44403,1202084
27,18,male,Belgian,2,100,guess,loss,5,right,2,guess_start,132,space,0,0,892,44270,1202217
27,18,male,Belgian,2,100,guess,loss,5,right,2,guess_choice,272,j,0,0,892,43994,1202493
27,18,male,Belgian,2,100,guess,loss,5,right,2,guess_outcome,0,undefined,0,0,877,42433,1204054
27,18,male,Belgian,2,100,ITC,loss,5,right,2,ITC_start,181,space,0,0,877,42250,1204237
27,18,male,Belgian,2,100,ITC,loss,5,right,2,ITC_choice,1143,j,0,0,877,41106,1205381
27,18,male,Belgian,2,100,ITC,loss,5,right,2,ITC_wait,0,undefined,0,0,877,36093,1210394
27,18,male,Belgian,2,100,ITC,loss,5,right,2,ITC_collect,429,k,0,0,877,35661,1210826
27,18,male,Belgian,2,100,ITC,loss,5,right,2,ITC_outcome,0,undefined,0,0,897,34649,1211838
27,18,male,Belgian,2,101,guess,win,5,right,16,guess_start,352,space,0,0,897,34294,1212193
27,18,male,Belgian,2,101,guess,win,5,right,16,guess_choice,180,f,0,0,897,34112,1212375
27,18,male,Belgian,2,101,guess,win,5,right,16,guess_outcome,0,undefined,0,0,917,32543,1213944
27,18,male,Belgian,2,101,ITC,win,5,right,16,ITC_start,184,space,0,0,917,32356,1214131
27,18,male,Belgian,2,101,ITC,win,5,right,16,ITC_choice,764,f,0,0,917,31590,1214897
27,18,male,Belgian,2,101,ITC,win,5,right,16,ITC_wait,0,undefined,0,0,917,31588,1214899
27,18,male,Belgian,2,101,ITC,win,5,right,16,ITC_collect,188,k,0,0,917,31399,1215088
27,18,male,Belgian,2,101,ITC,win,5,right,16,ITC_outcome,0,undefined,0,0,933,30393,1216094
27,18,male,Belgian,2,102,guess,loss,5,left,1,guess_start,221,space,0,0,933,30170,1216317
27,18,male,Belgian,2,102,guess,loss,5,left,1,guess_choice,448,j,0,0,933,29717,1216770
27,18,male,Belgian,2,102,guess,loss,5,left,1,guess_outcome,0,undefined,0,0,918,28148,1218339
27,18,male,Belgian,2,102,ITC,loss,5,left,1,ITC_start,75,space,0,0,918,28072,1218415
27,18,male,Belgian,2,102,ITC,loss,5,left,1,ITC_choice,1162,f,0,0,918,26908,1219579
27,18,male,Belgian,2,102,ITC,loss,5,left,1,ITC_wait,0,undefined,0,0,918,21902,1224585
27,18,male,Belgian,2,102,ITC,loss,5,left,1,ITC_collect,721,k,0,0,918,21178,1225309
27,18,male,Belgian,2,102,ITC,loss,5,left,1,ITC_outcome,0,undefined,0,0,938,20174,1226313
27,18,male,Belgian,2,103,guess,loss,10,right,1,guess_start,248,space,0,0,938,19923,1226564
27,18,male,Belgian,2,103,guess,loss,10,right,1,guess_choice,210,j,0,0,938,19709,1226778
27,18,male,Belgian,2,103,guess,loss,10,right,1,guess_outcome,0,undefined,0,0,923,18154,1228333
27,18,male,Belgian,2,103,ITC,loss,10,right,1,ITC_start,114,space,0,0,923,18038,1228449
27,18,male,Belgian,2,103,ITC,loss,10,right,1,ITC_choice,878,j,0,0,923,17159,1229328
27,18,male,Belgian,2,103,ITC,loss,10,right,1,ITC_wait,0,undefined,0,0,923,7156,1239331
27,18,male,Belgian,2,103,ITC,loss,10,right,1,ITC_collect,395,k,0,0,923,6758,1239729
27,18,male,Belgian,2,103,ITC,loss,10,right,1,ITC_outcome,0,undefined,0,0,943,5754,1240733
27,18,male,Belgian,2,104,guess,neutral,10,right,1,guess_start,215,space,0,0,943,5539,1240948
27,18,male,Belgian,2,104,guess,neutral,10,right,1,guess_choice,208,j,0,0,943,5329,1241158
27,18,male,Belgian,2,104,guess,neutral,10,right,1,guess_outcome,0,undefined,0,0,943,3774,1242713
27,18,male,Belgian,2,104,ITC,neutral,10,right,1,ITC_start,257,space,0,0,943,3515,1242972
27,18,male,Belgian,2,104,ITC,neutral,10,right,1,ITC_choice,905,j,0,0,943,2609,1243878
27,18,male,Belgian,2,104,ITC,neutral,10,right,1,ITC_wait,0,undefined,0,0,943,-5,1246492
27,18,male,Belgian,3,105,guess,loss,5,left,13,guess_start,1548,space,0,0,0,478452,1269521
27,18,male,Belgian,3,105,guess,loss,5,left,13,guess_choice,539,j,0,0,0,477910,1270063
27,18,male,Belgian,3,105,guess,loss,5,left,13,guess_outcome,0,undefined,0,0,-15,476353,1271620
27,18,male,Belgian,3,105,ITC,loss,5,left,13,ITC_start,77,space,0,0,-15,476275,1271698
27,18,male,Belgian,3,105,ITC,loss,5,left,13,ITC_choice,1748,j,0,0,-15,474530,1273443
27,18,male,Belgian,3,105,ITC,loss,5,left,13,ITC_wait,0,undefined,0,0,-15,474526,1273447
27,18,male,Belgian,3,105,ITC,loss,5,left,13,ITC_collect,287,k,0,0,-15,474237,1273736
27,18,male,Belgian,3,105,ITC,loss,5,left,13,ITC_outcome,0,undefined,0,0,-2,473230,1274743
27,18,male,Belgian,3,106,guess,neutral,5,right,8,guess_start,187,space,0,0,-2,473040,1274933
27,18,male,Belgian,3,106,guess,neutral,5,right,8,guess_choice,961,f,0,0,-2,472077,1275896
27,18,male,Belgian,3,106,guess,neutral,5,right,8,guess_outcome,0,undefined,0,0,-2,470520,1277453
27,18,male,Belgian,3,106,ITC,neutral,5,right,8,ITC_start,68,space,0,0,-2,470450,1277523
27,18,male,Belgian,3,106,ITC,neutral,5,right,8,ITC_choice,666,f,0,0,-2,469783,1278190
27,18,male,Belgian,3,106,ITC,neutral,5,right,8,ITC_wait,0,undefined,0,0,-2,469780,1278193
27,18,male,Belgian,3,106,ITC,neutral,5,right,8,ITC_collect,239,k,0,0,-2,469539,1278434
27,18,male,Belgian,3,106,ITC,neutral,5,right,8,ITC_outcome,0,undefined,0,0,6,468528,1279445
27,18,male,Belgian,3,107,guess,loss,5,left,14,guess_start,232,space,0,0,6,468294,1279679
27,18,male,Belgian,3,107,guess,loss,5,left,14,guess_choice,685,f,0,0,6,467606,1280367
27,18,male,Belgian,3,107,guess,loss,5,left,14,guess_outcome,0,undefined,0,0,-9,466050,1281923
27,18,male,Belgian,3,107,ITC,loss,5,left,14,ITC_start,15,space,0,0,-9,466034,1281939
27,18,male,Belgian,3,107,ITC,loss,5,left,14,ITC_choice,860,f,0,0,-9,465172,1282801
27,18,male,Belgian,3,107,ITC,loss,5,left,14,ITC_wait,0,undefined,0,0,-9,460159,1287814
27,18,male,Belgian,3,107,ITC,loss,5,left,14,ITC_collect,864,k,0,0,-9,459294,1288679
27,18,male,Belgian,3,107,ITC,loss,5,left,14,ITC_outcome,0,undefined,0,0,11,458288,1289685
27,18,male,Belgian,3,108,guess,neutral,5,right,11,guess_start,196,space,0,0,11,458089,1289884
27,18,male,Belgian,3,108,guess,neutral,5,right,11,guess_choice,178,j,0,0,11,457907,1290066
27,18,male,Belgian,3,108,guess,neutral,5,right,11,guess_outcome,0,undefined,0,0,11,456355,1291618
27,18,male,Belgian,3,108,ITC,neutral,5,right,11,ITC_start,128,space,0,0,11,456226,1291747
27,18,male,Belgian,3,108,ITC,neutral,5,right,11,ITC_choice,804,f,0,0,11,455421,1292552
27,18,male,Belgian,3,108,ITC,neutral,5,right,11,ITC_wait,0,undefined,0,0,11,455418,1292555
27,18,male,Belgian,3,108,ITC,neutral,5,right,11,ITC_collect,165,k,0,0,11,455252,1292721
27,18,male,Belgian,3,108,ITC,neutral,5,right,11,ITC_outcome,0,undefined,0,0,22,454238,1293735
27,18,male,Belgian,3,109,guess,win,5,left,1,guess_start,164,space,0,0,22,454072,1293901
27,18,male,Belgian,3,109,guess,win,5,left,1,guess_choice,508,f,0,0,22,453559,1294414
27,18,male,Belgian,3,109,guess,win,5,left,1,guess_outcome,0,undefined,0,0,42,451998,1295975
27,18,male,Belgian,3,109,ITC,win,5,left,1,ITC_start,534,space,0,0,42,451463,1296510
27,18,male,Belgian,3,109,ITC,win,5,left,1,ITC_choice,766,j,0,0,42,450694,1297279
27,18,male,Belgian,3,109,ITC,win,5,left,1,ITC_wait,0,undefined,0,0,42,450692,1297281
27,18,male,Belgian,3,109,ITC,win,5,left,1,ITC_collect,677,k,0,0,42,450015,1297958
27,18,male,Belgian,3,109,ITC,win,5,left,1,ITC_outcome,0,undefined,0,0,43,449009,1298964
27,18,male,Belgian,3,110,guess,win,10,right,3,guess_start,105,space,0,0,43,448903,1299070
27,18,male,Belgian,3,110,guess,win,10,right,3,guess_choice,492,j,0,0,43,448406,1299567
27,18,male,Belgian,3,110,guess,win,10,right,3,guess_outcome,0,undefined,0,0,63,446848,1301125
27,18,male,Belgian,3,110,ITC,win,10,right,3,ITC_start,375,space,0,0,63,446470,1301503
27,18,male,Belgian,3,110,ITC,win,10,right,3,ITC_choice,818,j,0,0,63,445650,1302323
27,18,male,Belgian,3,110,ITC,win,10,right,3,ITC_wait,0,undefined,0,0,63,435646,1312327
27,18,male,Belgian,3,110,ITC,win,10,right,3,ITC_collect,1054,k,0,0,63,434590,1313383
27,18,male,Belgian,3,110,ITC,win,10,right,3,ITC_outcome,0,undefined,0,0,83,433577,1314396
27,18,male,Belgian,3,111,guess,win,5,left,9,guess_start,393,space,0,0,83,433182,1314791
27,18,male,Belgian,3,111,guess,win,5,left,9,guess_choice,447,j,0,0,83,432734,1315239
27,18,male,Belgian,3,111,guess,win,5,left,9,guess_outcome,0,undefined,0,0,103,431172,1316801
27,18,male,Belgian,3,111,ITC,win,5,left,9,ITC_start,312,space,0,0,103,430858,1317115
27,18,male,Belgian,3,111,ITC,win,5,left,9,ITC_choice,709,f,0,0,103,430147,1317826
27,18,male,Belgian,3,111,ITC,win,5,left,9,ITC_wait,0,undefined,0,0,103,425133,1322840
27,18,male,Belgian,3,111,ITC,win,5,left,9,ITC_collect,518,k,0,0,103,424613,1323360
27,18,male,Belgian,3,111,ITC,win,5,left,9,ITC_outcome,0,undefined,0,0,123,423610,1324363
27,18,male,Belgian,3,112,guess,neutral,5,left,16,guess_start,117,space,0,0,123,423490,1324483
27,18,male,Belgian,3,112,guess,neutral,5,left,16,guess_choice,161,f,0,0,123,423325,1324648
27,18,male,Belgian,3,112,guess,neutral,5,left,16,guess_outcome,0,undefined,0,0,123,421766,1326207
27,18,male,Belgian,3,112,ITC,neutral,5,left,16,ITC_start,115,space,0,0,123,421649,1326324
27,18,male,Belgian,3,112,ITC,neutral,5,left,16,ITC_choice,612,j,0,0,123,421034,1326939
27,18,male,Belgian,3,112,ITC,neutral,5,left,16,ITC_wait,0,undefined,0,0,123,421031,1326942
27,18,male,Belgian,3,112,ITC,neutral,5,left,16,ITC_collect,140,k,0,0,123,420889,1327084
27,18,male,Belgian,3,112,ITC,neutral,5,left,16,ITC_outcome,0,undefined,0,0,139,419877,1328096
27,18,male,Belgian,3,113,guess,loss,5,right,5,guess_start,91,space,0,0,139,419784,1328189
27,18,male,Belgian,3,113,guess,loss,5,right,5,guess_choice,206,j,0,0,139,419576,1328397
27,18,male,Belgian,3,113,guess,loss,5,right,5,guess_outcome,0,undefined,0,0,124,418020,1329953
27,18,male,Belgian,3,113,ITC,loss,5,right,5,ITC_start,0,space,0,0,124,418018,1329955
27,18,male,Belgian,3,113,ITC,loss,5,right,5,ITC_choice,767,f,0,0,124,417249,1330724
27,18,male,Belgian,3,113,ITC,loss,5,right,5,ITC_wait,0,undefined,0,0,124,417244,1330729
27,18,male,Belgian,3,113,ITC,loss,5,right,5,ITC_collect,149,k,0,0,124,417094,1330879
27,18,male,Belgian,3,113,ITC,loss,5,right,5,ITC_outcome,0,undefined,0,0,129,416080,1331893
27,18,male,Belgian,3,114,guess,neutral,5,right,5,guess_start,125,space,0,0,129,415953,1332020
27,18,male,Belgian,3,114,guess,neutral,5,right,5,guess_choice,228,f,0,0,129,415722,1332251
27,18,male,Belgian,3,114,guess,neutral,5,right,5,guess_outcome,0,undefined,0,0,129,414155,1333818
27,18,male,Belgian,3,114,ITC,neutral,5,right,5,ITC_start,502,space,0,0,129,413652,1334321
27,18,male,Belgian,3,114,ITC,neutral,5,right,5,ITC_wait,0,undefined,0,0,129,413082,1334891
27,18,male,Belgian,3,114,ITC,neutral,5,right,5,ITC_choice,565,f,0,0,129,413084,1334889
27,18,male,Belgian,3,114,ITC,neutral,5,right,5,ITC_collect,155,k,0,0,129,412926,1335047
27,18,male,Belgian,3,114,ITC,neutral,5,right,5,ITC_outcome,0,undefined,0,0,134,411910,1336063
27,18,male,Belgian,3,115,guess,neutral,10,right,2,guess_start,87,space,0,0,134,411821,1336152
27,18,male,Belgian,3,115,guess,neutral,10,right,2,guess_choice,409,j,0,0,134,411408,1336565
27,18,male,Belgian,3,115,guess,neutral,10,right,2,guess_outcome,0,undefined,0,0,134,409851,1338122
27,18,male,Belgian,3,115,ITC,neutral,10,right,2,ITC_start,567,space,0,0,134,409281,1338692
27,18,male,Belgian,3,115,ITC,neutral,10,right,2,ITC_choice,942,j,0,0,134,408337,1339636
27,18,male,Belgian,3,115,ITC,neutral,10,right,2,ITC_wait,0,undefined,0,0,134,398333,1349640
27,18,male,Belgian,3,115,ITC,neutral,10,right,2,ITC_collect,327,k,0,0,134,398003,1349970
27,18,male,Belgian,3,115,ITC,neutral,10,right,2,ITC_outcome,0,undefined,0,0,154,396988,1350985
27,18,male,Belgian,3,116,guess,loss,10,left,7,guess_start,221,space,0,0,154,396766,1351207
27,18,male,Belgian,3,116,guess,loss,10,left,7,guess_choice,346,f,0,0,154,396415,1351558
27,18,male,Belgian,3,116,guess,loss,10,left,7,guess_outcome,0,undefined,0,0,139,394858,1353115
27,18,male,Belgian,3,116,ITC,loss,10,left,7,ITC_start,394,space,0,0,139,394462,1353511
27,18,male,Belgian,3,116,ITC,loss,10,left,7,ITC_choice,869,j,0,0,139,393591,1354382
27,18,male,Belgian,3,116,ITC,loss,10,left,7,ITC_wait,0,undefined,0,0,139,393588,1354385
27,18,male,Belgian,3,116,ITC,loss,10,left,7,ITC_collect,172,k,0,0,139,393414,1354559
27,18,male,Belgian,3,116,ITC,loss,10,left,7,ITC_outcome,0,undefined,0,0,146,392408,1355565
27,18,male,Belgian,3,117,guess,loss,5,left,12,guess_start,208,space,0,0,146,392199,1355774
27,18,male,Belgian,3,117,guess,loss,5,left,12,guess_choice,274,j,0,0,146,391922,1356051
27,18,male,Belgian,3,117,guess,loss,5,left,12,guess_outcome,0,undefined,0,0,131,390357,1357616
27,18,male,Belgian,3,117,ITC,loss,5,left,12,ITC_start,610,space,0,0,131,389745,1358228
27,18,male,Belgian,3,117,ITC,loss,5,left,12,ITC_choice,750,j,0,0,131,388994,1358979
27,18,male,Belgian,3,117,ITC,loss,5,left,12,ITC_wait,0,undefined,0,0,131,388990,1358983
27,18,male,Belgian,3,117,ITC,loss,5,left,12,ITC_collect,449,k,0,0,131,388540,1359433
27,18,male,Belgian,3,117,ITC,loss,5,left,12,ITC_outcome,0,undefined,0,0,143,387529,1360444
27,18,male,Belgian,3,118,guess,loss,5,left,4,guess_start,106,space,0,0,143,387421,1360552
27,18,male,Belgian,3,118,guess,loss,5,left,4,guess_choice,426,f,0,0,143,386990,1360983
27,18,male,Belgian,3,118,guess,loss,5,left,4,guess_outcome,0,undefined,0,0,128,385437,1362536
27,18,male,Belgian,3,118,ITC,loss,5,left,4,ITC_start,76,space,0,0,128,385360,1362613
27,18,male,Belgian,3,118,ITC,loss,5,left,4,ITC_choice,537,f,0,0,128,384821,1363152
27,18,male,Belgian,3,118,ITC,loss,5,left,4,ITC_wait,0,undefined,0,0,128,379798,1368175
27,18,male,Belgian,3,118,ITC,loss,5,left,4,ITC_collect,370,k,0,0,128,379426,1368547
27,18,male,Belgian,3,118,ITC,loss,5,left,4,ITC_outcome,0,undefined,0,0,148,378418,1369555
27,18,male,Belgian,3,119,guess,loss,10,right,5,guess_start,132,space,0,0,148,378284,1369689
27,18,male,Belgian,3,119,guess,loss,10,right,5,guess_choice,176,j,0,0,148,378103,1369870
27,18,male,Belgian,3,119,guess,loss,10,right,5,guess_outcome,0,undefined,0,0,133,376538,1371435
27,18,male,Belgian,3,119,ITC,loss,10,right,5,ITC_start,158,space,0,0,133,376378,1371595
27,18,male,Belgian,3,119,ITC,loss,10,right,5,ITC_choice,514,j,0,0,133,375863,1372110
27,18,male,Belgian,3,119,ITC,loss,10,right,5,ITC_wait,0,undefined,0,0,133,365849,1382124
27,18,male,Belgian,3,119,ITC,loss,10,right,5,ITC_collect,325,k,0,0,133,365522,1382451
27,18,male,Belgian,3,119,ITC,loss,10,right,5,ITC_outcome,0,undefined,0,0,153,364513,1383460
27,18,male,Belgian,3,120,guess,loss,5,right,6,guess_start,145,space,0,0,153,364366,1383607
27,18,male,Belgian,3,120,guess,loss,5,right,6,guess_choice,345,j,0,0,153,364018,1383955
27,18,male,Belgian,3,120,guess,loss,5,right,6,guess_outcome,0,undefined,0,0,138,362456,1385517
27,18,male,Belgian,3,120,ITC,loss,5,right,6,ITC_start,139,space,0,0,138,362315,1385658
27,18,male,Belgian,3,120,ITC,loss,5,right,6,ITC_choice,990,f,0,0,138,361324,1386649
27,18,male,Belgian,3,120,ITC,loss,5,right,6,ITC_wait,0,undefined,0,0,138,361321,1386652
27,18,male,Belgian,3,120,ITC,loss,5,right,6,ITC_collect,173,k,0,0,138,361146,1386827
27,18,male,Belgian,3,120,ITC,loss,5,right,6,ITC_outcome,0,undefined,0,0,144,360138,1387835
27,18,male,Belgian,3,121,guess,neutral,10,left,4,guess_start,270,space,0,0,144,359866,1388107
27,18,male,Belgian,3,121,guess,neutral,10,left,4,guess_choice,464,j,0,0,144,359399,1388574
27,18,male,Belgian,3,121,guess,neutral,10,left,4,guess_outcome,0,undefined,0,0,144,357839,1390134
27,18,male,Belgian,3,121,ITC,neutral,10,left,4,ITC_start,266,space,0,0,144,357571,1390402
27,18,male,Belgian,3,121,ITC,neutral,10,left,4,ITC_choice,577,j,0,0,144,356993,1390980
27,18,male,Belgian,3,121,ITC,neutral,10,left,4,ITC_wait,0,undefined,0,0,144,356990,1390983
27,18,male,Belgian,3,121,ITC,neutral,10,left,4,ITC_collect,418,k,0,0,144,356570,1391403
27,18,male,Belgian,3,121,ITC,neutral,10,left,4,ITC_outcome,0,undefined,0,0,148,355558,1392415
27,18,male,Belgian,3,122,guess,win,5,left,12,guess_start,275,space,0,0,148,355282,1392691
27,18,male,Belgian,3,122,guess,win,5,left,12,guess_choice,532,j,0,0,148,354746,1393227
27,18,male,Belgian,3,122,guess,win,5,left,12,guess_outcome,0,undefined,0,0,168,353188,1394785
27,18,male,Belgian,3,122,ITC,win,5,left,12,ITC_start,1054,space,0,0,168,352132,1395841
27,18,male,Belgian,3,122,ITC,win,5,left,12,ITC_choice,287,j,0,0,168,351844,1396129
27,18,male,Belgian,3,122,ITC,win,5,left,12,ITC_wait,0,undefined,0,0,168,351841,1396132
27,18,male,Belgian,3,122,ITC,win,5,left,12,ITC_collect,409,k,0,0,168,351430,1396543
27,18,male,Belgian,3,122,ITC,win,5,left,12,ITC_outcome,0,undefined,0,0,180,350419,1397554
27,18,male,Belgian,3,123,guess,neutral,5,right,14,guess_start,231,space,0,0,180,350186,1397787
27,18,male,Belgian,3,123,guess,neutral,5,right,14,guess_choice,503,j,0,0,180,349678,1398295
27,18,male,Belgian,3,123,guess,neutral,5,right,14,guess_outcome,0,undefined,0,0,180,348116,1399857
27,18,male,Belgian,3,123,ITC,neutral,5,right,14,ITC_start,199,space,0,0,180,347915,1400058
27,18,male,Belgian,3,123,ITC,neutral,5,right,14,ITC_choice,563,j,0,0,180,347351,1400622
27,18,male,Belgian,3,123,ITC,neutral,5,right,14,ITC_wait,0,undefined,0,0,180,342348,1405625
27,18,male,Belgian,3,123,ITC,neutral,5,right,14,ITC_collect,10,k,0,0,180,342336,1405637
27,18,male,Belgian,3,123,ITC,neutral,5,right,14,ITC_outcome,0,undefined,0,0,200,341329,1406644
27,18,male,Belgian,3,124,guess,neutral,10,right,5,guess_start,275,space,0,0,200,341052,1406921
27,18,male,Belgian,3,124,guess,neutral,10,right,5,guess_choice,1168,f,0,0,200,339882,1408091
27,18,male,Belgian,3,124,guess,neutral,10,right,5,guess_outcome,0,undefined,0,0,200,338320,1409653
27,18,male,Belgian,3,124,ITC,neutral,10,right,5,ITC_start,352,space,0,0,200,337966,1410007
27,18,male,Belgian,3,124,ITC,neutral,10,right,5,ITC_choice,513,j,0,0,200,337452,1410521
27,18,male,Belgian,3,124,ITC,neutral,10,right,5,ITC_wait,0,undefined,0,0,200,327446,1420527
27,18,male,Belgian,3,124,ITC,neutral,10,right,5,ITC_collect,117,k,0,0,200,327328,1420645
27,18,male,Belgian,3,124,ITC,neutral,10,right,5,ITC_outcome,0,undefined,0,0,220,326321,1421652
27,18,male,Belgian,3,125,guess,loss,5,left,16,guess_start,678,space,0,0,220,325641,1422332
27,18,male,Belgian,3,125,guess,loss,5,left,16,guess_choice,207,j,0,0,220,325430,1422543
27,18,male,Belgian,3,125,guess,loss,5,left,16,guess_outcome,0,undefined,0,0,205,323869,1424104
27,18,male,Belgian,3,125,ITC,loss,5,left,16,ITC_start,493,space,0,0,205,323374,1424599
27,18,male,Belgian,3,125,ITC,loss,5,left,16,ITC_choice,265,f,0,0,205,323107,1424866
27,18,male,Belgian,3,125,ITC,loss,5,left,16,ITC_wait,0,undefined,0,0,205,318099,1429874
27,18,male,Belgian,3,125,ITC,loss,5,left,16,ITC_collect,555,k,0,0,205,317542,1430431
27,18,male,Belgian,3,125,ITC,loss,5,left,16,ITC_outcome,0,undefined,0,0,225,316539,1431434
27,18,male,Belgian,3,126,guess,win,10,left,1,guess_start,101,space,0,0,225,316435,1431538
27,18,male,Belgian,3,126,guess,win,10,left,1,guess_choice,268,j,0,0,225,316164,1431809
27,18,male,Belgian,3,126,guess,win,10,left,1,guess_outcome,0,undefined,0,0,245,314603,1433370
27,18,male,Belgian,3,126,ITC,win,10,left,1,ITC_start,357,space,0,0,245,314243,1433730
27,18,male,Belgian,3,126,ITC,win,10,left,1,ITC_choice,716,j,0,0,245,313525,1434448
27,18,male,Belgian,3,126,ITC,win,10,left,1,ITC_wait,0,undefined,0,0,245,313522,1434451
27,18,male,Belgian,3,126,ITC,win,10,left,1,ITC_collect,402,k,0,0,245,313119,1434854
27,18,male,Belgian,3,126,ITC,win,10,left,1,ITC_outcome,0,undefined,0,0,246,312109,1435864
27,18,male,Belgian,3,127,guess,loss,5,right,9,guess_start,212,space,0,0,246,311894,1436079
27,18,male,Belgian,3,127,guess,loss,5,right,9,guess_choice,580,f,0,0,246,311312,1436661
27,18,male,Belgian,3,127,guess,loss,5,right,9,guess_outcome,0,undefined,0,0,231,309749,1438224
27,18,male,Belgian,3,127,ITC,loss,5,right,9,ITC_start,851,space,0,0,231,308896,1439077
27,18,male,Belgian,3,127,ITC,loss,5,right,9,ITC_choice,756,f,0,0,231,308138,1439835
27,18,male,Belgian,3,127,ITC,loss,5,right,9,ITC_wait,0,undefined,0,0,231,308135,1439838
27,18,male,Belgian,3,127,ITC,loss,5,right,9,ITC_collect,167,k,0,0,231,307966,1440007
27,18,male,Belgian,3,127,ITC,loss,5,right,9,ITC_outcome,0,undefined,0,0,240,306959,1441014
27,18,male,Belgian,3,128,guess,neutral,5,left,13,guess_start,261,space,0,0,240,306696,1441277
27,18,male,Belgian,3,128,guess,neutral,5,left,13,guess_choice,576,f,0,0,240,306117,1441856
27,18,male,Belgian,3,128,guess,neutral,5,left,13,guess_outcome,0,undefined,0,0,240,304561,1443412
27,18,male,Belgian,3,128,ITC,neutral,5,left,13,ITC_start,95,space,0,0,240,304464,1443509
27,18,male,Belgian,3,128,ITC,neutral,5,left,13,ITC_choice,546,f,0,0,240,303916,1444057
27,18,male,Belgian,3,128,ITC,neutral,5,left,13,ITC_wait,0,undefined,0,0,240,298906,1449067
27,18,male,Belgian,3,128,ITC,neutral,5,left,13,ITC_collect,193,k,0,0,240,298713,1449260
27,18,male,Belgian,3,128,ITC,neutral,5,left,13,ITC_outcome,0,undefined,0,0,260,297699,1450274
27,18,male,Belgian,3,129,guess,neutral,5,left,10,guess_start,350,space,0,0,260,297346,1450627
27,18,male,Belgian,3,129,guess,neutral,5,left,10,guess_choice,850,f,0,0,260,296492,1451481
27,18,male,Belgian,3,129,guess,neutral,5,left,10,guess_outcome,0,undefined,0,0,260,294933,1453040
27,18,male,Belgian,3,129,ITC,neutral,5,left,10,ITC_start,733,space,0,0,260,294199,1453774
27,18,male,Belgian,3,129,ITC,neutral,5,left,10,ITC_choice,641,f,0,0,260,293557,1454416
27,18,male,Belgian,3,129,ITC,neutral,5,left,10,ITC_wait,0,undefined,0,0,260,288549,1459424
27,18,male,Belgian,3,129,ITC,neutral,5,left,10,ITC_collect,15,k,0,0,260,288533,1459440
27,18,male,Belgian,3,129,ITC,neutral,5,left,10,ITC_outcome,0,undefined,0,0,280,287520,1460453
27,18,male,Belgian,3,130,guess,win,10,right,2,guess_start,627,space,0,0,280,286891,1461082
27,18,male,Belgian,3,130,guess,win,10,right,2,guess_choice,252,j,0,0,280,286636,1461337
27,18,male,Belgian,3,130,guess,win,10,right,2,guess_outcome,0,undefined,0,0,300,285080,1462893
27,18,male,Belgian,3,130,ITC,win,10,right,2,ITC_start,226,space,0,0,300,284852,1463121
27,18,male,Belgian,3,130,ITC,win,10,right,2,ITC_choice,421,j,0,0,300,284429,1463544
27,18,male,Belgian,3,130,ITC,win,10,right,2,ITC_wait,0,undefined,0,0,300,274424,1473549
27,18,male,Belgian,3,130,ITC,win,10,right,2,ITC_collect,258,k,0,0,300,274165,1473808
27,18,male,Belgian,3,130,ITC,win,10,right,2,ITC_outcome,0,undefined,0,0,320,273162,1474811
27,18,male,Belgian,3,131,guess,neutral,5,right,9,guess_start,262,space,0,0,320,272898,1475075
27,18,male,Belgian,3,131,guess,neutral,5,right,9,guess_choice,560,f,0,0,320,272336,1475637
27,18,male,Belgian,3,131,guess,neutral,5,right,9,guess_outcome,0,undefined,0,0,320,270773,1477200
27,18,male,Belgian,3,131,ITC,neutral,5,right,9,ITC_start,199,space,0,0,320,270572,1477401
27,18,male,Belgian,3,131,ITC,neutral,5,right,9,ITC_choice,302,f,0,0,320,270268,1477705
27,18,male,Belgian,3,131,ITC,neutral,5,right,9,ITC_wait,0,undefined,0,0,320,270266,1477707
27,18,male,Belgian,3,131,ITC,neutral,5,right,9,ITC_collect,415,k,0,0,320,269850,1478123
27,18,male,Belgian,3,131,ITC,neutral,5,right,9,ITC_outcome,0,undefined,0,0,329,268843,1479130
27,18,male,Belgian,3,132,guess,win,5,left,3,guess_start,202,space,0,0,329,268639,1479334
27,18,male,Belgian,3,132,guess,win,5,left,3,guess_choice,270,j,0,0,329,268366,1479607
27,18,male,Belgian,3,132,guess,win,5,left,3,guess_outcome,0,undefined,0,0,349,266813,1481160
27,18,male,Belgian,3,132,ITC,win,5,left,3,ITC_start,173,space,0,0,349,266639,1481334
27,18,male,Belgian,3,132,ITC,win,5,left,3,ITC_choice,878,f,0,0,349,265758,1482215
27,18,male,Belgian,3,132,ITC,win,5,left,3,ITC_wait,0,undefined,0,0,349,260753,1487220
27,18,male,Belgian,3,132,ITC,win,5,left,3,ITC_collect,129,k,0,0,349,260622,1487351
27,18,male,Belgian,3,132,ITC,win,5,left,3,ITC_outcome,0,undefined,0,0,369,259609,1488364
27,18,male,Belgian,3,133,guess,win,5,right,14,guess_start,96,space,0,0,369,259510,1488463
27,18,male,Belgian,3,133,guess,win,5,right,14,guess_choice,217,j,0,0,369,259291,1488682
27,18,male,Belgian,3,133,guess,win,5,right,14,guess_outcome,0,undefined,0,0,389,257733,1490240
27,18,male,Belgian,3,133,ITC,win,5,right,14,ITC_start,61,space,0,0,389,257670,1490303
27,18,male,Belgian,3,133,ITC,win,5,right,14,ITC_choice,633,j,0,0,389,257035,1490938
27,18,male,Belgian,3,133,ITC,win,5,right,14,ITC_wait,0,undefined,0,0,389,252023,1495950
27,18,male,Belgian,3,133,ITC,win,5,right,14,ITC_collect,206,k,0,0,389,251815,1496158
27,18,male,Belgian,3,133,ITC,win,5,right,14,ITC_outcome,0,undefined,0,0,409,250805,1497168
27,18,male,Belgian,3,134,guess,neutral,5,right,7,guess_start,154,space,0,0,409,250650,1497323
27,18,male,Belgian,3,134,guess,neutral,5,right,7,guess_choice,732,f,0,0,409,249915,1498058
27,18,male,Belgian,3,134,guess,neutral,5,right,7,guess_outcome,0,undefined,0,0,409,248353,1499620
27,18,male,Belgian,3,134,ITC,neutral,5,right,7,ITC_start,669,space,0,0,409,247683,1500290
27,18,male,Belgian,3,134,ITC,neutral,5,right,7,ITC_choice,1007,j,0,0,409,246674,1501299
27,18,male,Belgian,3,134,ITC,neutral,5,right,7,ITC_wait,0,undefined,0,0,409,241662,1506311
27,18,male,Belgian,3,134,ITC,neutral,5,right,7,ITC_collect,451,k,0,0,409,241208,1506765
27,18,male,Belgian,3,134,ITC,neutral,5,right,7,ITC_outcome,0,undefined,0,0,429,240200,1507773
27,18,male,Belgian,3,135,guess,neutral,10,left,8,guess_start,122,space,0,0,429,240076,1507897
27,18,male,Belgian,3,135,guess,neutral,10,left,8,guess_choice,191,j,0,0,429,239879,1508094
27,18,male,Belgian,3,135,guess,neutral,10,left,8,guess_outcome,0,undefined,0,0,429,238318,1509655
27,18,male,Belgian,3,135,ITC,neutral,10,left,8,ITC_start,13,space,0,0,429,238303,1509670
27,18,male,Belgian,3,135,ITC,neutral,10,left,8,ITC_choice,737,f,0,0,429,237564,1510409
27,18,male,Belgian,3,135,ITC,neutral,10,left,8,ITC_wait,0,undefined,0,0,429,227552,1520421
27,18,male,Belgian,3,135,ITC,neutral,10,left,8,ITC_collect,216,k,0,0,429,227336,1520637
27,18,male,Belgian,3,135,ITC,neutral,10,left,8,ITC_outcome,0,undefined,0,0,449,226327,1521646
27,18,male,Belgian,3,136,guess,loss,5,right,10,guess_start,203,space,0,0,449,226122,1521851
27,18,male,Belgian,3,136,guess,loss,5,right,10,guess_choice,169,j,0,0,449,225950,1522023
27,18,male,Belgian,3,136,guess,loss,5,right,10,guess_outcome,0,undefined,0,0,434,224387,1523586
27,18,male,Belgian,3,136,ITC,loss,5,right,10,ITC_start,707,space,0,0,434,223677,1524296
27,18,male,Belgian,3,136,ITC,loss,5,right,10,ITC_choice,193,f,0,0,434,223483,1524490
27,18,male,Belgian,3,136,ITC,loss,5,right,10,ITC_wait,0,undefined,0,0,434,223480,1524493
27,18,male,Belgian,3,136,ITC,loss,5,right,10,ITC_collect,972,k,0,0,434,222507,1525466
27,18,male,Belgian,3,136,ITC,loss,5,right,10,ITC_outcome,0,undefined,0,0,444,221496,1526477
27,18,male,Belgian,3,137,guess,win,5,left,4,guess_start,68,space,0,0,444,221426,1526547
27,18,male,Belgian,3,137,guess,win,5,left,4,guess_choice,430,j,0,0,444,220994,1526979
27,18,male,Belgian,3,137,guess,win,5,left,4,guess_outcome,0,undefined,0,0,464,219426,1528547
27,18,male,Belgian,3,137,ITC,win,5,left,4,ITC_start,101,space,0,0,464,219323,1528650
27,18,male,Belgian,3,137,ITC,win,5,left,4,ITC_choice,449,j,0,0,464,218872,1529101
27,18,male,Belgian,3,137,ITC,win,5,left,4,ITC_wait,0,undefined,0,0,464,218869,1529104
27,18,male,Belgian,3,137,ITC,win,5,left,4,ITC_collect,385,k,0,0,464,218482,1529491
27,18,male,Belgian,3,137,ITC,win,5,left,4,ITC_outcome,0,undefined,0,0,468,217477,1530496
27,18,male,Belgian,3,138,guess,loss,10,left,8,guess_start,131,space,0,0,468,217346,1530627
27,18,male,Belgian,3,138,guess,loss,10,left,8,guess_choice,622,j,0,0,468,216720,1531253
27,18,male,Belgian,3,138,guess,loss,10,left,8,guess_outcome,0,undefined,0,0,453,215167,1532806
27,18,male,Belgian,3,138,ITC,loss,10,left,8,ITC_start,456,space,0,0,453,214709,1533264
27,18,male,Belgian,3,138,ITC,loss,10,left,8,ITC_choice,577,f,0,0,453,214130,1533843
27,18,male,Belgian,3,138,ITC,loss,10,left,8,ITC_wait,0,undefined,0,0,453,204113,1543860
27,18,male,Belgian,3,138,ITC,loss,10,left,8,ITC_collect,951,k,0,0,453,203160,1544813
27,18,male,Belgian,3,138,ITC,loss,10,left,8,ITC_outcome,0,undefined,0,0,473,202154,1545819
27,18,male,Belgian,3,139,guess,win,10,left,8,guess_start,65,space,0,0,473,202087,1545886
27,18,male,Belgian,3,139,guess,win,10,left,8,guess_choice,171,j,0,0,473,201911,1546062
27,18,male,Belgian,3,139,guess,win,10,left,8,guess_outcome,0,undefined,0,0,493,200356,1547617
27,18,male,Belgian,3,139,ITC,win,10,left,8,ITC_start,14,space,0,0,493,200340,1547633
27,18,male,Belgian,3,139,ITC,win,10,left,8,ITC_choice,636,f,0,0,493,199701,1548272
27,18,male,Belgian,3,139,ITC,win,10,left,8,ITC_wait,0,undefined,0,0,493,189696,1558277
27,18,male,Belgian,3,139,ITC,win,10,left,8,ITC_collect,219,k,0,0,493,189476,1558497
27,18,male,Belgian,3,139,ITC,win,10,left,8,ITC_outcome,0,undefined,0,0,513,188463,1559510
27,18,male,Belgian,3,140,guess,neutral,5,right,15,guess_start,37,space,0,0,513,188423,1559550
27,18,male,Belgian,3,140,guess,neutral,5,right,15,guess_choice,408,j,0,0,513,188013,1559960
27,18,male,Belgian,3,140,guess,neutral,5,right,15,guess_outcome,0,undefined,0,0,513,186452,1561521
27,18,male,Belgian,3,140,ITC,neutral,5,right,15,ITC_start,359,space,0,0,513,186092,1561881
27,18,male,Belgian,3,140,ITC,neutral,5,right,15,ITC_choice,452,f,0,0,513,185639,1562334
27,18,male,Belgian,3,140,ITC,neutral,5,right,15,ITC_wait,0,undefined,0,0,513,185635,1562338
27,18,male,Belgian,3,140,ITC,neutral,5,right,15,ITC_collect,437,k,0,0,513,185196,1562777
27,18,male,Belgian,3,140,ITC,neutral,5,right,15,ITC_outcome,0,undefined,0,0,528,184193,1563780
27,18,male,Belgian,3,141,guess,neutral,5,left,3,guess_start,184,space,0,0,528,184007,1563966
27,18,male,Belgian,3,141,guess,neutral,5,left,3,guess_choice,384,f,0,0,528,183619,1564354
27,18,male,Belgian,3,141,guess,neutral,5,left,3,guess_outcome,0,undefined,0,0,528,182063,1565910
27,18,male,Belgian,3,141,ITC,neutral,5,left,3,ITC_start,262,space,0,0,528,181800,1566173
27,18,male,Belgian,3,141,ITC,neutral,5,left,3,ITC_choice,704,f,0,0,528,181094,1566879
27,18,male,Belgian,3,141,ITC,neutral,5,left,3,ITC_wait,0,undefined,0,0,528,176083,1571890
27,18,male,Belgian,3,141,ITC,neutral,5,left,3,ITC_collect,2284,k,0,0,528,173797,1574176
27,18,male,Belgian,3,141,ITC,neutral,5,left,3,ITC_outcome,0,undefined,0,0,548,172783,1575190
27,18,male,Belgian,3,142,guess,win,5,right,15,guess_start,50,space,0,0,548,172732,1575241
27,18,male,Belgian,3,142,guess,win,5,right,15,guess_choice,441,j,0,0,548,172289,1575684
27,18,male,Belgian,3,142,guess,win,5,right,15,guess_outcome,0,undefined,0,0,568,170732,1577241
27,18,male,Belgian,3,142,ITC,win,5,right,15,ITC_start,183,space,0,0,568,170548,1577425
27,18,male,Belgian,3,142,ITC,win,5,right,15,ITC_choice,1083,j,0,0,568,169463,1578510
27,18,male,Belgian,3,142,ITC,win,5,right,15,ITC_wait,0,undefined,0,0,568,164443,1583530
27,18,male,Belgian,3,142,ITC,win,5,right,15,ITC_collect,157,k,0,0,568,164283,1583690
27,18,male,Belgian,3,142,ITC,win,5,right,15,ITC_outcome,0,undefined,0,0,588,163263,1584710
27,18,male,Belgian,3,143,guess,win,5,right,10,guess_start,102,space,0,0,588,163158,1584815
27,18,male,Belgian,3,143,guess,win,5,right,10,guess_choice,401,f,0,0,588,162754,1585219
27,18,male,Belgian,3,143,guess,win,5,right,10,guess_outcome,0,undefined,0,0,608,161192,1586781
27,18,male,Belgian,3,143,ITC,win,5,right,10,ITC_start,218,space,0,0,608,160973,1587000
27,18,male,Belgian,3,143,ITC,win,5,right,10,ITC_choice,698,j,0,0,608,160273,1587700
