subjectID,age,gender,nationality,block_number,trial_number,trial_type,guess_outcome,delay_time,delay_pos,immediate_amount,stage,respRT,respKey,blur_count,focus_count,total_points,remaining_duration,time_elapsed
subjectID,age,gender,nationality,block_number,trial_number,trial_type,guess_outcome,delay_time,delay_pos,immediate_amount,stage,respRT,respKey,blur_count,focus_count,total_points,remaining_duration,time_elapsed
23,18,female,Belg,1,1,guess,neutral,10,right,5,guess_start,2018,space,0,0,0,477979,238033
23,18,female,Belg,1,1,guess,neutral,10,right,5,guess_choice,1535,j,0,0,0,476431,239581
23,18,female,Belg,1,1,guess,neutral,10,right,5,guess_outcome,0,undefined,0,0,0,474865,241147
23,18,female,Belg,1,1,ITC,neutral,10,right,5,ITC_start,3776,space,0,0,0,471084,244928
23,18,female,Belg,1,1,ITC,neutral,10,right,5,ITC_choice,2089,j,0,0,0,468990,247022
23,18,female,Belg,1,1,ITC,neutral,10,right,5,ITC_wait,0,undefined,0,0,0,458969,257043
23,18,female,Belg,1,1,ITC,neutral,10,right,5,ITC_collect,2576,k,0,0,0,456388,259624
23,18,female,Belg,1,1,ITC,neutral,10,right,5,ITC_outcome,0,undefined,0,0,20,455368,260644
23,18,female,Belg,1,2,guess,loss,5,left,11,guess_start,1789,space,0,0,20,453570,262442
23,18,female,Belg,1,2,guess,loss,5,left,11,guess_choice,1364,f,0,0,20,452195,263817
23,18,female,Belg,1,2,guess,loss,5,left,11,guess_outcome,0,undefined,0,0,5,450619,265393
23,18,female,Belg,1,2,ITC,loss,5,left,11,ITC_start,2812,space,0,0,5,447803,268209
23,18,female,Belg,1,2,ITC,loss,5,left,11,ITC_choice,2061,f,0,0,5,445736,270276
23,18,female,Belg,1,2,ITC,loss,5,left,11,ITC_wait,0,undefined,0,0,5,440729,275283
23,18,female,Belg,1,2,ITC,loss,5,left,11,ITC_collect,967,k,0,0,5,439757,276255
23,18,female,Belg,1,2,ITC,loss,5,left,11,ITC_outcome,0,undefined,0,0,25,438738,277274
23,18,female,Belg,1,3,guess,neutral,5,left,9,guess_start,878,space,0,0,25,437854,278158
23,18,female,Belg,1,3,guess,neutral,5,left,9,guess_choice,894,f,0,0,25,436949,279063
23,18,female,Belg,1,3,guess,neutral,5,left,9,guess_outcome,0,undefined,0,0,25,435379,280633
23,18,female,Belg,1,3,ITC,neutral,5,left,9,ITC_start,865,space,0,0,25,434510,281502
23,18,female,Belg,1,3,ITC,neutral,5,left,9,ITC_choice,1395,f,0,0,25,433113,282899
23,18,female,Belg,1,3,ITC,neutral,5,left,9,ITC_wait,0,undefined,0,0,25,428108,287904
23,18,female,Belg,1,3,ITC,neutral,5,left,9,ITC_collect,716,k,0,0,25,427387,288625
23,18,female,Belg,1,3,ITC,neutral,5,left,9,ITC_outcome,0,undefined,0,0,45,426367,289645
23,18,female,Belg,1,4,guess,loss,5,left,10,guess_start,776,space,0,0,45,425587,290425
23,18,female,Belg,1,4,guess,loss,5,left,10,guess_choice,1019,f,0,0,45,424559,291453
23,18,female,Belg,1,4,guess,loss,5,left,10,guess_outcome,0,undefined,0,0,30,422986,293026
23,18,female,Belg,1,4,ITC,loss,5,left,10,ITC_start,896,space,0,0,30,422087,293925
23,18,female,Belg,1,4,ITC,loss,5,left,10,ITC_choice,1827,f,0,0,30,420254,295758
23,18,female,Belg,1,4,ITC,loss,5,left,10,ITC_wait,0,undefined,0,0,30,415236,300776
23,18,female,Belg,1,4,ITC,loss,5,left,10,ITC_collect,908,k,0,0,30,414324,301688
23,18,female,Belg,1,4,ITC,loss,5,left,10,ITC_outcome,0,undefined,0,0,50,413307,302705
23,18,female,Belg,1,5,guess,win,5,left,16,guess_start,940,space,0,0,50,412361,303651
23,18,female,Belg,1,5,guess,win,5,left,16,guess_choice,906,f,0,0,50,411444,304568
23,18,female,Belg,1,5,guess,win,5,left,16,guess_outcome,0,undefined,0,0,70,409877,306135
23,18,female,Belg,1,5,ITC,win,5,left,16,ITC_start,1369,space,0,0,70,408505,307507
23,18,female,Belg,1,5,ITC,win,5,left,16,ITC_choice,1886,j,0,0,70,406612,309400
23,18,female,Belg,1,5,ITC,win,5,left,16,ITC_wait,0,undefined,0,0,70,406605,309407
23,18,female,Belg,1,5,ITC,win,5,left,16,ITC_collect,1072,k,0,0,70,405523,310489
23,18,female,Belg,1,5,ITC,win,5,left,16,ITC_outcome,0,undefined,0,0,86,404507,311505
23,18,female,Belg,1,6,guess,loss,5,left,1,guess_start,996,space,0,0,86,403505,312507
23,18,female,Belg,1,6,guess,loss,5,left,1,guess_choice,844,f,0,0,86,402651,313361
23,18,female,Belg,1,6,guess,loss,5,left,1,guess_outcome,0,undefined,0,0,71,401086,314926
23,18,female,Belg,1,6,ITC,loss,5,left,1,ITC_start,60,space,0,0,71,401022,314990
23,18,female,Belg,1,6,ITC,loss,5,left,1,ITC_choice,2082,f,0,0,71,398937,317075
23,18,female,Belg,1,6,ITC,loss,5,left,1,ITC_wait,0,undefined,0,0,71,393931,322081
23,18,female,Belg,1,6,ITC,loss,5,left,1,ITC_collect,727,k,0,0,71,393199,322813
23,18,female,Belg,1,6,ITC,loss,5,left,1,ITC_outcome,0,undefined,0,0,91,392190,323822
23,18,female,Belg,1,7,guess,win,5,right,10,guess_start,481,space,0,0,91,391703,324309
23,18,female,Belg,1,7,guess,win,5,right,10,guess_choice,785,f,0,0,91,390908,325104
23,18,female,Belg,1,7,guess,win,5,right,10,guess_outcome,0,undefined,0,0,111,389340,326672
23,18,female,Belg,1,7,ITC,win,5,right,10,ITC_start,861,space,0,0,111,388476,327536
23,18,female,Belg,1,7,ITC,win,5,right,10,ITC_choice,1950,f,0,0,111,386521,329491
23,18,female,Belg,1,7,ITC,win,5,right,10,ITC_wait,0,undefined,0,0,111,386506,329506
23,18,female,Belg,1,7,ITC,win,5,right,10,ITC_collect,893,k,0,0,111,385605,330407
23,18,female,Belg,1,7,ITC,win,5,right,10,ITC_outcome,0,undefined,0,0,121,384589,331423
23,18,female,Belg,1,8,guess,loss,10,left,5,guess_start,719,space,0,0,121,383864,332148
23,18,female,Belg,1,8,guess,loss,10,left,5,guess_choice,693,f,0,0,121,383152,332860
23,18,female,Belg,1,8,guess,loss,10,left,5,guess_outcome,0,undefined,0,0,106,381580,334432
23,18,female,Belg,1,8,ITC,loss,10,left,5,ITC_start,674,space,0,0,106,380902,335110
23,18,female,Belg,1,8,ITC,loss,10,left,5,ITC_choice,1795,f,0,0,106,379100,336912
23,18,female,Belg,1,8,ITC,loss,10,left,5,ITC_wait,0,undefined,0,0,106,369082,346930
23,18,female,Belg,1,8,ITC,loss,10,left,5,ITC_collect,726,k,0,0,106,368353,347659
23,18,female,Belg,1,8,ITC,loss,10,left,5,ITC_outcome,0,undefined,0,0,126,367344,348668
23,18,female,Belg,1,9,guess,win,5,right,7,guess_start,533,space,0,0,126,366805,349207
23,18,female,Belg,1,9,guess,win,5,right,7,guess_choice,611,f,0,0,126,366186,349826
23,18,female,Belg,1,9,guess,win,5,right,7,guess_outcome,0,undefined,0,0,146,364614,351398
23,18,female,Belg,1,9,ITC,win,5,right,7,ITC_start,442,space,0,0,146,364168,351844
23,18,female,Belg,1,9,ITC,win,5,right,7,ITC_choice,2186,j,0,0,146,361979,354033
23,18,female,Belg,1,9,ITC,win,5,right,7,ITC_wait,0,undefined,0,0,146,356963,359049
23,18,female,Belg,1,9,ITC,win,5,right,7,ITC_collect,529,k,0,0,146,356429,359583
23,18,female,Belg,1,9,ITC,win,5,right,7,ITC_outcome,0,undefined,0,0,166,355414,360598
23,18,female,Belg,1,10,guess,loss,5,right,3,guess_start,1465,space,0,0,166,353943,362069
23,18,female,Belg,1,10,guess,loss,5,right,3,guess_choice,620,f,0,0,166,353312,362700
23,18,female,Belg,1,10,guess,loss,5,right,3,guess_outcome,0,undefined,0,0,151,351744,364268
23,18,female,Belg,1,10,ITC,loss,5,right,3,ITC_start,1484,space,0,0,151,350255,365757
23,18,female,Belg,1,10,ITC,loss,5,right,3,ITC_choice,2132,j,0,0,151,348117,367895
23,18,female,Belg,1,10,ITC,loss,5,right,3,ITC_wait,0,undefined,0,0,151,343104,372908
23,18,female,Belg,1,10,ITC,loss,5,right,3,ITC_collect,707,k,0,0,151,342390,373622
23,18,female,Belg,1,10,ITC,loss,5,right,3,ITC_outcome,0,undefined,0,0,171,341374,374638
23,18,female,Belg,1,11,guess,win,5,right,9,guess_start,1146,space,0,0,171,340224,375788
23,18,female,Belg,1,11,guess,win,5,right,9,guess_choice,816,f,0,0,171,339399,376613
23,18,female,Belg,1,11,guess,win,5,right,9,guess_outcome,0,undefined,0,0,191,337811,378201
23,18,female,Belg,1,11,ITC,win,5,right,9,ITC_start,732,space,0,0,191,337074,378938
23,18,female,Belg,1,11,ITC,win,5,right,9,ITC_choice,1452,f,0,0,191,335618,380394
23,18,female,Belg,1,11,ITC,win,5,right,9,ITC_wait,0,undefined,0,0,191,335606,380406
23,18,female,Belg,1,11,ITC,win,5,right,9,ITC_collect,919,k,0,0,191,334682,381330
23,18,female,Belg,1,11,ITC,win,5,right,9,ITC_outcome,0,undefined,0,0,200,333671,382341
23,18,female,Belg,1,12,guess,loss,10,left,3,guess_start,545,space,0,0,200,333122,382890
23,18,female,Belg,1,12,guess,loss,10,left,3,guess_choice,602,f,0,0,200,332511,383501
23,18,female,Belg,1,12,guess,loss,10,left,3,guess_outcome,0,undefined,0,0,185,330942,385070
23,18,female,Belg,1,12,ITC,loss,10,left,3,ITC_start,730,space,0,0,185,330208,385804
23,18,female,Belg,1,12,ITC,loss,10,left,3,ITC_choice,1280,f,0,0,185,328923,387089
23,18,female,Belg,1,12,ITC,loss,10,left,3,ITC_wait,0,undefined,0,0,185,318910,397102
23,18,female,Belg,1,12,ITC,loss,10,left,3,ITC_collect,584,k,0,0,185,318322,397690
23,18,female,Belg,1,12,ITC,loss,10,left,3,ITC_outcome,0,undefined,0,0,205,317316,398696
23,18,female,Belg,1,13,guess,neutral,5,left,11,guess_start,489,space,0,0,205,316823,399189
23,18,female,Belg,1,13,guess,neutral,5,left,11,guess_choice,798,j,0,0,205,316019,399993
23,18,female,Belg,1,13,guess,neutral,5,left,11,guess_outcome,0,undefined,0,0,205,314456,401556
23,18,female,Belg,1,13,ITC,neutral,5,left,11,ITC_start,492,space,0,0,205,313961,402051
23,18,female,Belg,1,13,ITC,neutral,5,left,11,ITC_choice,1719,f,0,0,205,312238,403774
23,18,female,Belg,1,13,ITC,neutral,5,left,11,ITC_wait,0,undefined,0,0,205,307215,408797
23,18,female,Belg,1,13,ITC,neutral,5,left,11,ITC_collect,876,k,0,0,205,306335,409677
23,18,female,Belg,1,13,ITC,neutral,5,left,11,ITC_outcome,0,undefined,0,0,225,305325,410687
23,18,female,Belg,1,14,guess,neutral,5,right,13,guess_start,472,space,0,0,225,304847,411165
23,18,female,Belg,1,14,guess,neutral,5,right,13,guess_choice,621,f,0,0,225,304214,411798
23,18,female,Belg,1,14,guess,neutral,5,right,13,guess_outcome,0,undefined,0,0,225,302647,413365
23,18,female,Belg,1,14,ITC,neutral,5,right,13,ITC_start,281,space,0,0,225,302361,413651
23,18,female,Belg,1,14,ITC,neutral,5,right,13,ITC_choice,1688,j,0,0,225,300670,415342
23,18,female,Belg,1,14,ITC,neutral,5,right,13,ITC_wait,0,undefined,0,0,225,295653,420359
23,18,female,Belg,1,14,ITC,neutral,5,right,13,ITC_collect,748,k,0,0,225,294902,421110
23,18,female,Belg,1,14,ITC,neutral,5,right,13,ITC_outcome,0,undefined,0,0,245,293896,422116
23,18,female,Belg,1,15,guess,win,10,right,5,guess_start,348,space,0,0,245,293544,422468
23,18,female,Belg,1,15,guess,win,10,right,5,guess_choice,837,f,0,0,245,292698,423314
23,18,female,Belg,1,15,guess,win,10,right,5,guess_outcome,0,undefined,0,0,265,291125,424887
23,18,female,Belg,1,15,ITC,win,10,right,5,ITC_start,401,space,0,0,265,290721,425291
23,18,female,Belg,1,15,ITC,win,10,right,5,ITC_choice,1424,f,0,0,265,289294,426718
23,18,female,Belg,1,15,ITC,win,10,right,5,ITC_wait,0,undefined,0,0,265,289288,426724
23,18,female,Belg,1,15,ITC,win,10,right,5,ITC_collect,1026,k,0,0,265,288254,427758
23,18,female,Belg,1,15,ITC,win,10,right,5,ITC_outcome,0,undefined,0,0,270,287246,428766
23,18,female,Belg,1,16,guess,neutral,10,right,7,guess_start,486,space,0,0,270,286756,429256
23,18,female,Belg,1,16,guess,neutral,10,right,7,guess_choice,772,j,0,0,270,285972,430040
23,18,female,Belg,1,16,guess,neutral,10,right,7,guess_outcome,0,undefined,0,0,270,284407,431605
23,18,female,Belg,1,16,ITC,neutral,10,right,7,ITC_start,267,space,0,0,270,284136,431876
23,18,female,Belg,1,16,ITC,neutral,10,right,7,ITC_choice,1452,f,0,0,270,282678,433334
23,18,female,Belg,1,16,ITC,neutral,10,right,7,ITC_wait,0,undefined,0,0,270,282671,433341
23,18,female,Belg,1,16,ITC,neutral,10,right,7,ITC_collect,792,k,0,0,270,281872,434140
23,18,female,Belg,1,16,ITC,neutral,10,right,7,ITC_outcome,0,undefined,0,0,277,280856,435156
23,18,female,Belg,1,17,guess,neutral,5,left,12,guess_start,723,space,0,0,277,280129,435883
23,18,female,Belg,1,17,guess,neutral,5,left,12,guess_choice,755,j,0,0,277,279365,436647
23,18,female,Belg,1,17,guess,neutral,5,left,12,guess_outcome,0,undefined,0,0,277,277808,438204
23,18,female,Belg,1,17,ITC,neutral,5,left,12,ITC_start,313,space,0,0,277,277491,438521
23,18,female,Belg,1,17,ITC,neutral,5,left,12,ITC_choice,2862,j,0,0,277,274626,441386
23,18,female,Belg,1,17,ITC,neutral,5,left,12,ITC_wait,0,undefined,0,0,277,274620,441392
23,18,female,Belg,1,17,ITC,neutral,5,left,12,ITC_collect,903,k,0,0,277,273710,442302
23,18,female,Belg,1,17,ITC,neutral,5,left,12,ITC_outcome,0,undefined,0,0,289,272690,443322
23,18,female,Belg,1,18,guess,win,10,right,6,guess_start,355,space,0,0,289,272331,443681
23,18,female,Belg,1,18,guess,win,10,right,6,guess_choice,939,f,0,0,289,271384,444628
23,18,female,Belg,1,18,guess,win,10,right,6,guess_outcome,0,undefined,0,0,309,269822,446190
23,18,female,Belg,1,18,ITC,win,10,right,6,ITC_start,1157,space,0,0,309,268662,447350
23,18,female,Belg,1,18,ITC,win,10,right,6,ITC_choice,1375,f,0,0,309,267284,448728
23,18,female,Belg,1,18,ITC,win,10,right,6,ITC_wait,0,undefined,0,0,309,267278,448734
23,18,female,Belg,1,18,ITC,win,10,right,6,ITC_collect,628,k,0,0,309,266642,449370
23,18,female,Belg,1,18,ITC,win,10,right,6,ITC_outcome,0,undefined,0,0,315,265627,450385
23,18,female,Belg,1,19,guess,win,5,left,15,guess_start,336,space,0,0,315,265287,450725
23,18,female,Belg,1,19,guess,win,5,left,15,guess_choice,560,f,0,0,315,264714,451298
23,18,female,Belg,1,19,guess,win,5,left,15,guess_outcome,0,undefined,0,0,335,263147,452865
23,18,female,Belg,1,19,ITC,win,5,left,15,ITC_start,1813,space,0,0,335,261330,454682
23,18,female,Belg,1,19,ITC,win,5,left,15,ITC_choice,1718,j,0,0,335,259606,456406
23,18,female,Belg,1,19,ITC,win,5,left,15,ITC_wait,0,undefined,0,0,335,259599,456413
23,18,female,Belg,1,19,ITC,win,5,left,15,ITC_collect,759,k,0,0,335,258832,457180
23,18,female,Belg,1,19,ITC,win,5,left,15,ITC_outcome,0,undefined,0,0,350,257817,458195
23,18,female,Belg,1,20,guess,loss,5,left,13,guess_start,306,space,0,0,350,257506,458506
23,18,female,Belg,1,20,guess,loss,5,left,13,guess_choice,1134,j,0,0,350,256364,459648
23,18,female,Belg,1,20,guess,loss,5,left,13,guess_outcome,0,undefined,0,0,335,254797,461215
23,18,female,Belg,1,20,ITC,loss,5,left,13,ITC_start,896,space,0,0,335,253897,462115
23,18,female,Belg,1,20,ITC,loss,5,left,13,ITC_choice,1240,j,0,0,335,252652,463360
23,18,female,Belg,1,20,ITC,loss,5,left,13,ITC_wait,0,undefined,0,0,335,252642,463370
23,18,female,Belg,1,20,ITC,loss,5,left,13,ITC_collect,778,k,0,0,335,251859,464153
23,18,female,Belg,1,20,ITC,loss,5,left,13,ITC_outcome,0,undefined,0,0,348,250847,465165
23,18,female,Belg,1,21,guess,neutral,10,left,6,guess_start,433,space,0,0,348,250411,465601
23,18,female,Belg,1,21,guess,neutral,10,left,6,guess_choice,1481,j,0,0,348,248921,467091
23,18,female,Belg,1,21,guess,neutral,10,left,6,guess_outcome,0,undefined,0,0,348,247353,468659
23,18,female,Belg,1,21,ITC,neutral,10,left,6,ITC_start,710,space,0,0,348,246639,469373
23,18,female,Belg,1,21,ITC,neutral,10,left,6,ITC_choice,1700,j,0,0,348,244934,471078
23,18,female,Belg,1,21,ITC,neutral,10,left,6,ITC_wait,0,undefined,0,0,348,244927,471085
23,18,female,Belg,1,21,ITC,neutral,10,left,6,ITC_collect,604,k,0,0,348,244313,471699
23,18,female,Belg,1,21,ITC,neutral,10,left,6,ITC_outcome,0,undefined,0,0,354,243298,472714
23,18,female,Belg,1,22,guess,neutral,10,right,4,guess_start,294,space,0,0,354,242998,473014
23,18,female,Belg,1,22,guess,neutral,10,right,4,guess_choice,645,f,0,0,354,242344,473668
23,18,female,Belg,1,22,guess,neutral,10,right,4,guess_outcome,0,undefined,0,0,354,240778,475234
23,18,female,Belg,1,22,ITC,neutral,10,right,4,ITC_start,404,space,0,0,354,240368,475644
23,18,female,Belg,1,22,ITC,neutral,10,right,4,ITC_choice,1729,f,0,0,354,238632,477380
23,18,female,Belg,1,22,ITC,neutral,10,right,4,ITC_wait,0,undefined,0,0,354,238621,477391
23,18,female,Belg,1,22,ITC,neutral,10,right,4,ITC_collect,651,k,0,0,354,237962,478050
23,18,female,Belg,1,22,ITC,neutral,10,right,4,ITC_outcome,0,undefined,0,0,358,236948,479064
23,18,female,Belg,1,23,guess,neutral,5,right,7,guess_start,350,space,0,0,358,236595,479417
23,18,female,Belg,1,23,guess,neutral,5,right,7,guess_choice,548,f,0,0,358,236043,479969
23,18,female,Belg,1,23,guess,neutral,5,right,7,guess_outcome,0,undefined,0,0,358,234478,481534
23,18,female,Belg,1,23,ITC,neutral,5,right,7,ITC_start,368,space,0,0,358,234106,481906
23,18,female,Belg,1,23,ITC,neutral,5,right,7,ITC_choice,1098,f,0,0,358,233005,483007
23,18,female,Belg,1,23,ITC,neutral,5,right,7,ITC_wait,0,undefined,0,0,358,232995,483017
23,18,female,Belg,1,23,ITC,neutral,5,right,7,ITC_collect,555,k,0,0,358,232434,483578
23,18,female,Belg,1,23,ITC,neutral,5,right,7,ITC_outcome,0,undefined,0,0,365,231414,484598
23,18,female,Belg,1,24,guess,win,10,left,3,guess_start,383,space,0,0,365,231026,484986
23,18,female,Belg,1,24,guess,win,10,left,3,guess_choice,828,f,0,0,365,230191,485821
23,18,female,Belg,1,24,guess,win,10,left,3,guess_outcome,0,undefined,0,0,385,228626,487386
23,18,female,Belg,1,24,ITC,win,10,left,3,ITC_start,531,space,0,0,385,228090,487922
23,18,female,Belg,1,24,ITC,win,10,left,3,ITC_choice,1658,j,0,0,385,226427,489585
23,18,female,Belg,1,24,ITC,win,10,left,3,ITC_wait,0,undefined,0,0,385,226421,489591
23,18,female,Belg,1,24,ITC,win,10,left,3,ITC_collect,422,k,0,0,385,225989,490023
23,18,female,Belg,1,24,ITC,win,10,left,3,ITC_outcome,0,undefined,0,0,388,224977,491035
23,18,female,Belg,1,25,guess,neutral,5,left,6,guess_start,376,space,0,0,388,224593,491419
23,18,female,Belg,1,25,guess,neutral,5,left,6,guess_choice,635,f,0,0,388,223949,492063
23,18,female,Belg,1,25,guess,neutral,5,left,6,guess_outcome,0,undefined,0,0,388,222387,493625
23,18,female,Belg,1,25,ITC,neutral,5,left,6,ITC_start,953,space,0,0,388,221430,494582
23,18,female,Belg,1,25,ITC,neutral,5,left,6,ITC_choice,1229,j,0,0,388,220195,495817
23,18,female,Belg,1,25,ITC,neutral,5,left,6,ITC_wait,0,undefined,0,0,388,220183,495829
23,18,female,Belg,1,25,ITC,neutral,5,left,6,ITC_collect,981,k,0,0,388,219195,496817
23,18,female,Belg,1,25,ITC,neutral,5,left,6,ITC_outcome,0,undefined,0,0,394,218177,497835
23,18,female,Belg,1,26,guess,loss,5,right,8,guess_start,560,space,0,0,394,217612,498400
23,18,female,Belg,1,26,guess,loss,5,right,8,guess_choice,999,f,0,0,394,216605,499407
23,18,female,Belg,1,26,guess,loss,5,right,8,guess_outcome,0,undefined,0,0,379,215036,500976
23,18,female,Belg,1,26,ITC,loss,5,right,8,ITC_start,651,space,0,0,379,214381,501631
23,18,female,Belg,1,26,ITC,loss,5,right,8,ITC_choice,1087,f,0,0,379,213291,502721
23,18,female,Belg,1,26,ITC,loss,5,right,8,ITC_wait,0,undefined,0,0,379,213282,502730
23,18,female,Belg,1,26,ITC,loss,5,right,8,ITC_collect,1231,k,0,0,379,212046,503966
23,18,female,Belg,1,26,ITC,loss,5,right,8,ITC_outcome,0,undefined,0,0,387,211036,504976
23,18,female,Belg,1,27,guess,loss,10,right,2,guess_start,688,space,0,0,387,210343,505669
23,18,female,Belg,1,27,guess,loss,10,right,2,guess_choice,673,f,0,0,387,209660,506352
23,18,female,Belg,1,27,guess,loss,10,right,2,guess_outcome,0,undefined,0,0,372,208096,507916
23,18,female,Belg,1,27,ITC,loss,10,right,2,ITC_start,747,space,0,0,372,207346,508666
23,18,female,Belg,1,27,ITC,loss,10,right,2,ITC_choice,1609,f,0,0,372,205733,510279
23,18,female,Belg,1,27,ITC,loss,10,right,2,ITC_wait,0,undefined,0,0,372,205726,510286
23,18,female,Belg,1,27,ITC,loss,10,right,2,ITC_collect,665,k,0,0,372,205051,510961
23,18,female,Belg,1,27,ITC,loss,10,right,2,ITC_outcome,0,undefined,0,0,374,204036,511976
23,18,female,Belg,1,28,guess,win,10,right,4,guess_start,478,space,0,0,374,203553,512459
23,18,female,Belg,1,28,guess,win,10,right,4,guess_choice,757,f,0,0,374,202788,513224
23,18,female,Belg,1,28,guess,win,10,right,4,guess_outcome,0,undefined,0,0,394,201226,514786
23,18,female,Belg,1,28,ITC,win,10,right,4,ITC_start,606,space,0,0,394,200615,515397
23,18,female,Belg,1,28,ITC,win,10,right,4,ITC_choice,1914,f,0,0,394,198698,517314
23,18,female,Belg,1,28,ITC,win,10,right,4,ITC_wait,0,undefined,0,0,394,198689,517323
23,18,female,Belg,1,28,ITC,win,10,right,4,ITC_collect,557,k,0,0,394,198125,517887
23,18,female,Belg,1,28,ITC,win,10,right,4,ITC_outcome,0,undefined,0,0,398,197107,518905
23,18,female,Belg,1,29,guess,win,5,right,8,guess_start,444,space,0,0,398,196657,519355
23,18,female,Belg,1,29,guess,win,5,right,8,guess_choice,1516,f,0,0,398,195127,520885
23,18,female,Belg,1,29,guess,win,5,right,8,guess_outcome,0,undefined,0,0,418,193561,522451
23,18,female,Belg,1,29,ITC,win,5,right,8,ITC_start,523,space,0,0,418,193034,522978
23,18,female,Belg,1,29,ITC,win,5,right,8,ITC_choice,1158,f,0,0,418,191873,524139
23,18,female,Belg,1,29,ITC,win,5,right,8,ITC_wait,0,undefined,0,0,418,191864,524148
23,18,female,Belg,1,29,ITC,win,5,right,8,ITC_collect,515,k,0,0,418,191344,524668
23,18,female,Belg,1,29,ITC,win,5,right,8,ITC_outcome,0,undefined,0,0,426,190334,525678
23,18,female,Belg,1,30,guess,neutral,5,left,2,guess_start,712,space,0,0,426,189618,526394
23,18,female,Belg,1,30,guess,neutral,5,left,2,guess_choice,1336,j,0,0,426,188272,527740
23,18,female,Belg,1,30,guess,neutral,5,left,2,guess_outcome,0,undefined,0,0,426,186696,529316
23,18,female,Belg,1,30,ITC,neutral,5,left,2,ITC_start,808,space,0,0,426,185884,530128
23,18,female,Belg,1,30,ITC,neutral,5,left,2,ITC_choice,1934,f,0,0,426,183946,532066
23,18,female,Belg,1,30,ITC,neutral,5,left,2,ITC_wait,0,undefined,0,0,426,178935,537077
23,18,female,Belg,1,30,ITC,neutral,5,left,2,ITC_collect,919,k,0,0,426,178010,538002
23,18,female,Belg,1,30,ITC,neutral,5,left,2,ITC_outcome,0,undefined,0,0,446,176996,539016
23,18,female,Belg,1,31,guess,neutral,10,left,1,guess_start,498,space,0,0,446,176491,539521
23,18,female,Belg,1,31,guess,neutral,10,left,1,guess_choice,829,j,0,0,446,175651,540361
23,18,female,Belg,1,31,guess,neutral,10,left,1,guess_outcome,0,undefined,0,0,446,174086,541926
23,18,female,Belg,1,31,ITC,neutral,10,left,1,ITC_start,897,space,0,0,446,173186,542826
23,18,female,Belg,1,31,ITC,neutral,10,left,1,ITC_choice,2055,j,0,0,446,171125,544887
23,18,female,Belg,1,31,ITC,neutral,10,left,1,ITC_wait,0,undefined,0,0,446,171110,544902
23,18,female,Belg,1,31,ITC,neutral,10,left,1,ITC_collect,701,k,0,0,446,170403,545609
23,18,female,Belg,1,31,ITC,neutral,10,left,1,ITC_outcome,0,undefined,0,0,447,169397,546615
23,18,female,Belg,1,32,guess,win,10,left,1,guess_start,694,space,0,0,447,168699,547313
23,18,female,Belg,1,32,guess,win,10,left,1,guess_choice,981,f,0,0,447,167710,548302
23,18,female,Belg,1,32,guess,win,10,left,1,guess_outcome,0,undefined,0,0,467,166146,549866
23,18,female,Belg,1,32,ITC,win,10,left,1,ITC_start,452,space,0,0,467,165691,550321
23,18,female,Belg,1,32,ITC,win,10,left,1,ITC_choice,1771,j,0,0,467,163915,552097
23,18,female,Belg,1,32,ITC,win,10,left,1,ITC_wait,0,undefined,0,0,467,163907,552105
23,18,female,Belg,1,32,ITC,win,10,left,1,ITC_collect,676,k,0,0,467,163223,552789
23,18,female,Belg,1,32,ITC,win,10,left,1,ITC_outcome,0,undefined,0,0,468,162207,553805
23,18,female,Belg,1,33,guess,neutral,5,left,15,guess_start,640,space,0,0,468,161562,554450
23,18,female,Belg,1,33,guess,neutral,5,left,15,guess_choice,929,f,0,0,468,160624,555388
23,18,female,Belg,1,33,guess,neutral,5,left,15,guess_outcome,0,undefined,0,0,468,159057,556955
23,18,female,Belg,1,33,ITC,neutral,5,left,15,ITC_start,612,space,0,0,468,158441,557571
23,18,female,Belg,1,33,ITC,neutral,5,left,15,ITC_choice,1463,j,0,0,468,156978,559034
23,18,female,Belg,1,33,ITC,neutral,5,left,15,ITC_wait,0,undefined,0,0,468,156967,559045
23,18,female,Belg,1,33,ITC,neutral,5,left,15,ITC_collect,600,k,0,0,468,156364,559648
23,18,female,Belg,1,33,ITC,neutral,5,left,15,ITC_outcome,0,undefined,0,0,483,155348,560664
23,18,female,Belg,1,34,guess,neutral,5,left,8,guess_start,474,space,0,0,483,154867,561145
23,18,female,Belg,1,34,guess,neutral,5,left,8,guess_choice,705,j,0,0,483,154153,561859
23,18,female,Belg,1,34,guess,neutral,5,left,8,guess_outcome,0,undefined,0,0,483,152591,563421
23,18,female,Belg,1,34,ITC,neutral,5,left,8,ITC_start,780,space,0,0,483,151807,564205
23,18,female,Belg,1,34,ITC,neutral,5,left,8,ITC_choice,1219,j,0,0,483,150585,565427
23,18,female,Belg,1,34,ITC,neutral,5,left,8,ITC_wait,0,undefined,0,0,483,150578,565434
23,18,female,Belg,1,34,ITC,neutral,5,left,8,ITC_collect,791,k,0,0,483,149778,566234
23,18,female,Belg,1,34,ITC,neutral,5,left,8,ITC_outcome,0,undefined,0,0,491,148771,567241
23,18,female,Belg,1,35,guess,loss,5,left,16,guess_start,875,space,0,0,491,147892,568120
23,18,female,Belg,1,35,guess,loss,5,left,16,guess_choice,738,f,0,0,491,147147,568865
23,18,female,Belg,1,35,guess,loss,5,left,16,guess_outcome,0,undefined,0,0,476,145576,570436
23,18,female,Belg,1,35,ITC,loss,5,left,16,ITC_start,210,space,0,0,476,145363,570649
23,18,female,Belg,1,35,ITC,loss,5,left,16,ITC_choice,2561,j,0,0,476,142794,573218
23,18,female,Belg,1,35,ITC,loss,5,left,16,ITC_wait,0,undefined,0,0,476,142782,573230
23,18,female,Belg,1,35,ITC,loss,5,left,16,ITC_collect,568,k,0,0,476,142211,573801
23,18,female,Belg,1,35,ITC,loss,5,left,16,ITC_outcome,0,undefined,0,0,492,141201,574811
23,18,female,Belg,1,36,guess,loss,10,left,8,guess_start,453,space,0,0,492,140744,575268
23,18,female,Belg,1,36,guess,loss,10,left,8,guess_choice,726,f,0,0,492,140009,576003
23,18,female,Belg,1,36,guess,loss,10,left,8,guess_outcome,0,undefined,0,0,477,138452,577560
23,18,female,Belg,1,36,ITC,loss,10,left,8,ITC_start,18,space,0,0,477,138431,577581
23,18,female,Belg,1,36,ITC,loss,10,left,8,ITC_choice,1005,j,0,0,477,137421,578591
23,18,female,Belg,1,36,ITC,loss,10,left,8,ITC_wait,0,undefined,0,0,477,137415,578597
23,18,female,Belg,1,36,ITC,loss,10,left,8,ITC_collect,486,k,0,0,477,136922,579090
23,18,female,Belg,1,36,ITC,loss,10,left,8,ITC_outcome,0,undefined,0,0,485,135909,580103
23,18,female,Belg,1,37,guess,loss,5,right,5,guess_start,563,space,0,0,485,135341,580671
23,18,female,Belg,1,37,guess,loss,5,right,5,guess_choice,847,f,0,0,485,134487,581525
23,18,female,Belg,1,37,guess,loss,5,right,5,guess_outcome,0,undefined,0,0,470,132930,583082
23,18,female,Belg,1,37,ITC,loss,5,right,5,ITC_start,895,space,0,0,470,132027,583985
23,18,female,Belg,1,37,ITC,loss,5,right,5,ITC_choice,2401,j,0,0,470,129621,586391
23,18,female,Belg,1,37,ITC,loss,5,right,5,ITC_wait,0,undefined,0,0,470,124608,591404
23,18,female,Belg,1,37,ITC,loss,5,right,5,ITC_collect,898,k,0,0,470,123706,592306
23,18,female,Belg,1,37,ITC,loss,5,right,5,ITC_outcome,0,undefined,0,0,490,122691,593321
23,18,female,Belg,1,38,guess,win,5,right,5,guess_start,499,space,0,0,490,122187,593825
23,18,female,Belg,1,38,guess,win,5,right,5,guess_choice,529,f,0,0,490,121647,594365
23,18,female,Belg,1,38,guess,win,5,right,5,guess_outcome,0,undefined,0,0,510,120081,595931
23,18,female,Belg,1,38,ITC,win,5,right,5,ITC_start,602,space,0,0,510,119475,596537
23,18,female,Belg,1,38,ITC,win,5,right,5,ITC_choice,1904,j,0,0,510,117568,598444
23,18,female,Belg,1,38,ITC,win,5,right,5,ITC_wait,0,undefined,0,0,510,112561,603451
23,18,female,Belg,1,38,ITC,win,5,right,5,ITC_collect,913,k,0,0,510,111645,604367
23,18,female,Belg,1,38,ITC,win,5,right,5,ITC_outcome,0,undefined,0,0,530,110631,605381
23,18,female,Belg,1,39,guess,neutral,5,left,5,guess_start,592,space,0,0,530,110034,605978
23,18,female,Belg,1,39,guess,neutral,5,left,5,guess_choice,722,f,0,0,530,109299,606713
23,18,female,Belg,1,39,guess,neutral,5,left,5,guess_outcome,0,undefined,0,0,530,107730,608282
23,18,female,Belg,1,39,ITC,neutral,5,left,5,ITC_start,467,space,0,0,530,107260,608752
23,18,female,Belg,1,39,ITC,neutral,5,left,5,ITC_choice,1996,f,0,0,530,105260,610752
23,18,female,Belg,1,39,ITC,neutral,5,left,5,ITC_wait,0,undefined,0,0,530,100248,615764
23,18,female,Belg,1,39,ITC,neutral,5,left,5,ITC_collect,612,k,0,0,530,99632,616380
23,18,female,Belg,1,39,ITC,neutral,5,left,5,ITC_outcome,0,undefined,0,0,550,98620,617392
23,18,female,Belg,1,40,guess,neutral,5,left,14,guess_start,721,space,0,0,550,97894,618118
23,18,female,Belg,1,40,guess,neutral,5,left,14,guess_choice,600,f,0,0,550,97285,618727
23,18,female,Belg,1,40,guess,neutral,5,left,14,guess_outcome,0,undefined,0,0,550,95720,620292
23,18,female,Belg,1,40,ITC,neutral,5,left,14,ITC_start,625,space,0,0,550,95092,620920
23,18,female,Belg,1,40,ITC,neutral,5,left,14,ITC_choice,1136,j,0,0,550,93951,622061
23,18,female,Belg,1,40,ITC,neutral,5,left,14,ITC_wait,0,undefined,0,0,550,93939,622073
23,18,female,Belg,1,40,ITC,neutral,5,left,14,ITC_collect,690,k,0,0,550,93246,622766
23,18,female,Belg,1,40,ITC,neutral,5,left,14,ITC_outcome,0,undefined,0,0,564,92230,623782
23,18,female,Belg,1,41,guess,loss,10,right,4,guess_start,536,space,0,0,564,91687,624325
23,18,female,Belg,1,41,guess,loss,10,right,4,guess_choice,563,f,0,0,564,91115,624897
23,18,female,Belg,1,41,guess,loss,10,right,4,guess_outcome,0,undefined,0,0,549,89540,626472
23,18,female,Belg,1,41,ITC,loss,10,right,4,ITC_start,623,space,0,0,549,88912,627100
23,18,female,Belg,1,41,ITC,loss,10,right,4,ITC_choice,1158,f,0,0,549,87749,628263
23,18,female,Belg,1,41,ITC,loss,10,right,4,ITC_wait,0,undefined,0,0,549,87741,628271
23,18,female,Belg,1,41,ITC,loss,10,right,4,ITC_collect,619,k,0,0,549,87117,628895
23,18,female,Belg,1,41,ITC,loss,10,right,4,ITC_outcome,0,undefined,0,0,553,86101,629911
23,18,female,Belg,1,42,guess,loss,5,right,4,guess_start,274,space,0,0,553,85821,630191
23,18,female,Belg,1,42,guess,loss,5,right,4,guess_choice,570,f,0,0,553,85239,630773
23,18,female,Belg,1,42,guess,loss,5,right,4,guess_outcome,0,undefined,0,0,538,83680,632332
23,18,female,Belg,1,42,ITC,loss,5,right,4,ITC_start,394,space,0,0,538,83281,632731
23,18,female,Belg,1,42,ITC,loss,5,right,4,ITC_choice,1800,j,0,0,538,81477,634535
23,18,female,Belg,1,42,ITC,loss,5,right,4,ITC_wait,0,undefined,0,0,538,76461,639551
23,18,female,Belg,1,42,ITC,loss,5,right,4,ITC_collect,571,k,0,0,538,75886,640126
23,18,female,Belg,1,42,ITC,loss,5,right,4,ITC_outcome,0,undefined,0,0,558,74871,641141
23,18,female,Belg,1,43,guess,win,10,left,8,guess_start,520,space,0,0,558,74346,641666
23,18,female,Belg,1,43,guess,win,10,left,8,guess_choice,633,f,0,0,558,73704,642308
23,18,female,Belg,1,43,guess,win,10,left,8,guess_outcome,0,undefined,0,0,578,72141,643871
23,18,female,Belg,1,43,ITC,win,10,left,8,ITC_start,1411,space,0,0,578,70726,645286
23,18,female,Belg,1,43,ITC,win,10,left,8,ITC_choice,1179,j,0,0,578,69545,646467
23,18,female,Belg,1,43,ITC,win,10,left,8,ITC_wait,0,undefined,0,0,578,69539,646473
23,18,female,Belg,1,43,ITC,win,10,left,8,ITC_collect,763,k,0,0,578,68769,647243
23,18,female,Belg,1,43,ITC,win,10,left,8,ITC_outcome,0,undefined,0,0,586,67750,648262
23,18,female,Belg,1,44,guess,loss,5,right,14,guess_start,567,space,0,0,586,67179,648833
23,18,female,Belg,1,44,guess,loss,5,right,14,guess_choice,542,f,0,0,586,66627,649385
23,18,female,Belg,1,44,guess,loss,5,right,14,guess_outcome,0,undefined,0,0,571,65067,650945
23,18,female,Belg,1,44,ITC,loss,5,right,14,ITC_start,809,space,0,0,571,64252,651760
23,18,female,Belg,1,44,ITC,loss,5,right,14,ITC_choice,1156,f,0,0,571,63091,652921
23,18,female,Belg,1,44,ITC,loss,5,right,14,ITC_wait,0,undefined,0,0,571,63085,652927
23,18,female,Belg,1,44,ITC,loss,5,right,14,ITC_collect,609,k,0,0,571,62468,653544
23,18,female,Belg,1,44,ITC,loss,5,right,14,ITC_outcome,0,undefined,0,0,585,61460,654552
23,18,female,Belg,1,45,guess,loss,10,left,1,guess_start,376,space,0,0,585,61080,654932
23,18,female,Belg,1,45,guess,loss,10,left,1,guess_choice,544,f,0,0,585,60528,655484
23,18,female,Belg,1,45,guess,loss,10,left,1,guess_outcome,0,undefined,0,0,570,58961,657051
23,18,female,Belg,1,45,ITC,loss,10,left,1,ITC_start,865,space,0,0,570,58092,657920
23,18,female,Belg,1,45,ITC,loss,10,left,1,ITC_choice,2026,j,0,0,570,56062,659950
23,18,female,Belg,1,45,ITC,loss,10,left,1,ITC_wait,0,undefined,0,0,570,56054,659958
23,18,female,Belg,1,45,ITC,loss,10,left,1,ITC_collect,514,k,0,0,570,55531,660481
23,18,female,Belg,1,45,ITC,loss,10,left,1,ITC_outcome,0,undefined,0,0,571,54521,661491
23,18,female,Belg,1,46,guess,neutral,5,left,1,guess_start,494,space,0,0,571,54022,661990
23,18,female,Belg,1,46,guess,neutral,5,left,1,guess_choice,479,f,0,0,571,53532,662480
23,18,female,Belg,1,46,guess,neutral,5,left,1,guess_outcome,0,undefined,0,0,571,51961,664051
23,18,female,Belg,1,46,ITC,neutral,5,left,1,ITC_start,66,space,0,0,571,51890,664122
23,18,female,Belg,1,46,ITC,neutral,5,left,1,ITC_choice,2097,f,0,0,571,49788,666224
23,18,female,Belg,1,46,ITC,neutral,5,left,1,ITC_wait,0,undefined,0,0,571,44762,671250
23,18,female,Belg,1,46,ITC,neutral,5,left,1,ITC_collect,557,k,0,0,571,44199,671813
23,18,female,Belg,1,46,ITC,neutral,5,left,1,ITC_outcome,0,undefined,0,0,591,43180,672832
23,18,female,Belg,1,47,guess,win,5,left,2,guess_start,577,space,0,0,591,42597,673415
23,18,female,Belg,1,47,guess,win,5,left,2,guess_choice,726,f,0,0,591,41863,674149
23,18,female,Belg,1,47,guess,win,5,left,2,guess_outcome,0,undefined,0,0,611,40300,675712
23,18,female,Belg,1,47,ITC,win,5,left,2,ITC_start,625,space,0,0,611,39672,676340
23,18,female,Belg,1,47,ITC,win,5,left,2,ITC_choice,1729,f,0,0,611,37937,678075
23,18,female,Belg,1,47,ITC,win,5,left,2,ITC_wait,0,undefined,0,0,611,32924,683088
23,18,female,Belg,1,47,ITC,win,5,left,2,ITC_collect,299,k,0,0,611,32621,683391
23,18,female,Belg,1,47,ITC,win,5,left,2,ITC_outcome,0,undefined,0,0,631,31607,684405
23,18,female,Belg,1,48,guess,win,5,right,4,guess_start,410,space,0,0,631,31191,684821
23,18,female,Belg,1,48,guess,win,5,right,4,guess_choice,500,f,0,0,631,30681,685331
23,18,female,Belg,1,48,guess,win,5,right,4,guess_outcome,0,undefined,0,0,651,29118,686894
23,18,female,Belg,1,48,ITC,win,5,right,4,ITC_start,430,space,0,0,651,28683,687329
23,18,female,Belg,1,48,ITC,win,5,right,4,ITC_choice,1832,j,0,0,651,26846,689166
23,18,female,Belg,1,48,ITC,win,5,right,4,ITC_wait,0,undefined,0,0,651,21838,694174
23,18,female,Belg,1,48,ITC,win,5,right,4,ITC_collect,423,k,0,0,651,21410,694602
23,18,female,Belg,1,48,ITC,win,5,right,4,ITC_outcome,0,undefined,0,0,671,20395,695617
23,18,female,Belg,1,49,guess,win,5,right,14,guess_start,550,space,0,0,671,19839,696173
23,18,female,Belg,1,49,guess,win,5,right,14,guess_choice,387,f,0,0,671,19441,696571
23,18,female,Belg,1,49,guess,win,5,right,14,guess_outcome,0,undefined,0,0,691,17877,698135
23,18,female,Belg,1,49,ITC,win,5,right,14,ITC_start,940,space,0,0,691,16931,699081
23,18,female,Belg,1,49,ITC,win,5,right,14,ITC_choice,986,f,0,0,691,15941,700071
23,18,female,Belg,1,49,ITC,win,5,right,14,ITC_wait,0,undefined,0,0,691,15934,700078
23,18,female,Belg,1,49,ITC,win,5,right,14,ITC_collect,585,k,0,0,691,15339,700673
23,18,female,Belg,1,49,ITC,win,5,right,14,ITC_outcome,0,undefined,0,0,705,14327,701685
23,18,female,Belg,1,50,guess,win,5,right,3,guess_start,421,space,0,0,705,13902,702110
23,18,female,Belg,1,50,guess,win,5,right,3,guess_choice,459,f,0,0,705,13432,702580
23,18,female,Belg,1,50,guess,win,5,right,3,guess_outcome,0,undefined,0,0,725,11856,704156
23,18,female,Belg,1,50,ITC,win,5,right,3,ITC_start,540,space,0,0,725,11311,704701
23,18,female,Belg,1,50,ITC,win,5,right,3,ITC_choice,1741,j,0,0,725,9565,706447
23,18,female,Belg,1,50,ITC,win,5,right,3,ITC_wait,0,undefined,0,0,725,4548,711464
23,18,female,Belg,1,50,ITC,win,5,right,3,ITC_collect,517,k,0,0,725,4026,711986
23,18,female,Belg,1,50,ITC,win,5,right,3,ITC_outcome,0,undefined,0,0,745,3015,712997
23,18,female,Belg,1,51,guess,neutral,10,right,3,guess_start,350,space,0,0,745,2660,713352
23,18,female,Belg,1,51,guess,neutral,10,right,3,guess_choice,399,f,0,0,745,2251,713761
23,18,female,Belg,1,51,guess,neutral,10,right,3,guess_outcome,0,undefined,0,0,745,687,715325
23,18,female,Belg,1,51,ITC,neutral,10,right,3,ITC_start,433,space,0,0,745,250,715762
23,18,female,Belg,1,51,ITC,neutral,10,right,3,ITC_choice,0,undefined,0,0,745,-13,716025
23,18,female,Belg,2,52,guess,loss,10,right,7,guess_start,2942,space,0,0,0,477056,729205
23,18,female,Belg,2,52,guess,loss,10,right,7,guess_choice,1937,f,0,0,0,475105,731156
23,18,female,Belg,2,52,guess,loss,10,right,7,guess_outcome,0,undefined,0,0,-15,473541,732720
23,18,female,Belg,2,52,ITC,loss,10,right,7,ITC_start,811,space,0,0,-15,472727,733534
23,18,female,Belg,2,52,ITC,loss,10,right,7,ITC_choice,1425,f,0,0,-15,471298,734963
23,18,female,Belg,2,52,ITC,loss,10,right,7,ITC_wait,0,undefined,0,0,-15,471289,734972
23,18,female,Belg,2,52,ITC,loss,10,right,7,ITC_collect,861,k,0,0,-15,470422,735839
23,18,female,Belg,2,52,ITC,loss,10,right,7,ITC_outcome,0,undefined,0,0,-8,469411,736850
23,18,female,Belg,2,53,guess,win,5,left,13,guess_start,803,space,0,0,-8,468605,737656
23,18,female,Belg,2,53,guess,win,5,left,13,guess_choice,480,f,0,0,-8,468115,738146
23,18,female,Belg,2,53,guess,win,5,left,13,guess_outcome,0,undefined,0,0,12,466550,739711
23,18,female,Belg,2,53,ITC,win,5,left,13,ITC_start,439,space,0,0,12,466105,740156
23,18,female,Belg,2,53,ITC,win,5,left,13,ITC_choice,1231,f,0,0,12,464871,741390
23,18,female,Belg,2,53,ITC,win,5,left,13,ITC_wait,0,undefined,0,0,12,459862,746399
23,18,female,Belg,2,53,ITC,win,5,left,13,ITC_collect,333,k,0,0,12,459525,746736
23,18,female,Belg,2,53,ITC,win,5,left,13,ITC_outcome,0,undefined,0,0,32,458510,747751
23,18,female,Belg,2,54,guess,win,5,left,1,guess_start,388,space,0,0,32,458117,748144
23,18,female,Belg,2,54,guess,win,5,left,1,guess_choice,584,f,0,0,32,457525,748736
23,18,female,Belg,2,54,guess,win,5,left,1,guess_outcome,0,undefined,0,0,52,455961,750300
23,18,female,Belg,2,54,ITC,win,5,left,1,ITC_start,637,space,0,0,52,455321,750940
23,18,female,Belg,2,54,ITC,win,5,left,1,ITC_choice,1017,f,0,0,52,454298,751963
23,18,female,Belg,2,54,ITC,win,5,left,1,ITC_wait,0,undefined,0,0,52,449282,756979
23,18,female,Belg,2,54,ITC,win,5,left,1,ITC_collect,322,k,0,0,52,448955,757306
23,18,female,Belg,2,54,ITC,win,5,left,1,ITC_outcome,0,undefined,0,0,72,447937,758324
23,18,female,Belg,2,55,guess,loss,10,right,6,guess_start,824,space,0,0,72,447107,759154
23,18,female,Belg,2,55,guess,loss,10,right,6,guess_choice,654,f,0,0,72,446445,759816
23,18,female,Belg,2,55,guess,loss,10,right,6,guess_outcome,0,undefined,0,0,57,444882,761379
23,18,female,Belg,2,55,ITC,loss,10,right,6,ITC_start,2720,space,0,0,57,442158,764103
23,18,female,Belg,2,55,ITC,loss,10,right,6,ITC_choice,1914,f,0,0,57,440240,766021
23,18,female,Belg,2,55,ITC,loss,10,right,6,ITC_wait,0,undefined,0,0,57,440233,766028
23,18,female,Belg,2,55,ITC,loss,10,right,6,ITC_collect,609,k,0,0,57,439618,766643
23,18,female,Belg,2,55,ITC,loss,10,right,6,ITC_outcome,0,undefined,0,0,63,438601,767660
23,18,female,Belg,2,56,guess,loss,5,right,15,guess_start,448,space,0,0,63,438148,768113
23,18,female,Belg,2,56,guess,loss,5,right,15,guess_choice,493,f,0,0,63,437648,768613
23,18,female,Belg,2,56,guess,loss,5,right,15,guess_outcome,0,undefined,0,0,48,436082,770179
23,18,female,Belg,2,56,ITC,loss,5,right,15,ITC_start,289,space,0,0,48,435791,770470
23,18,female,Belg,2,56,ITC,loss,5,right,15,ITC_wait,0,undefined,0,0,48,434357,771904
23,18,female,Belg,2,56,ITC,loss,5,right,15,ITC_choice,1417,f,0,0,48,434365,771896
23,18,female,Belg,2,56,ITC,loss,5,right,15,ITC_collect,773,k,0,0,48,433579,772682
23,18,female,Belg,2,56,ITC,loss,5,right,15,ITC_outcome,0,undefined,0,0,63,432572,773689
23,18,female,Belg,2,57,guess,win,10,left,7,guess_start,539,space,0,0,63,432027,774234
23,18,female,Belg,2,57,guess,win,10,left,7,guess_choice,542,f,0,0,63,431476,774785
23,18,female,Belg,2,57,guess,win,10,left,7,guess_outcome,0,undefined,0,0,83,429911,776350
23,18,female,Belg,2,57,ITC,win,10,left,7,ITC_start,370,space,0,0,83,429538,776723
23,18,female,Belg,2,57,ITC,win,10,left,7,ITC_choice,1434,j,0,0,83,428099,778162
23,18,female,Belg,2,57,ITC,win,10,left,7,ITC_wait,0,undefined,0,0,83,428093,778168
23,18,female,Belg,2,57,ITC,win,10,left,7,ITC_collect,619,k,0,0,83,427465,778796
23,18,female,Belg,2,57,ITC,win,10,left,7,ITC_outcome,0,undefined,0,0,90,426452,779809
23,18,female,Belg,2,58,guess,neutral,10,right,8,guess_start,341,space,0,0,90,426107,780154
23,18,female,Belg,2,58,guess,neutral,10,right,8,guess_choice,419,f,0,0,90,425678,780583
23,18,female,Belg,2,58,guess,neutral,10,right,8,guess_outcome,0,undefined,0,0,90,424117,782144
23,18,female,Belg,2,58,ITC,neutral,10,right,8,ITC_start,455,space,0,0,90,423658,782603
23,18,female,Belg,2,58,ITC,neutral,10,right,8,ITC_choice,1251,f,0,0,90,422404,783857
23,18,female,Belg,2,58,ITC,neutral,10,right,8,ITC_wait,0,undefined,0,0,90,422397,783864
23,18,female,Belg,2,58,ITC,neutral,10,right,8,ITC_collect,925,k,0,0,90,421465,784796
23,18,female,Belg,2,58,ITC,neutral,10,right,8,ITC_outcome,0,undefined,0,0,98,420452,785809
23,18,female,Belg,2,59,guess,loss,5,right,12,guess_start,299,space,0,0,98,420148,786113
23,18,female,Belg,2,59,guess,loss,5,right,12,guess_choice,604,f,0,0,98,419536,786725
23,18,female,Belg,2,59,guess,loss,5,right,12,guess_outcome,0,undefined,0,0,83,417969,788292
23,18,female,Belg,2,59,ITC,loss,5,right,12,ITC_start,0,space,0,0,83,417964,788297
23,18,female,Belg,2,59,ITC,loss,5,right,12,ITC_choice,1156,f,0,0,83,416802,789459
23,18,female,Belg,2,59,ITC,loss,5,right,12,ITC_wait,0,undefined,0,0,83,416795,789466
23,18,female,Belg,2,59,ITC,loss,5,right,12,ITC_collect,392,k,0,0,83,416395,789866
23,18,female,Belg,2,59,ITC,loss,5,right,12,ITC_outcome,0,undefined,0,0,95,415382,790879
23,18,female,Belg,2,60,guess,neutral,5,right,16,guess_start,342,space,0,0,95,415036,791225
23,18,female,Belg,2,60,guess,neutral,5,right,16,guess_choice,1427,j,0,0,95,413599,792662
23,18,female,Belg,2,60,guess,neutral,5,right,16,guess_outcome,0,undefined,0,0,95,412028,794233
23,18,female,Belg,2,60,ITC,neutral,5,right,16,ITC_start,591,space,0,0,95,411434,794827
23,18,female,Belg,2,60,ITC,neutral,5,right,16,ITC_choice,1055,f,0,0,95,410374,795887
23,18,female,Belg,2,60,ITC,neutral,5,right,16,ITC_wait,0,undefined,0,0,95,410364,795897
23,18,female,Belg,2,60,ITC,neutral,5,right,16,ITC_collect,639,k,0,0,95,409720,796541
23,18,female,Belg,2,60,ITC,neutral,5,right,16,ITC_outcome,0,undefined,0,0,111,408701,797560
23,18,female,Belg,2,61,guess,loss,5,right,2,guess_start,548,space,0,0,111,408149,798112
23,18,female,Belg,2,61,guess,loss,5,right,2,guess_choice,472,f,0,0,111,407669,798592
23,18,female,Belg,2,61,guess,loss,5,right,2,guess_outcome,0,undefined,0,0,96,406111,800150
23,18,female,Belg,2,61,ITC,loss,5,right,2,ITC_start,440,space,0,0,96,405668,800593
23,18,female,Belg,2,61,ITC,loss,5,right,2,ITC_choice,1738,j,0,0,96,403925,802336
23,18,female,Belg,2,61,ITC,loss,5,right,2,ITC_wait,0,undefined,0,0,96,398912,807349
23,18,female,Belg,2,61,ITC,loss,5,right,2,ITC_collect,322,k,0,0,96,398587,807674
23,18,female,Belg,2,61,ITC,loss,5,right,2,ITC_outcome,0,undefined,0,0,116,397562,808699
23,18,female,Belg,2,62,guess,win,10,right,2,guess_start,471,space,0,0,116,397086,809175
23,18,female,Belg,2,62,guess,win,10,right,2,guess_choice,488,f,0,0,116,396586,809675
23,18,female,Belg,2,62,guess,win,10,right,2,guess_outcome,0,undefined,0,0,136,395012,811249
23,18,female,Belg,2,62,ITC,win,10,right,2,ITC_start,358,space,0,0,136,394649,811612
23,18,female,Belg,2,62,ITC,win,10,right,2,ITC_choice,1445,f,0,0,136,393197,813064
23,18,female,Belg,2,62,ITC,win,10,right,2,ITC_wait,0,undefined,0,0,136,393188,813073
23,18,female,Belg,2,62,ITC,win,10,right,2,ITC_collect,697,k,0,0,136,392485,813776
23,18,female,Belg,2,62,ITC,win,10,right,2,ITC_outcome,0,undefined,0,0,138,391472,814789
23,18,female,Belg,2,63,guess,loss,5,right,6,guess_start,298,space,0,0,138,391169,815092
23,18,female,Belg,2,63,guess,loss,5,right,6,guess_choice,491,f,0,0,138,390668,815593
23,18,female,Belg,2,63,guess,loss,5,right,6,guess_outcome,0,undefined,0,0,123,389103,817158
23,18,female,Belg,2,63,ITC,loss,5,right,6,ITC_start,798,space,0,0,123,388301,817960
23,18,female,Belg,2,63,ITC,loss,5,right,6,ITC_choice,1599,j,0,0,123,386699,819562
23,18,female,Belg,2,63,ITC,loss,5,right,6,ITC_wait,0,undefined,0,0,123,381693,824568
23,18,female,Belg,2,63,ITC,loss,5,right,6,ITC_collect,306,k,0,0,123,381380,824881
23,18,female,Belg,2,63,ITC,loss,5,right,6,ITC_outcome,0,undefined,0,0,143,380372,825889
23,18,female,Belg,2,64,guess,win,5,right,11,guess_start,415,space,0,0,143,379952,826309
23,18,female,Belg,2,64,guess,win,5,right,11,guess_choice,431,f,0,0,143,379514,826747
23,18,female,Belg,2,64,guess,win,5,right,11,guess_outcome,0,undefined,0,0,163,377953,828308
23,18,female,Belg,2,64,ITC,win,5,right,11,ITC_start,416,space,0,0,163,377534,828727
23,18,female,Belg,2,64,ITC,win,5,right,11,ITC_choice,1394,f,0,0,163,376135,830126
23,18,female,Belg,2,64,ITC,win,5,right,11,ITC_wait,0,undefined,0,0,163,376128,830133
23,18,female,Belg,2,64,ITC,win,5,right,11,ITC_collect,660,k,0,0,163,375461,830800
23,18,female,Belg,2,64,ITC,win,5,right,11,ITC_outcome,0,undefined,0,0,174,374442,831819
23,18,female,Belg,2,65,guess,loss,5,right,7,guess_start,343,space,0,0,174,374095,832166
23,18,female,Belg,2,65,guess,loss,5,right,7,guess_choice,397,f,0,0,174,373687,832574
23,18,female,Belg,2,65,guess,loss,5,right,7,guess_outcome,0,undefined,0,0,159,372123,834138
23,18,female,Belg,2,65,ITC,loss,5,right,7,ITC_start,853,space,0,0,159,371267,834994
23,18,female,Belg,2,65,ITC,loss,5,right,7,ITC_choice,2006,j,0,0,159,369256,837005
23,18,female,Belg,2,65,ITC,loss,5,right,7,ITC_wait,0,undefined,0,0,159,364242,842019
23,18,female,Belg,2,65,ITC,loss,5,right,7,ITC_collect,738,k,0,0,159,363500,842761
23,18,female,Belg,2,65,ITC,loss,5,right,7,ITC_outcome,0,undefined,0,0,179,362483,843778
23,18,female,Belg,2,66,guess,neutral,5,left,10,guess_start,388,space,0,0,179,362090,844171
23,18,female,Belg,2,66,guess,neutral,5,left,10,guess_choice,719,f,0,0,179,361358,844903
23,18,female,Belg,2,66,guess,neutral,5,left,10,guess_outcome,0,undefined,0,0,179,359791,846470
23,18,female,Belg,2,66,ITC,neutral,5,left,10,ITC_start,328,space,0,0,179,359459,846802
23,18,female,Belg,2,66,ITC,neutral,5,left,10,ITC_choice,1936,j,0,0,179,357519,848742
23,18,female,Belg,2,66,ITC,neutral,5,left,10,ITC_wait,0,undefined,0,0,179,357506,848755
23,18,female,Belg,2,66,ITC,neutral,5,left,10,ITC_collect,762,k,0,0,179,356734,849527
23,18,female,Belg,2,66,ITC,neutral,5,left,10,ITC_outcome,0,undefined,0,0,189,355723,850538
23,18,female,Belg,2,67,guess,neutral,5,right,3,guess_start,280,space,0,0,189,355439,850822
23,18,female,Belg,2,67,guess,neutral,5,right,3,guess_choice,1682,j,0,0,189,353745,852516
23,18,female,Belg,2,67,guess,neutral,5,right,3,guess_outcome,0,undefined,0,0,189,352183,854078
23,18,female,Belg,2,67,ITC,neutral,5,right,3,ITC_start,485,space,0,0,189,351694,854567
23,18,female,Belg,2,67,ITC,neutral,5,right,3,ITC_choice,1334,j,0,0,189,350355,855906
23,18,female,Belg,2,67,ITC,neutral,5,right,3,ITC_wait,0,undefined,0,0,189,345342,860919
23,18,female,Belg,2,67,ITC,neutral,5,right,3,ITC_collect,269,k,0,0,189,345069,861192
23,18,female,Belg,2,67,ITC,neutral,5,right,3,ITC_outcome,0,undefined,0,0,209,344052,862209
23,18,female,Belg,2,68,guess,win,5,left,12,guess_start,653,space,0,0,209,343394,862867
23,18,female,Belg,2,68,guess,win,5,left,12,guess_choice,611,f,0,0,209,342772,863489
23,18,female,Belg,2,68,guess,win,5,left,12,guess_outcome,0,undefined,0,0,229,341212,865049
23,18,female,Belg,2,68,ITC,win,5,left,12,ITC_start,620,space,0,0,229,340588,865673
23,18,female,Belg,2,68,ITC,win,5,left,12,ITC_choice,1794,j,0,0,229,338792,867469
23,18,female,Belg,2,68,ITC,win,5,left,12,ITC_wait,0,undefined,0,0,229,338786,867475
23,18,female,Belg,2,68,ITC,win,5,left,12,ITC_collect,248,k,0,0,229,338528,867733
23,18,female,Belg,2,68,ITC,win,5,left,12,ITC_outcome,0,undefined,0,0,241,337517,868744
23,18,female,Belg,2,69,guess,loss,5,right,9,guess_start,340,space,0,0,241,337170,869091
23,18,female,Belg,2,69,guess,loss,5,right,9,guess_choice,479,f,0,0,241,336681,869580
23,18,female,Belg,2,69,guess,loss,5,right,9,guess_outcome,0,undefined,0,0,226,335117,871144
23,18,female,Belg,2,69,ITC,loss,5,right,9,ITC_start,1228,space,0,0,226,333883,872378
23,18,female,Belg,2,69,ITC,loss,5,right,9,ITC_choice,1277,j,0,0,226,332596,873665
23,18,female,Belg,2,69,ITC,loss,5,right,9,ITC_wait,0,undefined,0,0,226,327580,878681
23,18,female,Belg,2,69,ITC,loss,5,right,9,ITC_collect,224,k,0,0,226,327352,878909
23,18,female,Belg,2,69,ITC,loss,5,right,9,ITC_outcome,0,undefined,0,0,246,326338,879923
23,18,female,Belg,2,70,guess,win,5,left,6,guess_start,492,space,0,0,246,325841,880420
23,18,female,Belg,2,70,guess,win,5,left,6,guess_choice,504,f,0,0,246,325329,880932
23,18,female,Belg,2,70,guess,win,5,left,6,guess_outcome,0,undefined,0,0,266,323767,882494
23,18,female,Belg,2,70,ITC,win,5,left,6,ITC_start,634,space,0,0,266,323125,883136
23,18,female,Belg,2,70,ITC,win,5,left,6,ITC_choice,1393,f,0,0,266,321728,884533
23,18,female,Belg,2,70,ITC,win,5,left,6,ITC_wait,0,undefined,0,0,266,316710,889551
23,18,female,Belg,2,70,ITC,win,5,left,6,ITC_collect,294,k,0,0,266,316410,889851
23,18,female,Belg,2,70,ITC,win,5,left,6,ITC_outcome,0,undefined,0,0,286,315397,890864
23,18,female,Belg,2,71,guess,neutral,10,right,2,guess_start,433,space,0,0,286,314960,891301
23,18,female,Belg,2,71,guess,neutral,10,right,2,guess_choice,746,f,0,0,286,314205,892056
23,18,female,Belg,2,71,guess,neutral,10,right,2,guess_outcome,0,undefined,0,0,286,312647,893614
23,18,female,Belg,2,71,ITC,neutral,10,right,2,ITC_start,735,space,0,0,286,311908,894353
23,18,female,Belg,2,71,ITC,neutral,10,right,2,ITC_choice,1638,f,0,0,286,310265,895996
23,18,female,Belg,2,71,ITC,neutral,10,right,2,ITC_wait,0,undefined,0,0,286,310259,896002
23,18,female,Belg,2,71,ITC,neutral,10,right,2,ITC_collect,658,k,0,0,286,309591,896670
23,18,female,Belg,2,71,ITC,neutral,10,right,2,ITC_outcome,0,undefined,0,0,288,308573,897688
23,18,female,Belg,2,72,guess,neutral,5,left,4,guess_start,356,space,0,0,288,308212,898049
23,18,female,Belg,2,72,guess,neutral,5,left,4,guess_choice,857,j,0,0,288,307345,898916
23,18,female,Belg,2,72,guess,neutral,5,left,4,guess_outcome,0,undefined,0,0,288,305776,900485
23,18,female,Belg,2,72,ITC,neutral,5,left,4,ITC_start,888,space,0,0,288,304885,901376
23,18,female,Belg,2,72,ITC,neutral,5,left,4,ITC_choice,1321,f,0,0,288,303559,902702
23,18,female,Belg,2,72,ITC,neutral,5,left,4,ITC_wait,0,undefined,0,0,288,298546,907715
23,18,female,Belg,2,72,ITC,neutral,5,left,4,ITC_collect,301,k,0,0,288,298241,908020
23,18,female,Belg,2,72,ITC,neutral,5,left,4,ITC_outcome,0,undefined,0,0,308,297227,909034
23,18,female,Belg,2,73,guess,win,5,left,8,guess_start,665,space,0,0,308,296557,909704
23,18,female,Belg,2,73,guess,win,5,left,8,guess_choice,910,f,0,0,308,295638,910623
23,18,female,Belg,2,73,guess,win,5,left,8,guess_outcome,0,undefined,0,0,328,294077,912184
23,18,female,Belg,2,73,ITC,win,5,left,8,ITC_start,659,space,0,0,328,293414,912847
23,18,female,Belg,2,73,ITC,win,5,left,8,ITC_choice,1710,f,0,0,328,291700,914561
23,18,female,Belg,2,73,ITC,win,5,left,8,ITC_wait,0,undefined,0,0,328,286687,919574
23,18,female,Belg,2,73,ITC,win,5,left,8,ITC_collect,270,k,0,0,328,286412,919849
23,18,female,Belg,2,73,ITC,win,5,left,8,ITC_outcome,0,undefined,0,0,348,285397,920864
23,18,female,Belg,2,74,guess,loss,5,left,9,guess_start,409,space,0,0,348,284984,921277
23,18,female,Belg,2,74,guess,loss,5,left,9,guess_choice,524,f,0,0,348,284453,921808
23,18,female,Belg,2,74,guess,loss,5,left,9,guess_outcome,0,undefined,0,0,333,282880,923381
23,18,female,Belg,2,74,ITC,loss,5,left,9,ITC_start,991,space,0,0,333,281882,924379
23,18,female,Belg,2,74,ITC,loss,5,left,9,ITC_choice,2191,f,0,0,333,279687,926574
23,18,female,Belg,2,74,ITC,loss,5,left,9,ITC_wait,0,undefined,0,0,333,274674,931587
23,18,female,Belg,2,74,ITC,loss,5,left,9,ITC_collect,293,k,0,0,333,274377,931884
23,18,female,Belg,2,74,ITC,loss,5,left,9,ITC_outcome,0,undefined,0,0,353,273363,932898
23,18,female,Belg,2,75,guess,win,5,left,13,guess_start,286,space,0,0,353,273072,933189
23,18,female,Belg,2,75,guess,win,5,left,13,guess_choice,481,f,0,0,353,272581,933680
23,18,female,Belg,2,75,guess,win,5,left,13,guess_outcome,0,undefined,0,0,373,271013,935248
23,18,female,Belg,2,75,ITC,win,5,left,13,ITC_start,592,space,0,0,373,270418,935843
23,18,female,Belg,2,75,ITC,win,5,left,13,ITC_choice,1240,j,0,0,373,269170,937091
23,18,female,Belg,2,75,ITC,win,5,left,13,ITC_wait,0,undefined,0,0,373,269158,937103
23,18,female,Belg,2,75,ITC,win,5,left,13,ITC_collect,470,k,0,0,373,268681,937580
23,18,female,Belg,2,75,ITC,win,5,left,13,ITC_outcome,0,undefined,0,0,386,267673,938588
23,18,female,Belg,2,76,guess,loss,5,left,10,guess_start,343,space,0,0,386,267325,938936
23,18,female,Belg,2,76,guess,loss,5,left,10,guess_choice,411,f,0,0,386,266906,939355
23,18,female,Belg,2,76,guess,loss,5,left,10,guess_outcome,0,undefined,0,0,371,265334,940927
23,18,female,Belg,2,76,ITC,loss,5,left,10,ITC_start,1109,space,0,0,371,264221,942040
23,18,female,Belg,2,76,ITC,loss,5,left,10,ITC_choice,1813,j,0,0,371,262405,943856
23,18,female,Belg,2,76,ITC,loss,5,left,10,ITC_wait,0,undefined,0,0,371,262397,943864
23,18,female,Belg,2,76,ITC,loss,5,left,10,ITC_collect,455,k,0,0,371,261935,944326
23,18,female,Belg,2,76,ITC,loss,5,left,10,ITC_outcome,0,undefined,0,0,381,260917,945344
23,18,female,Belg,2,77,guess,neutral,5,right,5,guess_start,352,space,0,0,381,260559,945702
23,18,female,Belg,2,77,guess,neutral,5,right,5,guess_choice,1123,j,0,0,381,259424,946837
23,18,female,Belg,2,77,guess,neutral,5,right,5,guess_outcome,0,undefined,0,0,381,257864,948397
23,18,female,Belg,2,77,ITC,neutral,5,right,5,ITC_start,365,space,0,0,381,257496,948765
23,18,female,Belg,2,77,ITC,neutral,5,right,5,ITC_choice,1455,j,0,0,381,256036,950225
23,18,female,Belg,2,77,ITC,neutral,5,right,5,ITC_wait,0,undefined,0,0,381,251013,955248
23,18,female,Belg,2,77,ITC,neutral,5,right,5,ITC_collect,423,k,0,0,381,250586,955675
23,18,female,Belg,2,77,ITC,neutral,5,right,5,ITC_outcome,0,undefined,0,0,401,249573,956688
23,18,female,Belg,2,78,guess,win,5,left,2,guess_start,347,space,0,0,401,249219,957042
23,18,female,Belg,2,78,guess,win,5,left,2,guess_choice,752,f,0,0,401,248454,957807
23,18,female,Belg,2,78,guess,win,5,left,2,guess_outcome,0,undefined,0,0,421,246894,959367
23,18,female,Belg,2,78,ITC,win,5,left,2,ITC_start,478,space,0,0,421,246411,959850
23,18,female,Belg,2,78,ITC,win,5,left,2,ITC_choice,1238,f,0,0,421,245168,961093
23,18,female,Belg,2,78,ITC,win,5,left,2,ITC_wait,0,undefined,0,0,421,240154,966107
23,18,female,Belg,2,78,ITC,win,5,left,2,ITC_collect,288,k,0,0,421,239861,966400
23,18,female,Belg,2,78,ITC,win,5,left,2,ITC_outcome,0,undefined,0,0,441,238843,967418
23,18,female,Belg,2,79,guess,win,5,right,14,guess_start,386,space,0,0,441,238453,967808
23,18,female,Belg,2,79,guess,win,5,right,14,guess_choice,613,f,0,0,441,237830,968431
23,18,female,Belg,2,79,guess,win,5,right,14,guess_outcome,0,undefined,0,0,461,236263,969998
23,18,female,Belg,2,79,ITC,win,5,right,14,ITC_start,583,space,0,0,461,235676,970585
23,18,female,Belg,2,79,ITC,win,5,right,14,ITC_choice,1607,f,0,0,461,234061,972200
23,18,female,Belg,2,79,ITC,win,5,right,14,ITC_wait,0,undefined,0,0,461,234053,972208
23,18,female,Belg,2,79,ITC,win,5,right,14,ITC_collect,792,k,0,0,461,233248,973013
23,18,female,Belg,2,79,ITC,win,5,right,14,ITC_outcome,0,undefined,0,0,475,232223,974038
23,18,female,Belg,2,80,guess,neutral,5,right,11,guess_start,337,space,0,0,475,231879,974382
23,18,female,Belg,2,80,guess,neutral,5,right,11,guess_choice,815,f,0,0,475,231052,975209
23,18,female,Belg,2,80,guess,neutral,5,right,11,guess_outcome,0,undefined,0,0,475,229483,976778
23,18,female,Belg,2,80,ITC,neutral,5,right,11,ITC_start,632,space,0,0,475,228848,977413
23,18,female,Belg,2,80,ITC,neutral,5,right,11,ITC_choice,1935,f,0,0,475,226909,979352
23,18,female,Belg,2,80,ITC,neutral,5,right,11,ITC_wait,0,undefined,0,0,475,226900,979361
23,18,female,Belg,2,80,ITC,neutral,5,right,11,ITC_collect,392,k,0,0,475,226501,979760
23,18,female,Belg,2,80,ITC,neutral,5,right,11,ITC_outcome,0,undefined,0,0,486,225494,980767
23,18,female,Belg,2,81,guess,neutral,10,left,7,guess_start,407,space,0,0,486,225081,981180
23,18,female,Belg,2,81,guess,neutral,10,left,7,guess_choice,758,j,0,0,486,224316,981945
23,18,female,Belg,2,81,guess,neutral,10,left,7,guess_outcome,0,undefined,0,0,486,222754,983507
23,18,female,Belg,2,81,ITC,neutral,10,left,7,ITC_start,343,space,0,0,486,222407,983854
23,18,female,Belg,2,81,ITC,neutral,10,left,7,ITC_choice,1722,j,0,0,486,220680,985581
23,18,female,Belg,2,81,ITC,neutral,10,left,7,ITC_wait,0,undefined,0,0,486,220671,985590
23,18,female,Belg,2,81,ITC,neutral,10,left,7,ITC_collect,565,k,0,0,486,220100,986161
23,18,female,Belg,2,81,ITC,neutral,10,left,7,ITC_outcome,0,undefined,0,0,493,219092,987169
23,18,female,Belg,2,82,guess,neutral,10,right,2,guess_start,406,space,0,0,493,218681,987580
23,18,female,Belg,2,82,guess,neutral,10,right,2,guess_choice,685,j,0,0,493,217988,988273
23,18,female,Belg,2,82,guess,neutral,10,right,2,guess_outcome,0,undefined,0,0,493,216424,989837
23,18,female,Belg,2,82,ITC,neutral,10,right,2,ITC_start,832,space,0,0,493,215588,990673
23,18,female,Belg,2,82,ITC,neutral,10,right,2,ITC_choice,1964,f,0,0,493,213624,992637
23,18,female,Belg,2,82,ITC,neutral,10,right,2,ITC_wait,0,undefined,0,0,493,213618,992643
23,18,female,Belg,2,82,ITC,neutral,10,right,2,ITC_collect,314,k,0,0,493,213297,992964
23,18,female,Belg,2,82,ITC,neutral,10,right,2,ITC_outcome,0,undefined,0,0,495,212288,993973
23,18,female,Belg,2,83,guess,win,10,right,6,guess_start,385,space,0,0,495,211899,994362
23,18,female,Belg,2,83,guess,win,10,right,6,guess_choice,552,f,0,0,495,211337,994924
23,18,female,Belg,2,83,guess,win,10,right,6,guess_outcome,0,undefined,0,0,515,209770,996491
23,18,female,Belg,2,83,ITC,win,10,right,6,ITC_start,481,space,0,0,515,209285,996976
23,18,female,Belg,2,83,ITC,win,10,right,6,ITC_choice,1558,f,0,0,515,207723,998538
23,18,female,Belg,2,83,ITC,win,10,right,6,ITC_wait,0,undefined,0,0,515,207711,998550
23,18,female,Belg,2,83,ITC,win,10,right,6,ITC_collect,614,k,0,0,515,207090,999171
23,18,female,Belg,2,83,ITC,win,10,right,6,ITC_outcome,0,undefined,0,0,521,206079,1000182
23,18,female,Belg,2,84,guess,win,5,left,3,guess_start,555,space,0,0,521,205519,1000742
23,18,female,Belg,2,84,guess,win,5,left,3,guess_choice,743,f,0,0,521,204763,1001498
23,18,female,Belg,2,84,guess,win,5,left,3,guess_outcome,0,undefined,0,0,541,203200,1003061
23,18,female,Belg,2,84,ITC,win,5,left,3,ITC_start,604,space,0,0,541,202590,1003671
23,18,female,Belg,2,84,ITC,win,5,left,3,ITC_choice,1662,f,0,0,541,200924,1005337
23,18,female,Belg,2,84,ITC,win,5,left,3,ITC_wait,0,undefined,0,0,541,195920,1010341
23,18,female,Belg,2,84,ITC,win,5,left,3,ITC_collect,340,k,0,0,541,195576,1010685
23,18,female,Belg,2,84,ITC,win,5,left,3,ITC_outcome,0,undefined,0,0,561,194549,1011712
23,18,female,Belg,2,85,guess,loss,10,right,6,guess_start,439,space,0,0,561,194106,1012155
23,18,female,Belg,2,85,guess,loss,10,right,6,guess_choice,783,f,0,0,561,193309,1012952
23,18,female,Belg,2,85,guess,loss,10,right,6,guess_outcome,0,undefined,0,0,546,191749,1014512
23,18,female,Belg,2,85,ITC,loss,10,right,6,ITC_start,999,space,0,0,546,190746,1015515
23,18,female,Belg,2,85,ITC,loss,10,right,6,ITC_choice,1159,f,0,0,546,189583,1016678
23,18,female,Belg,2,85,ITC,loss,10,right,6,ITC_wait,0,undefined,0,0,546,189575,1016686
23,18,female,Belg,2,85,ITC,loss,10,right,6,ITC_collect,334,k,0,0,546,189236,1017025
23,18,female,Belg,2,85,ITC,loss,10,right,6,ITC_outcome,0,undefined,0,0,552,188219,1018042
23,18,female,Belg,2,86,guess,neutral,5,left,10,guess_start,450,space,0,0,552,187765,1018496
23,18,female,Belg,2,86,guess,neutral,5,left,10,guess_choice,582,j,0,0,552,187174,1019087
23,18,female,Belg,2,86,guess,neutral,5,left,10,guess_outcome,0,undefined,0,0,552,185590,1020671
23,18,female,Belg,2,86,ITC,neutral,5,left,10,ITC_start,332,space,0,0,552,185254,1021007
23,18,female,Belg,2,86,ITC,neutral,5,left,10,ITC_choice,1811,j,0,0,552,183436,1022825
23,18,female,Belg,2,86,ITC,neutral,5,left,10,ITC_wait,0,undefined,0,0,552,183425,1022836
23,18,female,Belg,2,86,ITC,neutral,5,left,10,ITC_collect,276,k,0,0,552,183140,1023121
23,18,female,Belg,2,86,ITC,neutral,5,left,10,ITC_outcome,0,undefined,0,0,562,182130,1024131
23,18,female,Belg,2,87,guess,loss,10,right,3,guess_start,363,space,0,0,562,181762,1024499
23,18,female,Belg,2,87,guess,loss,10,right,3,guess_choice,511,f,0,0,562,181242,1025019
23,18,female,Belg,2,87,guess,loss,10,right,3,guess_outcome,0,undefined,0,0,547,179679,1026582
23,18,female,Belg,2,87,ITC,loss,10,right,3,ITC_start,516,space,0,0,547,179159,1027102
23,18,female,Belg,2,87,ITC,loss,10,right,3,ITC_choice,1180,f,0,0,547,177975,1028286
23,18,female,Belg,2,87,ITC,loss,10,right,3,ITC_wait,0,undefined,0,0,547,177967,1028294
23,18,female,Belg,2,87,ITC,loss,10,right,3,ITC_collect,294,k,0,0,547,177669,1028592
23,18,female,Belg,2,87,ITC,loss,10,right,3,ITC_outcome,0,undefined,0,0,550,176660,1029601
23,18,female,Belg,2,88,guess,win,10,left,5,guess_start,875,space,0,0,550,175780,1030481
23,18,female,Belg,2,88,guess,win,10,left,5,guess_choice,567,f,0,0,550,175205,1031056
23,18,female,Belg,2,88,guess,win,10,left,5,guess_outcome,0,undefined,0,0,570,173630,1032631
23,18,female,Belg,2,88,ITC,win,10,left,5,ITC_start,858,space,0,0,570,172768,1033493
23,18,female,Belg,2,88,ITC,win,10,left,5,ITC_choice,1948,j,0,0,570,170816,1035445
23,18,female,Belg,2,88,ITC,win,10,left,5,ITC_wait,0,undefined,0,0,570,170806,1035455
23,18,female,Belg,2,88,ITC,win,10,left,5,ITC_collect,364,k,0,0,570,170429,1035832
23,18,female,Belg,2,88,ITC,win,10,left,5,ITC_outcome,0,undefined,0,0,575,169418,1036843
23,18,female,Belg,2,89,guess,neutral,5,right,14,guess_start,287,space,0,0,575,169124,1037137
23,18,female,Belg,2,89,guess,neutral,5,right,14,guess_choice,871,j,0,0,575,168245,1038016
23,18,female,Belg,2,89,guess,neutral,5,right,14,guess_outcome,0,undefined,0,0,575,166680,1039581
23,18,female,Belg,2,89,ITC,neutral,5,right,14,ITC_start,317,space,0,0,575,166356,1039905
23,18,female,Belg,2,89,ITC,neutral,5,right,14,ITC_choice,1305,f,0,0,575,165048,1041213
23,18,female,Belg,2,89,ITC,neutral,5,right,14,ITC_wait,0,undefined,0,0,575,165034,1041227
23,18,female,Belg,2,89,ITC,neutral,5,right,14,ITC_collect,380,k,0,0,575,164641,1041620
23,18,female,Belg,2,89,ITC,neutral,5,right,14,ITC_outcome,0,undefined,0,0,589,163624,1042637
23,18,female,Belg,2,90,guess,loss,5,right,11,guess_start,955,space,0,0,589,162660,1043601
23,18,female,Belg,2,90,guess,loss,5,right,11,guess_choice,422,f,0,0,589,162230,1044031
23,18,female,Belg,2,90,guess,loss,5,right,11,guess_outcome,0,undefined,0,0,574,160670,1045591
23,18,female,Belg,2,90,ITC,loss,5,right,11,ITC_start,149,space,0,0,574,160516,1045745
23,18,female,Belg,2,90,ITC,loss,5,right,11,ITC_choice,2293,f,0,0,574,158217,1048044
23,18,female,Belg,2,90,ITC,loss,5,right,11,ITC_wait,0,undefined,0,0,574,158206,1048055
23,18,female,Belg,2,90,ITC,loss,5,right,11,ITC_collect,547,k,0,0,574,157646,1048615
23,18,female,Belg,2,90,ITC,loss,5,right,11,ITC_outcome,0,undefined,0,0,585,156640,1049621
23,18,female,Belg,2,91,guess,win,10,right,1,guess_start,405,space,0,0,585,156228,1050033
23,18,female,Belg,2,91,guess,win,10,right,1,guess_choice,606,f,0,0,585,155614,1050647
23,18,female,Belg,2,91,guess,win,10,right,1,guess_outcome,0,undefined,0,0,605,154040,1052221
23,18,female,Belg,2,91,ITC,win,10,right,1,ITC_start,1160,space,0,0,605,152870,1053391
23,18,female,Belg,2,91,ITC,win,10,right,1,ITC_choice,1850,f,0,0,605,151015,1055246
23,18,female,Belg,2,91,ITC,win,10,right,1,ITC_wait,0,undefined,0,0,605,151007,1055254
23,18,female,Belg,2,91,ITC,win,10,right,1,ITC_collect,260,k,0,0,605,150740,1055521
23,18,female,Belg,2,91,ITC,win,10,right,1,ITC_outcome,0,undefined,0,0,606,149724,1056537
23,18,female,Belg,2,92,guess,neutral,10,left,3,guess_start,357,space,0,0,606,149362,1056899
23,18,female,Belg,2,92,guess,neutral,10,left,3,guess_choice,659,f,0,0,606,148688,1057573
23,18,female,Belg,2,92,guess,neutral,10,left,3,guess_outcome,0,undefined,0,0,606,147124,1059137
23,18,female,Belg,2,92,ITC,neutral,10,left,3,ITC_start,312,space,0,0,606,146809,1059452
23,18,female,Belg,2,92,ITC,neutral,10,left,3,ITC_choice,1505,j,0,0,606,145298,1060963
23,18,female,Belg,2,92,ITC,neutral,10,left,3,ITC_wait,0,undefined,0,0,606,145289,1060972
23,18,female,Belg,2,92,ITC,neutral,10,left,3,ITC_collect,352,k,0,0,606,144931,1061330
23,18,female,Belg,2,92,ITC,neutral,10,left,3,ITC_outcome,0,undefined,0,0,609,143924,1062337
23,18,female,Belg,2,93,guess,neutral,10,right,4,guess_start,346,space,0,0,609,143573,1062688
23,18,female,Belg,2,93,guess,neutral,10,right,4,guess_choice,739,j,0,0,609,142826,1063435
23,18,female,Belg,2,93,guess,neutral,10,right,4,guess_outcome,0,undefined,0,0,609,141264,1064997
23,18,female,Belg,2,93,ITC,neutral,10,right,4,ITC_start,383,space,0,0,609,140877,1065384
23,18,female,Belg,2,93,ITC,neutral,10,right,4,ITC_choice,1319,f,0,0,609,139550,1066711
23,18,female,Belg,2,93,ITC,neutral,10,right,4,ITC_wait,0,undefined,0,0,609,139545,1066716
23,18,female,Belg,2,93,ITC,neutral,10,right,4,ITC_collect,435,k,0,0,609,139102,1067159
23,18,female,Belg,2,93,ITC,neutral,10,right,4,ITC_outcome,0,undefined,0,0,613,138094,1068167
23,18,female,Belg,2,94,guess,neutral,10,left,1,guess_start,457,space,0,0,613,137632,1068629
23,18,female,Belg,2,94,guess,neutral,10,left,1,guess_choice,584,f,0,0,613,137039,1069222
23,18,female,Belg,2,94,guess,neutral,10,left,1,guess_outcome,0,undefined,0,0,613,135466,1070795
23,18,female,Belg,2,94,ITC,neutral,10,left,1,ITC_start,564,space,0,0,613,134896,1071365
23,18,female,Belg,2,94,ITC,neutral,10,left,1,ITC_choice,1443,j,0,0,613,133446,1072815
23,18,female,Belg,2,94,ITC,neutral,10,left,1,ITC_wait,0,undefined,0,0,613,133437,1072824
23,18,female,Belg,2,94,ITC,neutral,10,left,1,ITC_collect,297,k,0,0,613,133130,1073131
23,18,female,Belg,2,94,ITC,neutral,10,left,1,ITC_outcome,0,undefined,0,0,614,132116,1074145
23,18,female,Belg,2,95,guess,win,5,right,12,guess_start,481,space,0,0,614,131629,1074632
23,18,female,Belg,2,95,guess,win,5,right,12,guess_choice,469,f,0,0,614,131149,1075112
23,18,female,Belg,2,95,guess,win,5,right,12,guess_outcome,0,undefined,0,0,634,129583,1076678
23,18,female,Belg,2,95,ITC,win,5,right,12,ITC_start,757,space,0,0,634,128823,1077438
23,18,female,Belg,2,95,ITC,win,5,right,12,ITC_choice,1598,f,0,0,634,127220,1079041
23,18,female,Belg,2,95,ITC,win,5,right,12,ITC_wait,0,undefined,0,0,634,127211,1079050
23,18,female,Belg,2,95,ITC,win,5,right,12,ITC_collect,336,k,0,0,634,126861,1079400
23,18,female,Belg,2,95,ITC,win,5,right,12,ITC_outcome,0,undefined,0,0,646,125840,1080421
23,18,female,Belg,2,96,guess,neutral,5,left,13,guess_start,473,space,0,0,646,125361,1080900
23,18,female,Belg,2,96,guess,neutral,5,left,13,guess_choice,1819,f,0,0,646,123533,1082728
23,18,female,Belg,2,96,guess,neutral,5,left,13,guess_outcome,0,undefined,0,0,646,121969,1084292
23,18,female,Belg,2,96,ITC,neutral,5,left,13,ITC_start,687,space,0,0,646,121276,1084985
23,18,female,Belg,2,96,ITC,neutral,5,left,13,ITC_choice,1361,j,0,0,646,119909,1086352
23,18,female,Belg,2,96,ITC,neutral,5,left,13,ITC_wait,0,undefined,0,0,646,119899,1086362
23,18,female,Belg,2,96,ITC,neutral,5,left,13,ITC_collect,267,k,0,0,646,119624,1086637
23,18,female,Belg,2,96,ITC,neutral,5,left,13,ITC_outcome,0,undefined,0,0,659,118614,1087647
23,18,female,Belg,2,97,guess,win,5,left,11,guess_start,394,space,0,0,659,118214,1088047
23,18,female,Belg,2,97,guess,win,5,left,11,guess_choice,522,f,0,0,659,117683,1088578
23,18,female,Belg,2,97,guess,win,5,left,11,guess_outcome,0,undefined,0,0,679,116114,1090147
23,18,female,Belg,2,97,ITC,win,5,left,11,ITC_start,470,space,0,0,679,115641,1090620
23,18,female,Belg,2,97,ITC,win,5,left,11,ITC_choice,1118,j,0,0,679,114520,1091741
23,18,female,Belg,2,97,ITC,win,5,left,11,ITC_wait,0,undefined,0,0,679,114509,1091752
23,18,female,Belg,2,97,ITC,win,5,left,11,ITC_collect,282,k,0,0,679,114223,1092038
23,18,female,Belg,2,97,ITC,win,5,left,11,ITC_outcome,0,undefined,0,0,690,113205,1093056
23,18,female,Belg,2,98,guess,loss,10,left,8,guess_start,338,space,0,0,690,112862,1093399
23,18,female,Belg,2,98,guess,loss,10,left,8,guess_choice,424,f,0,0,690,112427,1093834
23,18,female,Belg,2,98,guess,loss,10,left,8,guess_outcome,0,undefined,0,0,675,110864,1095397
23,18,female,Belg,2,98,ITC,loss,10,left,8,ITC_start,221,space,0,0,675,110638,1095623
23,18,female,Belg,2,98,ITC,loss,10,left,8,ITC_choice,1528,j,0,0,675,109107,1097154
23,18,female,Belg,2,98,ITC,loss,10,left,8,ITC_wait,0,undefined,0,0,675,109101,1097160
23,18,female,Belg,2,98,ITC,loss,10,left,8,ITC_collect,271,k,0,0,675,108821,1097440
23,18,female,Belg,2,98,ITC,loss,10,left,8,ITC_outcome,0,undefined,0,0,683,107793,1098468
23,18,female,Belg,2,99,guess,loss,5,right,12,guess_start,291,space,0,0,683,107495,1098766
23,18,female,Belg,2,99,guess,loss,5,right,12,guess_choice,727,f,0,0,683,106757,1099504
23,18,female,Belg,2,99,guess,loss,5,right,12,guess_outcome,0,undefined,0,0,668,105190,1101071
23,18,female,Belg,2,99,ITC,loss,5,right,12,ITC_start,642,space,0,0,668,104543,1101718
23,18,female,Belg,2,99,ITC,loss,5,right,12,ITC_choice,2161,j,0,0,668,102377,1103884
23,18,female,Belg,2,99,ITC,loss,5,right,12,ITC_wait,0,undefined,0,0,668,97372,1108889
23,18,female,Belg,2,99,ITC,loss,5,right,12,ITC_collect,381,k,0,0,668,96986,1109275
23,18,female,Belg,2,99,ITC,loss,5,right,12,ITC_outcome,0,undefined,0,0,688,95970,1110291
23,18,female,Belg,2,100,guess,neutral,5,right,9,guess_start,439,space,0,0,688,95527,1110734
23,18,female,Belg,2,100,guess,neutral,5,right,9,guess_choice,604,f,0,0,688,94913,1111348
23,18,female,Belg,2,100,guess,neutral,5,right,9,guess_outcome,0,undefined,0,0,688,93352,1112909
23,18,female,Belg,2,100,ITC,neutral,5,right,9,ITC_start,958,space,0,0,688,92391,1113870
23,18,female,Belg,2,100,ITC,neutral,5,right,9,ITC_choice,1433,j,0,0,688,90953,1115308
23,18,female,Belg,2,100,ITC,neutral,5,right,9,ITC_wait,0,undefined,0,0,688,85933,1120328
23,18,female,Belg,2,100,ITC,neutral,5,right,9,ITC_collect,366,k,0,0,688,85562,1120699
23,18,female,Belg,2,100,ITC,neutral,5,right,9,ITC_outcome,0,undefined,0,0,708,84542,1121719
23,18,female,Belg,2,101,guess,loss,10,right,7,guess_start,448,space,0,0,708,84084,1122177
23,18,female,Belg,2,101,guess,loss,10,right,7,guess_choice,550,f,0,0,708,83522,1122739
23,18,female,Belg,2,101,guess,loss,10,right,7,guess_outcome,0,undefined,0,0,693,81963,1124298
23,18,female,Belg,2,101,ITC,loss,10,right,7,ITC_start,2542,space,0,0,693,79417,1126844
23,18,female,Belg,2,101,ITC,loss,10,right,7,ITC_choice,1587,f,0,0,693,77824,1128437
23,18,female,Belg,2,101,ITC,loss,10,right,7,ITC_wait,0,undefined,0,0,693,77817,1128444
23,18,female,Belg,2,101,ITC,loss,10,right,7,ITC_collect,302,k,0,0,693,77508,1128753
23,18,female,Belg,2,101,ITC,loss,10,right,7,ITC_outcome,0,undefined,0,0,700,76492,1129769
23,18,female,Belg,2,102,guess,win,5,right,1,guess_start,327,space,0,0,700,76160,1130101
23,18,female,Belg,2,102,guess,win,5,right,1,guess_choice,503,f,0,0,700,75648,1130613
23,18,female,Belg,2,102,guess,win,5,right,1,guess_outcome,0,undefined,0,0,720,74088,1132173
23,18,female,Belg,2,102,ITC,win,5,right,1,ITC_start,784,space,0,0,720,73300,1132961
23,18,female,Belg,2,102,ITC,win,5,right,1,ITC_choice,1182,j,0,0,720,72114,1134147
23,18,female,Belg,2,102,ITC,win,5,right,1,ITC_wait,0,undefined,0,0,720,67093,1139168
23,18,female,Belg,2,102,ITC,win,5,right,1,ITC_collect,284,k,0,0,720,66804,1139457
23,18,female,Belg,2,102,ITC,win,5,right,1,ITC_outcome,0,undefined,0,0,740,65792,1140469
23,18,female,Belg,2,103,guess,win,5,right,15,guess_start,655,space,0,0,740,65130,1141131
23,18,female,Belg,2,103,guess,win,5,right,15,guess_choice,534,f,0,0,740,64588,1141673
23,18,female,Belg,2,103,guess,win,5,right,15,guess_outcome,0,undefined,0,0,760,63014,1143247
23,18,female,Belg,2,103,ITC,win,5,right,15,ITC_start,893,space,0,0,760,62116,1144145
23,18,female,Belg,2,103,ITC,win,5,right,15,ITC_wait,0,undefined,0,0,760,60186,1146075
23,18,female,Belg,2,103,ITC,win,5,right,15,ITC_choice,1914,f,0,0,760,60194,1146067
23,18,female,Belg,2,103,ITC,win,5,right,15,ITC_collect,285,k,0,0,760,59889,1146372
23,18,female,Belg,2,103,ITC,win,5,right,15,ITC_outcome,0,undefined,0,0,775,58872,1147389
23,18,female,Belg,2,104,guess,neutral,10,right,8,guess_start,326,space,0,0,775,58541,1147720
23,18,female,Belg,2,104,guess,neutral,10,right,8,guess_choice,584,f,0,0,775,57948,1148313
23,18,female,Belg,2,104,guess,neutral,10,right,8,guess_outcome,0,undefined,0,0,775,56380,1149881
23,18,female,Belg,2,104,ITC,neutral,10,right,8,ITC_start,746,space,0,0,775,55631,1150630
23,18,female,Belg,2,104,ITC,neutral,10,right,8,ITC_choice,1182,f,0,0,775,54445,1151816
23,18,female,Belg,2,104,ITC,neutral,10,right,8,ITC_wait,0,undefined,0,0,775,54434,1151827
23,18,female,Belg,2,104,ITC,neutral,10,right,8,ITC_collect,303,k,0,0,775,54119,1152142
23,18,female,Belg,2,104,ITC,neutral,10,right,8,ITC_outcome,0,undefined,0,0,783,53093,1153168
23,18,female,Belg,2,105,guess,neutral,5,left,2,guess_start,512,space,0,0,783,52576,1153685
23,18,female,Belg,2,105,guess,neutral,5,left,2,guess_choice,526,f,0,0,783,52042,1154219
23,18,female,Belg,2,105,guess,neutral,5,left,2,guess_outcome,0,undefined,0,0,783,50472,1155789
23,18,female,Belg,2,105,ITC,neutral,5,left,2,ITC_start,549,space,0,0,783,49920,1156341
23,18,female,Belg,2,105,ITC,neutral,5,left,2,ITC_choice,1663,f,0,0,783,48251,1158010
23,18,female,Belg,2,105,ITC,neutral,5,left,2,ITC_wait,0,undefined,0,0,783,43232,1163029
23,18,female,Belg,2,105,ITC,neutral,5,left,2,ITC_collect,317,k,0,0,783,42911,1163350
23,18,female,Belg,2,105,ITC,neutral,5,left,2,ITC_outcome,0,undefined,0,0,803,41902,1164359
23,18,female,Belg,2,106,guess,loss,5,right,15,guess_start,418,space,0,0,803,41480,1164781
23,18,female,Belg,2,106,guess,loss,5,right,15,guess_choice,611,f,0,0,803,40858,1165403
23,18,female,Belg,2,106,guess,loss,5,right,15,guess_outcome,0,undefined,0,0,788,39292,1166969
23,18,female,Belg,2,106,ITC,loss,5,right,15,ITC_start,451,space,0,0,788,38837,1167424
23,18,female,Belg,2,106,ITC,loss,5,right,15,ITC_choice,1108,f,0,0,788,37725,1168536
23,18,female,Belg,2,106,ITC,loss,5,right,15,ITC_wait,0,undefined,0,0,788,37716,1168545
23,18,female,Belg,2,106,ITC,loss,5,right,15,ITC_collect,323,k,0,0,788,37388,1168873
23,18,female,Belg,2,106,ITC,loss,5,right,15,ITC_outcome,0,undefined,0,0,803,36373,1169888
23,18,female,Belg,2,107,guess,win,5,right,10,guess_start,339,space,0,0,803,36028,1170233
23,18,female,Belg,2,107,guess,win,5,right,10,guess_choice,534,f,0,0,803,35487,1170774
23,18,female,Belg,2,107,guess,win,5,right,10,guess_outcome,0,undefined,0,0,823,33919,1172342
23,18,female,Belg,2,107,ITC,win,5,right,10,ITC_start,817,space,0,0,823,33099,1173162
23,18,female,Belg,2,107,ITC,win,5,right,10,ITC_choice,916,f,0,0,823,32182,1174079
23,18,female,Belg,2,107,ITC,win,5,right,10,ITC_wait,0,undefined,0,0,823,32175,1174086
23,18,female,Belg,2,107,ITC,win,5,right,10,ITC_collect,317,k,0,0,823,31851,1174410
23,18,female,Belg,2,107,ITC,win,5,right,10,ITC_outcome,0,undefined,0,0,833,30836,1175425
23,18,female,Belg,2,108,guess,neutral,5,left,3,guess_start,378,space,0,0,833,30453,1175808
23,18,female,Belg,2,108,guess,neutral,5,left,3,guess_choice,348,f,0,0,833,30096,1176165
23,18,female,Belg,2,108,guess,neutral,5,left,3,guess_outcome,0,undefined,0,0,833,28535,1177726
23,18,female,Belg,2,108,ITC,neutral,5,left,3,ITC_start,497,space,0,0,833,28035,1178226
23,18,female,Belg,2,108,ITC,neutral,5,left,3,ITC_choice,1315,f,0,0,833,26716,1179545
23,18,female,Belg,2,108,ITC,neutral,5,left,3,ITC_wait,0,undefined,0,0,833,21705,1184556
23,18,female,Belg,2,108,ITC,neutral,5,left,3,ITC_collect,416,k,0,0,833,21284,1184977
23,18,female,Belg,2,108,ITC,neutral,5,left,3,ITC_outcome,0,undefined,0,0,853,20275,1185986
23,18,female,Belg,2,109,guess,loss,5,left,6,guess_start,322,space,0,0,853,19946,1186315
23,18,female,Belg,2,109,guess,loss,5,left,6,guess_choice,589,f,0,0,853,19344,1186917
23,18,female,Belg,2,109,guess,loss,5,left,6,guess_outcome,0,undefined,0,0,838,17784,1188477
23,18,female,Belg,2,109,ITC,loss,5,left,6,ITC_start,1726,space,0,0,838,16054,1190207
23,18,female,Belg,2,109,ITC,loss,5,left,6,ITC_choice,1884,f,0,0,838,14164,1192097
23,18,female,Belg,2,109,ITC,loss,5,left,6,ITC_wait,0,undefined,0,0,838,9154,1197107
23,18,female,Belg,2,109,ITC,loss,5,left,6,ITC_collect,347,k,0,0,838,8803,1197458
23,18,female,Belg,2,109,ITC,loss,5,left,6,ITC_outcome,0,undefined,0,0,858,7795,1198466
23,18,female,Belg,2,110,guess,loss,10,left,5,guess_start,786,space,0,0,858,7004,1199257
23,18,female,Belg,2,110,guess,loss,10,left,5,guess_choice,524,f,0,0,858,6472,1199789
23,18,female,Belg,2,110,guess,loss,10,left,5,guess_outcome,0,undefined,0,0,843,4905,1201356
23,18,female,Belg,2,110,ITC,loss,10,left,5,ITC_start,470,space,0,0,843,4431,1201830
23,18,female,Belg,2,110,ITC,loss,10,left,5,ITC_choice,2144,j,0,0,843,2282,1203979
23,18,female,Belg,2,110,ITC,loss,10,left,5,ITC_wait,0,undefined,0,0,843,2272,1203989
23,18,female,Belg,2,110,ITC,loss,10,left,5,ITC_collect,333,k,0,0,843,1928,1204333
23,18,female,Belg,2,110,ITC,loss,10,left,5,ITC_outcome,0,undefined,0,0,848,915,1205346
23,18,female,Belg,2,111,guess,win,5,right,5,guess_start,263,space,0,0,848,641,1205620
23,18,female,Belg,2,111,guess,win,5,right,5,guess_choice,520,f,0,0,848,110,1206151
23,18,female,Belg,2,111,guess,win,5,right,5,guess_outcome,0,undefined,0,0,848,-16,1206277
23,18,female,Belg,3,112,guess,loss,5,left,2,guess_start,668,space,0,0,0,479329,1350063
23,18,female,Belg,3,112,guess,loss,5,left,2,guess_choice,724,f,0,0,0,478591,1350801
23,18,female,Belg,3,112,guess,loss,5,left,2,guess_outcome,0,undefined,0,0,-15,477030,1352362
23,18,female,Belg,3,112,ITC,loss,5,left,2,ITC_start,638,space,0,0,-15,476388,1353004
23,18,female,Belg,3,112,ITC,loss,5,left,2,ITC_choice,1221,f,0,0,-15,475164,1354228
23,18,female,Belg,3,112,ITC,loss,5,left,2,ITC_wait,0,undefined,0,0,-15,470150,1359242
23,18,female,Belg,3,112,ITC,loss,5,left,2,ITC_collect,292,k,0,0,-15,469855,1359537
23,18,female,Belg,3,112,ITC,loss,5,left,2,ITC_outcome,0,undefined,0,0,5,468830,1360562
23,18,female,Belg,3,113,guess,loss,10,left,4,guess_start,257,space,0,0,5,468567,1360825
23,18,female,Belg,3,113,guess,loss,10,left,4,guess_choice,502,f,0,0,5,468057,1361335
23,18,female,Belg,3,113,guess,loss,10,left,4,guess_outcome,0,undefined,0,0,-10,466489,1362903
23,18,female,Belg,3,113,ITC,loss,10,left,4,ITC_start,510,space,0,0,-10,465974,1363418
23,18,female,Belg,3,113,ITC,loss,10,left,4,ITC_choice,1386,j,0,0,-10,464585,1364807
23,18,female,Belg,3,113,ITC,loss,10,left,4,ITC_wait,0,undefined,0,0,-10,464573,1364819
23,18,female,Belg,3,113,ITC,loss,10,left,4,ITC_collect,278,k,0,0,-10,464289,1365103
23,18,female,Belg,3,113,ITC,loss,10,left,4,ITC_outcome,0,undefined,0,0,-6,463279,1366113
23,18,female,Belg,3,114,guess,loss,5,left,1,guess_start,262,space,0,0,-6,463013,1366379
23,18,female,Belg,3,114,guess,loss,5,left,1,guess_choice,551,f,0,0,-6,462451,1366941
23,18,female,Belg,3,114,guess,loss,5,left,1,guess_outcome,0,undefined,0,0,-21,460876,1368516
23,18,female,Belg,3,114,ITC,loss,5,left,1,ITC_start,360,space,0,0,-21,460510,1368882
23,18,female,Belg,3,114,ITC,loss,5,left,1,ITC_choice,1350,f,0,0,-21,459156,1370236
23,18,female,Belg,3,114,ITC,loss,5,left,1,ITC_wait,0,undefined,0,0,-21,454140,1375252
23,18,female,Belg,3,114,ITC,loss,5,left,1,ITC_collect,253,k,0,0,-21,453883,1375509
23,18,female,Belg,3,114,ITC,loss,5,left,1,ITC_outcome,0,undefined,0,0,-1,452867,1376525
23,18,female,Belg,3,115,guess,loss,5,left,3,guess_start,502,space,0,0,-1,452352,1377040
23,18,female,Belg,3,115,guess,loss,5,left,3,guess_choice,663,f,0,0,-1,451677,1377715
23,18,female,Belg,3,115,guess,loss,5,left,3,guess_outcome,0,undefined,0,0,-16,450109,1379283
23,18,female,Belg,3,115,ITC,loss,5,left,3,ITC_start,653,space,0,0,-16,449452,1379940
23,18,female,Belg,3,115,ITC,loss,5,left,3,ITC_choice,1060,f,0,0,-16,448387,1381005
23,18,female,Belg,3,115,ITC,loss,5,left,3,ITC_wait,0,undefined,0,0,-16,443378,1386014
23,18,female,Belg,3,115,ITC,loss,5,left,3,ITC_collect,336,k,0,0,-16,443038,1386354
23,18,female,Belg,3,115,ITC,loss,5,left,3,ITC_outcome,0,undefined,0,0,4,442029,1387363
23,18,female,Belg,3,116,guess,loss,5,right,7,guess_start,48,space,0,0,4,441976,1387416
23,18,female,Belg,3,116,guess,loss,5,right,7,guess_choice,544,f,0,0,4,441425,1387967
23,18,female,Belg,3,116,guess,loss,5,right,7,guess_outcome,0,undefined,0,0,-11,439850,1389542
23,18,female,Belg,3,116,ITC,loss,5,right,7,ITC_start,298,space,0,0,-11,439544,1389848
23,18,female,Belg,3,116,ITC,loss,5,right,7,ITC_choice,993,f,0,0,-11,438545,1390847
23,18,female,Belg,3,116,ITC,loss,5,right,7,ITC_wait,0,undefined,0,0,-11,438536,1390856
23,18,female,Belg,3,116,ITC,loss,5,right,7,ITC_collect,322,k,0,0,-11,438208,1391184
23,18,female,Belg,3,116,ITC,loss,5,right,7,ITC_outcome,0,undefined,0,0,-4,437197,1392195
23,18,female,Belg,3,117,guess,neutral,5,left,16,guess_start,259,space,0,0,-4,436932,1392460
23,18,female,Belg,3,117,guess,neutral,5,left,16,guess_choice,378,f,0,0,-4,436544,1392848
23,18,female,Belg,3,117,guess,neutral,5,left,16,guess_outcome,0,undefined,0,0,-4,434970,1394422
23,18,female,Belg,3,117,ITC,neutral,5,left,16,ITC_start,280,space,0,0,-4,434687,1394705
23,18,female,Belg,3,117,ITC,neutral,5,left,16,ITC_choice,948,f,0,0,-4,433735,1395657
23,18,female,Belg,3,117,ITC,neutral,5,left,16,ITC_wait,0,undefined,0,0,-4,428730,1400662
23,18,female,Belg,3,117,ITC,neutral,5,left,16,ITC_collect,573,k,0,0,-4,428151,1401241
23,18,female,Belg,3,117,ITC,neutral,5,left,16,ITC_outcome,0,undefined,0,0,16,427140,1402252
23,18,female,Belg,3,118,guess,win,10,left,4,guess_start,272,space,0,0,16,426863,1402529
23,18,female,Belg,3,118,guess,win,10,left,4,guess_choice,428,f,0,0,16,426423,1402969
23,18,female,Belg,3,118,guess,win,10,left,4,guess_outcome,0,undefined,0,0,36,424849,1404543
23,18,female,Belg,3,118,ITC,win,10,left,4,ITC_start,505,space,0,0,36,424338,1405054
23,18,female,Belg,3,118,ITC,win,10,left,4,ITC_choice,1127,j,0,0,36,423206,1406186
23,18,female,Belg,3,118,ITC,win,10,left,4,ITC_wait,0,undefined,0,0,36,423200,1406192
23,18,female,Belg,3,118,ITC,win,10,left,4,ITC_collect,324,k,0,0,36,422868,1406524
23,18,female,Belg,3,118,ITC,win,10,left,4,ITC_outcome,0,undefined,0,0,40,421850,1407542
23,18,female,Belg,3,119,guess,win,10,right,3,guess_start,242,space,0,0,40,421603,1407789
23,18,female,Belg,3,119,guess,win,10,right,3,guess_choice,409,f,0,0,40,421184,1408208
23,18,female,Belg,3,119,guess,win,10,right,3,guess_outcome,0,undefined,0,0,60,419620,1409772
23,18,female,Belg,3,119,ITC,win,10,right,3,ITC_start,351,space,0,0,60,419264,1410128
23,18,female,Belg,3,119,ITC,win,10,right,3,ITC_choice,1158,f,0,0,60,418101,1411291
23,18,female,Belg,3,119,ITC,win,10,right,3,ITC_wait,0,undefined,0,0,60,418094,1411298
23,18,female,Belg,3,119,ITC,win,10,right,3,ITC_collect,363,k,0,0,60,417723,1411669
23,18,female,Belg,3,119,ITC,win,10,right,3,ITC_outcome,0,undefined,0,0,63,416708,1412684
23,18,female,Belg,3,120,guess,neutral,5,left,15,guess_start,236,space,0,0,63,416468,1412924
23,18,female,Belg,3,120,guess,neutral,5,left,15,guess_choice,685,j,0,0,63,415773,1413619
23,18,female,Belg,3,120,guess,neutral,5,left,15,guess_outcome,0,undefined,0,0,63,414203,1415189
23,18,female,Belg,3,120,ITC,neutral,5,left,15,ITC_start,557,space,0,0,63,413638,1415754
23,18,female,Belg,3,120,ITC,neutral,5,left,15,ITC_choice,1089,j,0,0,63,412546,1416846
23,18,female,Belg,3,120,ITC,neutral,5,left,15,ITC_wait,0,undefined,0,0,63,412534,1416858
23,18,female,Belg,3,120,ITC,neutral,5,left,15,ITC_collect,276,k,0,0,63,412251,1417141
23,18,female,Belg,3,120,ITC,neutral,5,left,15,ITC_outcome,0,undefined,0,0,78,411241,1418151
23,18,female,Belg,3,121,guess,loss,10,right,1,guess_start,283,space,0,0,78,410953,1418439
23,18,female,Belg,3,121,guess,loss,10,right,1,guess_choice,379,f,0,0,78,410564,1418828
23,18,female,Belg,3,121,guess,loss,10,right,1,guess_outcome,0,undefined,0,0,63,409001,1420391
23,18,female,Belg,3,121,ITC,loss,10,right,1,ITC_start,340,space,0,0,63,408656,1420736
23,18,female,Belg,3,121,ITC,loss,10,right,1,ITC_choice,1170,f,0,0,63,407482,1421910
23,18,female,Belg,3,121,ITC,loss,10,right,1,ITC_wait,0,undefined,0,0,63,407477,1421915
23,18,female,Belg,3,121,ITC,loss,10,right,1,ITC_collect,376,k,0,0,63,407095,1422297
23,18,female,Belg,3,121,ITC,loss,10,right,1,ITC_outcome,0,undefined,0,0,64,406080,1423312
23,18,female,Belg,3,122,guess,loss,5,left,8,guess_start,258,space,0,0,64,405818,1423574
23,18,female,Belg,3,122,guess,loss,5,left,8,guess_choice,500,f,0,0,64,405307,1424085
23,18,female,Belg,3,122,guess,loss,5,left,8,guess_outcome,0,undefined,0,0,49,403741,1425651
23,18,female,Belg,3,122,ITC,loss,5,left,8,ITC_start,441,space,0,0,49,403296,1426096
23,18,female,Belg,3,122,ITC,loss,5,left,8,ITC_choice,1272,j,0,0,49,402020,1427372
23,18,female,Belg,3,122,ITC,loss,5,left,8,ITC_wait,0,undefined,0,0,49,402012,1427380
23,18,female,Belg,3,122,ITC,loss,5,left,8,ITC_collect,245,k,0,0,49,401762,1427630
23,18,female,Belg,3,122,ITC,loss,5,left,8,ITC_outcome,0,undefined,0,0,57,400745,1428647
23,18,female,Belg,3,123,guess,neutral,5,left,1,guess_start,274,space,0,0,57,400466,1428926
23,18,female,Belg,3,123,guess,neutral,5,left,1,guess_choice,615,f,0,0,57,399843,1429549
23,18,female,Belg,3,123,guess,neutral,5,left,1,guess_outcome,0,undefined,0,0,57,398266,1431126
23,18,female,Belg,3,123,ITC,neutral,5,left,1,ITC_start,360,space,0,0,57,397903,1431489
23,18,female,Belg,3,123,ITC,neutral,5,left,1,ITC_choice,1201,f,0,0,57,396695,1432697
23,18,female,Belg,3,123,ITC,neutral,5,left,1,ITC_wait,0,undefined,0,0,57,391685,1437707
23,18,female,Belg,3,123,ITC,neutral,5,left,1,ITC_collect,671,k,0,0,57,391009,1438383
23,18,female,Belg,3,123,ITC,neutral,5,left,1,ITC_outcome,0,undefined,0,0,77,389995,1439397
23,18,female,Belg,3,124,guess,loss,5,right,13,guess_start,495,space,0,0,77,389495,1439897
23,18,female,Belg,3,124,guess,loss,5,right,13,guess_choice,516,f,0,0,77,388966,1440426
23,18,female,Belg,3,124,guess,loss,5,right,13,guess_outcome,0,undefined,0,0,62,387405,1441987
23,18,female,Belg,3,124,ITC,loss,5,right,13,ITC_start,1388,space,0,0,62,386012,1443380
23,18,female,Belg,3,124,ITC,loss,5,right,13,ITC_choice,1056,f,0,0,62,384950,1444442
23,18,female,Belg,3,124,ITC,loss,5,right,13,ITC_wait,0,undefined,0,0,62,384941,1444451
23,18,female,Belg,3,124,ITC,loss,5,right,13,ITC_collect,300,k,0,0,62,384636,1444756
23,18,female,Belg,3,124,ITC,loss,5,right,13,ITC_outcome,0,undefined,0,0,75,383625,1445767
23,18,female,Belg,3,125,guess,neutral,5,left,4,guess_start,292,space,0,0,75,383329,1446063
23,18,female,Belg,3,125,guess,neutral,5,left,4,guess_choice,678,f,0,0,75,382643,1446749
23,18,female,Belg,3,125,guess,neutral,5,left,4,guess_outcome,0,undefined,0,0,75,381076,1448316
23,18,female,Belg,3,125,ITC,neutral,5,left,4,ITC_start,359,space,0,0,75,380713,1448679
23,18,female,Belg,3,125,ITC,neutral,5,left,4,ITC_choice,1568,j,0,0,75,379141,1450251
23,18,female,Belg,3,125,ITC,neutral,5,left,4,ITC_wait,0,undefined,0,0,75,379133,1450259
23,18,female,Belg,3,125,ITC,neutral,5,left,4,ITC_collect,250,k,0,0,75,378875,1450517
23,18,female,Belg,3,125,ITC,neutral,5,left,4,ITC_outcome,0,undefined,0,0,79,377865,1451527
23,18,female,Belg,3,126,guess,win,10,right,7,guess_start,272,space,0,0,79,377589,1451803
23,18,female,Belg,3,126,guess,win,10,right,7,guess_choice,510,f,0,0,79,377067,1452325
23,18,female,Belg,3,126,guess,win,10,right,7,guess_outcome,0,undefined,0,0,99,375505,1453887
23,18,female,Belg,3,126,ITC,win,10,right,7,ITC_start,395,space,0,0,99,375104,1454288
23,18,female,Belg,3,126,ITC,win,10,right,7,ITC_choice,738,f,0,0,99,374359,1455033
23,18,female,Belg,3,126,ITC,win,10,right,7,ITC_wait,0,undefined,0,0,99,374351,1455041
23,18,female,Belg,3,126,ITC,win,10,right,7,ITC_collect,447,k,0,0,99,373900,1455492
23,18,female,Belg,3,126,ITC,win,10,right,7,ITC_outcome,0,undefined,0,0,106,372883,1456509
23,18,female,Belg,3,127,guess,win,5,right,4,guess_start,266,space,0,0,106,372613,1456779
23,18,female,Belg,3,127,guess,win,5,right,4,guess_choice,431,f,0,0,106,372174,1457218
23,18,female,Belg,3,127,guess,win,5,right,4,guess_outcome,0,undefined,0,0,126,370614,1458778
23,18,female,Belg,3,127,ITC,win,5,right,4,ITC_start,345,space,0,0,126,370264,1459128
23,18,female,Belg,3,127,ITC,win,5,right,4,ITC_choice,1479,j,0,0,126,368782,1460610
23,18,female,Belg,3,127,ITC,win,5,right,4,ITC_wait,0,undefined,0,0,126,363766,1465626
23,18,female,Belg,3,127,ITC,win,5,right,4,ITC_collect,269,k,0,0,126,363493,1465899
23,18,female,Belg,3,127,ITC,win,5,right,4,ITC_outcome,0,undefined,0,0,146,362475,1466917
23,18,female,Belg,3,128,guess,neutral,5,right,6,guess_start,295,space,0,0,146,362175,1467217
23,18,female,Belg,3,128,guess,neutral,5,right,6,guess_choice,532,f,0,0,146,361634,1467758
23,18,female,Belg,3,128,guess,neutral,5,right,6,guess_outcome,0,undefined,0,0,146,360066,1469326
23,18,female,Belg,3,128,ITC,neutral,5,right,6,ITC_start,644,space,0,0,146,359425,1469967
23,18,female,Belg,3,128,ITC,neutral,5,right,6,ITC_choice,1290,j,0,0,146,358129,1471263
23,18,female,Belg,3,128,ITC,neutral,5,right,6,ITC_wait,0,undefined,0,0,146,353120,1476272
23,18,female,Belg,3,128,ITC,neutral,5,right,6,ITC_collect,616,k,0,0,146,352499,1476893
23,18,female,Belg,3,128,ITC,neutral,5,right,6,ITC_outcome,0,undefined,0,0,166,351492,1477900
23,18,female,Belg,3,129,guess,loss,10,left,2,guess_start,315,space,0,0,166,351173,1478219
23,18,female,Belg,3,129,guess,loss,10,left,2,guess_choice,475,f,0,0,166,350689,1478703
23,18,female,Belg,3,129,guess,loss,10,left,2,guess_outcome,0,undefined,0,0,151,349122,1480270
23,18,female,Belg,3,129,ITC,loss,10,left,2,ITC_start,337,space,0,0,151,348780,1480612
23,18,female,Belg,3,129,ITC,loss,10,left,2,ITC_choice,1280,j,0,0,151,347493,1481899
23,18,female,Belg,3,129,ITC,loss,10,left,2,ITC_wait,0,undefined,0,0,151,347490,1481902
23,18,female,Belg,3,129,ITC,loss,10,left,2,ITC_collect,320,k,0,0,151,347166,1482226
23,18,female,Belg,3,129,ITC,loss,10,left,2,ITC_outcome,0,undefined,0,0,153,346152,1483240
23,18,female,Belg,3,130,guess,loss,5,left,14,guess_start,228,space,0,0,153,345919,1483473
23,18,female,Belg,3,130,guess,loss,5,left,14,guess_choice,455,f,0,0,153,345449,1483943
23,18,female,Belg,3,130,guess,loss,5,left,14,guess_outcome,0,undefined,0,0,138,343872,1485520
23,18,female,Belg,3,130,ITC,loss,5,left,14,ITC_start,309,space,0,0,138,343560,1485832
23,18,female,Belg,3,130,ITC,loss,5,left,14,ITC_choice,843,j,0,0,138,342713,1486679
23,18,female,Belg,3,130,ITC,loss,5,left,14,ITC_wait,0,undefined,0,0,138,342705,1486687
23,18,female,Belg,3,130,ITC,loss,5,left,14,ITC_collect,261,k,0,0,138,342437,1486955
23,18,female,Belg,3,130,ITC,loss,5,left,14,ITC_outcome,0,undefined,0,0,152,341421,1487971
23,18,female,Belg,3,131,guess,neutral,10,left,6,guess_start,265,space,0,0,152,341150,1488242
23,18,female,Belg,3,131,guess,neutral,10,left,6,guess_choice,390,f,0,0,152,340751,1488641
23,18,female,Belg,3,131,guess,neutral,10,left,6,guess_outcome,0,undefined,0,0,152,339183,1490209
23,18,female,Belg,3,131,ITC,neutral,10,left,6,ITC_start,295,space,0,0,152,338884,1490508
23,18,female,Belg,3,131,ITC,neutral,10,left,6,ITC_choice,1131,j,0,0,152,337749,1491643
23,18,female,Belg,3,131,ITC,neutral,10,left,6,ITC_wait,0,undefined,0,0,152,337739,1491653
23,18,female,Belg,3,131,ITC,neutral,10,left,6,ITC_collect,292,k,0,0,152,337443,1491949
23,18,female,Belg,3,131,ITC,neutral,10,left,6,ITC_outcome,0,undefined,0,0,158,336433,1492959
23,18,female,Belg,3,132,guess,loss,5,right,5,guess_start,241,space,0,0,158,336187,1493205
23,18,female,Belg,3,132,guess,loss,5,right,5,guess_choice,433,f,0,0,158,335746,1493646
23,18,female,Belg,3,132,guess,loss,5,right,5,guess_outcome,0,undefined,0,0,143,334173,1495219
23,18,female,Belg,3,132,ITC,loss,5,right,5,ITC_start,342,space,0,0,143,333828,1495564
23,18,female,Belg,3,132,ITC,loss,5,right,5,ITC_choice,1866,j,0,0,143,331958,1497434
23,18,female,Belg,3,132,ITC,loss,5,right,5,ITC_wait,0,undefined,0,0,143,326943,1502449
23,18,female,Belg,3,132,ITC,loss,5,right,5,ITC_collect,327,k,0,0,143,326612,1502780
23,18,female,Belg,3,132,ITC,loss,5,right,5,ITC_outcome,0,undefined,0,0,163,325602,1503790
23,18,female,Belg,3,133,guess,neutral,5,left,8,guess_start,342,space,0,0,163,325255,1504137
23,18,female,Belg,3,133,guess,neutral,5,left,8,guess_choice,563,f,0,0,163,324682,1504710
23,18,female,Belg,3,133,guess,neutral,5,left,8,guess_outcome,0,undefined,0,0,163,323112,1506280
23,18,female,Belg,3,133,ITC,neutral,5,left,8,ITC_start,449,space,0,0,163,322659,1506733
23,18,female,Belg,3,133,ITC,neutral,5,left,8,ITC_choice,1017,f,0,0,163,321638,1507754
23,18,female,Belg,3,133,ITC,neutral,5,left,8,ITC_wait,0,undefined,0,0,163,316633,1512759
23,18,female,Belg,3,133,ITC,neutral,5,left,8,ITC_collect,792,k,0,0,163,315835,1513557
23,18,female,Belg,3,133,ITC,neutral,5,left,8,ITC_outcome,0,undefined,0,0,183,314812,1514580
23,18,female,Belg,3,134,guess,win,10,left,8,guess_start,306,space,0,0,183,314498,1514894
23,18,female,Belg,3,134,guess,win,10,left,8,guess_choice,594,f,0,0,183,313894,1515498
23,18,female,Belg,3,134,guess,win,10,left,8,guess_outcome,0,undefined,0,0,203,312321,1517071
23,18,female,Belg,3,134,ITC,win,10,left,8,ITC_start,362,space,0,0,203,311956,1517436
23,18,female,Belg,3,134,ITC,win,10,left,8,ITC_choice,1132,j,0,0,203,310820,1518572
23,18,female,Belg,3,134,ITC,win,10,left,8,ITC_wait,0,undefined,0,0,203,310810,1518582
23,18,female,Belg,3,134,ITC,win,10,left,8,ITC_collect,249,k,0,0,203,310556,1518836
23,18,female,Belg,3,134,ITC,win,10,left,8,ITC_outcome,0,undefined,0,0,211,309547,1519845
23,18,female,Belg,3,135,guess,loss,5,left,16,guess_start,269,space,0,0,211,309269,1520123
23,18,female,Belg,3,135,guess,loss,5,left,16,guess_choice,400,f,0,0,211,308860,1520532
23,18,female,Belg,3,135,guess,loss,5,left,16,guess_outcome,0,undefined,0,0,196,307291,1522101
23,18,female,Belg,3,135,ITC,loss,5,left,16,ITC_start,235,space,0,0,196,307052,1522340
23,18,female,Belg,3,135,ITC,loss,5,left,16,ITC_choice,935,j,0,0,196,306110,1523282
23,18,female,Belg,3,135,ITC,loss,5,left,16,ITC_wait,0,undefined,0,0,196,306105,1523287
23,18,female,Belg,3,135,ITC,loss,5,left,16,ITC_collect,219,k,0,0,196,305878,1523514
23,18,female,Belg,3,135,ITC,loss,5,left,16,ITC_outcome,0,undefined,0,0,212,304862,1524530
23,18,female,Belg,3,136,guess,win,5,right,6,guess_start,144,space,0,0,212,304712,1524680
23,18,female,Belg,3,136,guess,win,5,right,6,guess_choice,492,f,0,0,212,304212,1525180
23,18,female,Belg,3,136,guess,win,5,right,6,guess_outcome,0,undefined,0,0,232,302652,1526740
23,18,female,Belg,3,136,ITC,win,5,right,6,ITC_start,293,space,0,0,232,302354,1527038
23,18,female,Belg,3,136,ITC,win,5,right,6,ITC_choice,1896,j,0,0,232,300453,1528939
23,18,female,Belg,3,136,ITC,win,5,right,6,ITC_wait,0,undefined,0,0,232,295435,1533957
23,18,female,Belg,3,136,ITC,win,5,right,6,ITC_collect,633,k,0,0,232,294798,1534594
23,18,female,Belg,3,136,ITC,win,5,right,6,ITC_outcome,0,undefined,0,0,252,293783,1535609
23,18,female,Belg,3,137,guess,neutral,5,left,12,guess_start,258,space,0,0,252,293521,1535871
23,18,female,Belg,3,137,guess,neutral,5,left,12,guess_choice,790,j,0,0,252,292722,1536670
23,18,female,Belg,3,137,guess,neutral,5,left,12,guess_outcome,0,undefined,0,0,252,291154,1538238
23,18,female,Belg,3,137,ITC,neutral,5,left,12,ITC_start,282,space,0,0,252,290866,1538526
23,18,female,Belg,3,137,ITC,neutral,5,left,12,ITC_choice,1273,j,0,0,252,289589,1539803
23,18,female,Belg,3,137,ITC,neutral,5,left,12,ITC_wait,0,undefined,0,0,252,289579,1539813
23,18,female,Belg,3,137,ITC,neutral,5,left,12,ITC_collect,207,k,0,0,252,289363,1540029
23,18,female,Belg,3,137,ITC,neutral,5,left,12,ITC_outcome,0,undefined,0,0,264,288352,1541040
23,18,female,Belg,3,138,guess,neutral,10,right,5,guess_start,277,space,0,0,264,288068,1541324
23,18,female,Belg,3,138,guess,neutral,10,right,5,guess_choice,573,f,0,0,264,287486,1541906
23,18,female,Belg,3,138,guess,neutral,10,right,5,guess_outcome,0,undefined,0,0,264,285924,1543468
23,18,female,Belg,3,138,ITC,neutral,10,right,5,ITC_start,244,space,0,0,264,285676,1543716
23,18,female,Belg,3,138,ITC,neutral,10,right,5,ITC_choice,1118,f,0,0,264,284553,1544839
23,18,female,Belg,3,138,ITC,neutral,10,right,5,ITC_wait,0,undefined,0,0,264,284546,1544846
23,18,female,Belg,3,138,ITC,neutral,10,right,5,ITC_collect,324,k,0,0,264,284215,1545177
23,18,female,Belg,3,138,ITC,neutral,10,right,5,ITC_outcome,0,undefined,0,0,269,283204,1546188
23,18,female,Belg,3,139,guess,win,5,right,7,guess_start,299,space,0,0,269,282898,1546494
23,18,female,Belg,3,139,guess,win,5,right,7,guess_choice,727,f,0,0,269,282162,1547230
23,18,female,Belg,3,139,guess,win,5,right,7,guess_outcome,0,undefined,0,0,289,280594,1548798
23,18,female,Belg,3,139,ITC,win,5,right,7,ITC_start,308,space,0,0,289,280282,1549110
23,18,female,Belg,3,139,ITC,win,5,right,7,ITC_choice,1273,j,0,0,289,279006,1550386
23,18,female,Belg,3,139,ITC,win,5,right,7,ITC_wait,0,undefined,0,0,289,273999,1555393
23,18,female,Belg,3,139,ITC,win,5,right,7,ITC_collect,474,k,0,0,289,273520,1555872
23,18,female,Belg,3,139,ITC,win,5,right,7,ITC_outcome,0,undefined,0,0,309,272504,1556888
23,18,female,Belg,3,140,guess,loss,5,right,4,guess_start,297,space,0,0,309,272202,1557190
23,18,female,Belg,3,140,guess,loss,5,right,4,guess_choice,625,f,0,0,309,271569,1557823
23,18,female,Belg,3,140,guess,loss,5,right,4,guess_outcome,0,undefined,0,0,294,270000,1559392
23,18,female,Belg,3,140,ITC,loss,5,right,4,ITC_start,683,space,0,0,294,269311,1560081
23,18,female,Belg,3,140,ITC,loss,5,right,4,ITC_choice,1286,j,0,0,294,268014,1561378
23,18,female,Belg,3,140,ITC,loss,5,right,4,ITC_wait,0,undefined,0,0,294,263004,1566388
23,18,female,Belg,3,140,ITC,loss,5,right,4,ITC_collect,386,k,0,0,294,262612,1566780
23,18,female,Belg,3,140,ITC,loss,5,right,4,ITC_outcome,0,undefined,0,0,314,261592,1567800
23,18,female,Belg,3,141,guess,win,10,left,2,guess_start,356,space,0,0,314,261222,1568170
23,18,female,Belg,3,141,guess,win,10,left,2,guess_choice,535,f,0,0,314,260680,1568712
23,18,female,Belg,3,141,guess,win,10,left,2,guess_outcome,0,undefined,0,0,334,259113,1570279
23,18,female,Belg,3,141,ITC,win,10,left,2,ITC_start,930,space,0,0,334,258178,1571214
23,18,female,Belg,3,141,ITC,win,10,left,2,ITC_choice,1559,j,0,0,334,256615,1572777
23,18,female,Belg,3,141,ITC,win,10,left,2,ITC_wait,0,undefined,0,0,334,256607,1572785
23,18,female,Belg,3,141,ITC,win,10,left,2,ITC_collect,146,k,0,0,334,256452,1572940
23,18,female,Belg,3,141,ITC,win,10,left,2,ITC_outcome,0,undefined,0,0,336,255433,1573959
23,18,female,Belg,3,142,guess,neutral,5,left,7,guess_start,254,space,0,0,336,255174,1574218
23,18,female,Belg,3,142,guess,neutral,5,left,7,guess_choice,933,j,0,0,336,254233,1575159
23,18,female,Belg,3,142,guess,neutral,5,left,7,guess_outcome,0,undefined,0,0,336,252663,1576729
23,18,female,Belg,3,142,ITC,neutral,5,left,7,ITC_start,487,space,0,0,336,252170,1577222
23,18,female,Belg,3,142,ITC,neutral,5,left,7,ITC_choice,1529,j,0,0,336,250638,1578754
23,18,female,Belg,3,142,ITC,neutral,5,left,7,ITC_wait,0,undefined,0,0,336,250631,1578761
23,18,female,Belg,3,142,ITC,neutral,5,left,7,ITC_collect,282,k,0,0,336,250341,1579051
23,18,female,Belg,3,142,ITC,neutral,5,left,7,ITC_outcome,0,undefined,0,0,343,249333,1580059
23,18,female,Belg,3,143,guess,win,5,left,9,guess_start,199,space,0,0,343,249127,1580265
23,18,female,Belg,3,143,guess,win,5,left,9,guess_choice,380,f,0,0,343,248738,1580654
23,18,female,Belg,3,143,guess,win,5,left,9,guess_outcome,0,undefined,0,0,363,247163,1582229
23,18,female,Belg,3,143,ITC,win,5,left,9,ITC_start,219,space,0,0,363,246940,1582452
23,18,female,Belg,3,143,ITC,win,5,left,9,ITC_choice,1347,j,0,0,363,245590,1583802
23,18,female,Belg,3,143,ITC,win,5,left,9,ITC_wait,0,undefined,0,0,363,245581,1583811
23,18,female,Belg,3,143,ITC,win,5,left,9,ITC_collect,474,k,0,0,363,245100,1584292
23,18,female,Belg,3,143,ITC,win,5,left,9,ITC_outcome,0,undefined,0,0,372,244092,1585300
23,18,female,Belg,3,144,guess,win,5,left,16,guess_start,281,space,0,0,372,243803,1585589
23,18,female,Belg,3,144,guess,win,5,left,16,guess_choice,474,f,0,0,372,243322,1586070
23,18,female,Belg,3,144,guess,win,5,left,16,guess_outcome,0,undefined,0,0,392,241764,1587628
23,18,female,Belg,3,144,ITC,win,5,left,16,ITC_start,308,space,0,0,392,241451,1587941
23,18,female,Belg,3,144,ITC,win,5,left,16,ITC_choice,1159,j,0,0,392,240288,1589104
23,18,female,Belg,3,144,ITC,win,5,left,16,ITC_wait,0,undefined,0,0,392,240281,1589111
23,18,female,Belg,3,144,ITC,win,5,left,16,ITC_collect,240,k,0,0,392,240033,1589359
23,18,female,Belg,3,144,ITC,win,5,left,16,ITC_outcome,0,undefined,0,0,408,239024,1590368
23,18,female,Belg,3,145,guess,loss,5,left,10,guess_start,262,space,0,0,408,238757,1590635
23,18,female,Belg,3,145,guess,loss,5,left,10,guess_choice,545,f,0,0,408,238205,1591187
