subjectID,age,gender,nationality,block_number,trial_number,trial_type,guess_outcome,delay_time,delay_pos,immediate_amount,stage,respRT,respKey,blur_count,focus_count,total_points,remaining_duration,time_elapsed
50,21,male,Dutch,1,1,guess,win,5,left,2,guess_start,1794,space,0,0,0,478205,337904
50,21,male,Dutch,1,1,guess,win,5,left,2,guess_choice,1680,f,0,0,0,476524,339585
50,21,male,Dutch,1,1,guess,win,5,left,2,guess_outcome,0,undefined,0,0,20,474970,341139
50,21,male,Dutch,1,1,ITC,win,5,left,2,ITC_start,1530,space,0,0,20,473439,342670
50,21,male,Dutch,1,1,ITC,win,5,left,2,ITC_choice,2971,f,0,0,20,470467,345642
50,21,male,Dutch,1,1,ITC,win,5,left,2,ITC_wait,0,undefined,0,0,20,465465,350644
50,21,male,Dutch,1,1,ITC,win,5,left,2,ITC_collect,661,k,0,0,20,464803,351306
50,21,male,Dutch,1,1,ITC,win,5,left,2,ITC_outcome,0,undefined,0,0,40,463800,352309
50,21,male,Dutch,1,2,guess,neutral,10,left,2,guess_start,758,space,0,0,40,463041,353068
50,21,male,Dutch,1,2,guess,neutral,10,left,2,guess_choice,668,j,0,0,40,462371,353738
50,21,male,Dutch,1,2,guess,neutral,10,left,2,guess_outcome,0,undefined,0,0,40,460817,355292
50,21,male,Dutch,1,2,ITC,neutral,10,left,2,ITC_start,660,space,0,0,40,460156,355953
50,21,male,Dutch,1,2,ITC,neutral,10,left,2,ITC_choice,1880,f,0,0,40,458275,357834
50,21,male,Dutch,1,2,ITC,neutral,10,left,2,ITC_wait,0,undefined,0,0,40,448269,367840
50,21,male,Dutch,1,2,ITC,neutral,10,left,2,ITC_collect,926,k,0,0,40,447341,368768
50,21,male,Dutch,1,2,ITC,neutral,10,left,2,ITC_outcome,0,undefined,0,0,60,446338,369771
50,21,male,Dutch,1,3,guess,loss,5,left,10,guess_start,95,space,0,0,60,446242,369867
50,21,male,Dutch,1,3,guess,loss,5,left,10,guess_choice,1556,j,0,0,60,444684,371425
50,21,male,Dutch,1,3,guess,loss,5,left,10,guess_outcome,0,undefined,0,0,45,443131,372978
50,21,male,Dutch,1,3,ITC,loss,5,left,10,ITC_start,1376,space,0,0,45,441754,374355
50,21,male,Dutch,1,3,ITC,loss,5,left,10,ITC_choice,3432,f,0,0,45,438321,377788
50,21,male,Dutch,1,3,ITC,loss,5,left,10,ITC_wait,0,undefined,0,0,45,433319,382790
50,21,male,Dutch,1,3,ITC,loss,5,left,10,ITC_collect,1134,k,0,0,45,432184,383925
50,21,male,Dutch,1,3,ITC,loss,5,left,10,ITC_outcome,0,undefined,0,0,65,431179,384930
50,21,male,Dutch,1,4,guess,loss,5,left,14,guess_start,747,space,0,0,65,430431,385678
50,21,male,Dutch,1,4,guess,loss,5,left,14,guess_choice,1562,f,0,0,65,428867,387242
50,21,male,Dutch,1,4,guess,loss,5,left,14,guess_outcome,0,undefined,0,0,50,427316,388793
50,21,male,Dutch,1,4,ITC,loss,5,left,14,ITC_start,894,space,0,0,50,426420,389689
50,21,male,Dutch,1,4,ITC,loss,5,left,14,ITC_choice,1954,f,0,0,50,424466,391643
50,21,male,Dutch,1,4,ITC,loss,5,left,14,ITC_wait,0,undefined,0,0,50,419463,396646
50,21,male,Dutch,1,4,ITC,loss,5,left,14,ITC_collect,1067,k,0,0,50,418395,397714
50,21,male,Dutch,1,4,ITC,loss,5,left,14,ITC_outcome,0,undefined,0,0,70,417393,398716
50,21,male,Dutch,1,5,guess,win,5,left,11,guess_start,740,space,0,0,70,416652,399457
50,21,male,Dutch,1,5,guess,win,5,left,11,guess_choice,1443,j,0,0,70,415207,400902
50,21,male,Dutch,1,5,guess,win,5,left,11,guess_outcome,0,undefined,0,0,90,413653,402456
50,21,male,Dutch,1,5,ITC,win,5,left,11,ITC_start,261,space,0,0,90,413391,402718
50,21,male,Dutch,1,5,ITC,win,5,left,11,ITC_choice,1567,f,0,0,90,411823,404286
50,21,male,Dutch,1,5,ITC,win,5,left,11,ITC_wait,0,undefined,0,0,90,406822,409287
50,21,male,Dutch,1,5,ITC,win,5,left,11,ITC_collect,1049,k,0,0,90,405772,410337
50,21,male,Dutch,1,5,ITC,win,5,left,11,ITC_outcome,0,undefined,0,0,110,404770,411339
50,21,male,Dutch,1,6,guess,loss,5,right,1,guess_start,402,space,0,0,110,404366,411743
50,21,male,Dutch,1,6,guess,loss,5,right,1,guess_choice,1013,j,0,0,110,403354,412755
50,21,male,Dutch,1,6,guess,loss,5,right,1,guess_outcome,0,undefined,0,0,95,401799,414310
50,21,male,Dutch,1,6,ITC,loss,5,right,1,ITC_start,836,space,0,0,95,400963,415146
50,21,male,Dutch,1,6,ITC,loss,5,right,1,ITC_choice,2251,j,0,0,95,398711,417398
50,21,male,Dutch,1,6,ITC,loss,5,right,1,ITC_wait,0,undefined,0,0,95,393708,422401
50,21,male,Dutch,1,6,ITC,loss,5,right,1,ITC_collect,614,k,0,0,95,393093,423016
50,21,male,Dutch,1,6,ITC,loss,5,right,1,ITC_outcome,0,undefined,0,0,115,392089,424020
50,21,male,Dutch,1,7,guess,win,10,right,6,guess_start,916,space,0,0,115,391172,424937
50,21,male,Dutch,1,7,guess,win,10,right,6,guess_choice,961,j,0,0,115,390209,425900
50,21,male,Dutch,1,7,guess,win,10,right,6,guess_outcome,0,undefined,0,0,135,388655,427454
50,21,male,Dutch,1,7,ITC,win,10,right,6,ITC_start,531,space,0,0,135,388123,427986
50,21,male,Dutch,1,7,ITC,win,10,right,6,ITC_choice,1943,j,0,0,135,386180,429929
50,21,male,Dutch,1,7,ITC,win,10,right,6,ITC_wait,0,undefined,0,0,135,376170,439939
50,21,male,Dutch,1,7,ITC,win,10,right,6,ITC_collect,791,k,0,0,135,375378,440731
50,21,male,Dutch,1,7,ITC,win,10,right,6,ITC_outcome,0,undefined,0,0,155,374376,441733
50,21,male,Dutch,1,8,guess,loss,10,left,5,guess_start,614,space,0,0,155,373761,442348
50,21,male,Dutch,1,8,guess,loss,10,left,5,guess_choice,321,j,0,0,155,373438,442671
50,21,male,Dutch,1,8,guess,loss,10,left,5,guess_outcome,0,undefined,0,0,140,371886,444223
50,21,male,Dutch,1,8,ITC,loss,10,left,5,ITC_start,666,space,0,0,140,371219,444890
50,21,male,Dutch,1,8,ITC,loss,10,left,5,ITC_choice,1189,f,0,0,140,370029,446080
50,21,male,Dutch,1,8,ITC,loss,10,left,5,ITC_wait,0,undefined,0,0,140,360015,456094
50,21,male,Dutch,1,8,ITC,loss,10,left,5,ITC_collect,1298,k,0,0,140,358717,457392
50,21,male,Dutch,1,8,ITC,loss,10,left,5,ITC_outcome,0,undefined,0,0,160,357713,458396
50,21,male,Dutch,1,9,guess,neutral,5,right,11,guess_start,364,space,0,0,160,357348,458761
50,21,male,Dutch,1,9,guess,neutral,5,right,11,guess_choice,2982,f,0,0,160,354363,461746
50,21,male,Dutch,1,9,guess,neutral,5,right,11,guess_outcome,0,undefined,0,0,160,352810,463299
50,21,male,Dutch,1,9,ITC,neutral,5,right,11,ITC_start,867,space,0,0,160,351942,464167
50,21,male,Dutch,1,9,ITC,neutral,5,right,11,ITC_choice,1810,j,0,0,160,350131,465978
50,21,male,Dutch,1,9,ITC,neutral,5,right,11,ITC_wait,0,undefined,0,0,160,345129,470980
50,21,male,Dutch,1,9,ITC,neutral,5,right,11,ITC_collect,661,k,0,0,160,344467,471642
50,21,male,Dutch,1,9,ITC,neutral,5,right,11,ITC_outcome,0,undefined,0,0,180,343464,472645
50,21,male,Dutch,1,10,guess,neutral,10,left,1,guess_start,513,space,0,0,180,342948,473161
50,21,male,Dutch,1,10,guess,neutral,10,left,1,guess_choice,741,f,0,0,180,342205,473904
50,21,male,Dutch,1,10,guess,neutral,10,left,1,guess_outcome,0,undefined,0,0,180,340650,475459
50,21,male,Dutch,1,10,ITC,neutral,10,left,1,ITC_start,461,space,0,0,180,340188,475921
50,21,male,Dutch,1,10,ITC,neutral,10,left,1,ITC_choice,1042,f,0,0,180,339146,476963
50,21,male,Dutch,1,10,ITC,neutral,10,left,1,ITC_wait,0,undefined,0,0,180,329138,486971
50,21,male,Dutch,1,10,ITC,neutral,10,left,1,ITC_collect,458,k,0,0,180,328678,487431
50,21,male,Dutch,1,10,ITC,neutral,10,left,1,ITC_outcome,0,undefined,0,0,200,327676,488433
50,21,male,Dutch,1,11,guess,win,5,left,16,guess_start,500,space,0,0,200,327174,488935
50,21,male,Dutch,1,11,guess,win,5,left,16,guess_choice,1296,j,0,0,200,325877,490232
50,21,male,Dutch,1,11,guess,win,5,left,16,guess_outcome,0,undefined,0,0,220,324323,491786
50,21,male,Dutch,1,11,ITC,win,5,left,16,ITC_start,714,space,0,0,220,323608,492501
50,21,male,Dutch,1,11,ITC,win,5,left,16,ITC_choice,1349,j,0,0,220,322258,493851
50,21,male,Dutch,1,11,ITC,win,5,left,16,ITC_wait,0,undefined,0,0,220,322257,493852
50,21,male,Dutch,1,11,ITC,win,5,left,16,ITC_collect,761,k,0,0,220,321495,494614
50,21,male,Dutch,1,11,ITC,win,5,left,16,ITC_outcome,0,undefined,0,0,236,320490,495619
50,21,male,Dutch,1,12,guess,win,5,left,8,guess_start,491,space,0,0,236,319998,496111
50,21,male,Dutch,1,12,guess,win,5,left,8,guess_choice,910,j,0,0,236,319087,497022
50,21,male,Dutch,1,12,guess,win,5,left,8,guess_outcome,0,undefined,0,0,256,317534,498575
50,21,male,Dutch,1,12,ITC,win,5,left,8,ITC_start,384,space,0,0,256,317150,498959
50,21,male,Dutch,1,12,ITC,win,5,left,8,ITC_choice,1569,f,0,0,256,315580,500529
50,21,male,Dutch,1,12,ITC,win,5,left,8,ITC_wait,0,undefined,0,0,256,310577,505532
50,21,male,Dutch,1,12,ITC,win,5,left,8,ITC_collect,371,k,0,0,256,310205,505904
50,21,male,Dutch,1,12,ITC,win,5,left,8,ITC_outcome,0,undefined,0,0,276,309202,506907
50,21,male,Dutch,1,13,guess,loss,10,right,8,guess_start,443,space,0,0,276,308759,507350
50,21,male,Dutch,1,13,guess,loss,10,right,8,guess_choice,590,j,0,0,276,308167,507942
50,21,male,Dutch,1,13,guess,loss,10,right,8,guess_outcome,0,undefined,0,0,261,306613,509496
50,21,male,Dutch,1,13,ITC,loss,10,right,8,ITC_start,428,space,0,0,261,306184,509925
50,21,male,Dutch,1,13,ITC,loss,10,right,8,ITC_wait,0,undefined,0,0,261,304739,511370
50,21,male,Dutch,1,13,ITC,loss,10,right,8,ITC_choice,1443,f,0,0,261,304741,511368
50,21,male,Dutch,1,13,ITC,loss,10,right,8,ITC_collect,937,k,0,0,261,303801,512308
50,21,male,Dutch,1,13,ITC,loss,10,right,8,ITC_outcome,0,undefined,0,0,269,302798,513311
50,21,male,Dutch,1,14,guess,win,5,left,9,guess_start,364,space,0,0,269,302433,513676
50,21,male,Dutch,1,14,guess,win,5,left,9,guess_choice,451,j,0,0,269,301981,514128
50,21,male,Dutch,1,14,guess,win,5,left,9,guess_outcome,0,undefined,0,0,289,300428,515681
50,21,male,Dutch,1,14,ITC,win,5,left,9,ITC_start,394,space,0,0,289,300034,516075
50,21,male,Dutch,1,14,ITC,win,5,left,9,ITC_choice,1152,f,0,0,289,298882,517227
50,21,male,Dutch,1,14,ITC,win,5,left,9,ITC_wait,0,undefined,0,0,289,293880,522229
50,21,male,Dutch,1,14,ITC,win,5,left,9,ITC_collect,830,k,0,0,289,293049,523060
50,21,male,Dutch,1,14,ITC,win,5,left,9,ITC_outcome,0,undefined,0,0,309,292047,524062
50,21,male,Dutch,1,15,guess,win,5,left,12,guess_start,337,space,0,0,309,291709,524400
50,21,male,Dutch,1,15,guess,win,5,left,12,guess_choice,521,j,0,0,309,291187,524922
50,21,male,Dutch,1,15,guess,win,5,left,12,guess_outcome,0,undefined,0,0,329,289635,526474
50,21,male,Dutch,1,15,ITC,win,5,left,12,ITC_start,345,space,0,0,329,289289,526820
50,21,male,Dutch,1,15,ITC,win,5,left,12,ITC_choice,1414,j,0,0,329,287874,528235
50,21,male,Dutch,1,15,ITC,win,5,left,12,ITC_wait,0,undefined,0,0,329,287871,528238
50,21,male,Dutch,1,15,ITC,win,5,left,12,ITC_collect,1270,k,0,0,329,286600,529509
50,21,male,Dutch,1,15,ITC,win,5,left,12,ITC_outcome,0,undefined,0,0,341,285597,530512
50,21,male,Dutch,1,16,guess,win,10,left,3,guess_start,283,space,0,0,341,285313,530796
50,21,male,Dutch,1,16,guess,win,10,left,3,guess_choice,657,j,0,0,341,284655,531454
50,21,male,Dutch,1,16,guess,win,10,left,3,guess_outcome,0,undefined,0,0,361,283102,533007
50,21,male,Dutch,1,16,ITC,win,10,left,3,ITC_start,321,space,0,0,361,282781,533328
50,21,male,Dutch,1,16,ITC,win,10,left,3,ITC_choice,1002,f,0,0,361,281779,534330
50,21,male,Dutch,1,16,ITC,win,10,left,3,ITC_wait,0,undefined,0,0,361,271774,544335
50,21,male,Dutch,1,16,ITC,win,10,left,3,ITC_collect,569,k,0,0,361,271204,544905
50,21,male,Dutch,1,16,ITC,win,10,left,3,ITC_outcome,0,undefined,0,0,381,270203,545906
50,21,male,Dutch,1,17,guess,win,5,right,15,guess_start,409,space,0,0,381,269793,546316
50,21,male,Dutch,1,17,guess,win,5,right,15,guess_choice,511,j,0,0,381,269280,546829
50,21,male,Dutch,1,17,guess,win,5,right,15,guess_outcome,0,undefined,0,0,401,267728,548381
50,21,male,Dutch,1,17,ITC,win,5,right,15,ITC_start,525,space,0,0,401,267203,548906
50,21,male,Dutch,1,17,ITC,win,5,right,15,ITC_choice,1259,f,0,0,401,265943,550166
50,21,male,Dutch,1,17,ITC,win,5,right,15,ITC_wait,0,undefined,0,0,401,265940,550169
50,21,male,Dutch,1,17,ITC,win,5,right,15,ITC_collect,928,k,0,0,401,265011,551098
50,21,male,Dutch,1,17,ITC,win,5,right,15,ITC_outcome,0,undefined,0,0,416,264010,552099
50,21,male,Dutch,1,18,guess,neutral,5,left,2,guess_start,303,space,0,0,416,263706,552403
50,21,male,Dutch,1,18,guess,neutral,5,left,2,guess_choice,840,f,0,0,416,262865,553244
50,21,male,Dutch,1,18,guess,neutral,5,left,2,guess_outcome,0,undefined,0,0,416,261311,554798
50,21,male,Dutch,1,18,ITC,neutral,5,left,2,ITC_start,520,space,0,0,416,260791,555318
50,21,male,Dutch,1,18,ITC,neutral,5,left,2,ITC_choice,1034,f,0,0,416,259756,556353
50,21,male,Dutch,1,18,ITC,neutral,5,left,2,ITC_wait,0,undefined,0,0,416,254753,561356
50,21,male,Dutch,1,18,ITC,neutral,5,left,2,ITC_collect,602,k,0,0,416,254150,561959
50,21,male,Dutch,1,18,ITC,neutral,5,left,2,ITC_outcome,0,undefined,0,0,436,253147,562962
50,21,male,Dutch,1,19,guess,win,5,right,3,guess_start,546,space,0,0,436,252600,563509
50,21,male,Dutch,1,19,guess,win,5,right,3,guess_choice,700,j,0,0,436,251900,564209
50,21,male,Dutch,1,19,guess,win,5,right,3,guess_outcome,0,undefined,0,0,456,250347,565762
50,21,male,Dutch,1,19,ITC,win,5,right,3,ITC_start,359,space,0,0,456,249987,566122
50,21,male,Dutch,1,19,ITC,win,5,right,3,ITC_choice,1262,j,0,0,456,248724,567385
50,21,male,Dutch,1,19,ITC,win,5,right,3,ITC_wait,0,undefined,0,0,456,243721,572388
50,21,male,Dutch,1,19,ITC,win,5,right,3,ITC_collect,750,k,0,0,456,242969,573140
50,21,male,Dutch,1,19,ITC,win,5,right,3,ITC_outcome,0,undefined,0,0,476,241966,574143
50,21,male,Dutch,1,20,guess,loss,10,left,6,guess_start,335,space,0,0,476,241631,574478
50,21,male,Dutch,1,20,guess,loss,10,left,6,guess_choice,781,f,0,0,476,240848,575261
50,21,male,Dutch,1,20,guess,loss,10,left,6,guess_outcome,0,undefined,0,0,461,239293,576816
50,21,male,Dutch,1,20,ITC,loss,10,left,6,ITC_start,454,space,0,0,461,238838,577271
50,21,male,Dutch,1,20,ITC,loss,10,left,6,ITC_choice,1430,j,0,0,461,237407,578702
50,21,male,Dutch,1,20,ITC,loss,10,left,6,ITC_wait,0,undefined,0,0,461,237404,578705
50,21,male,Dutch,1,20,ITC,loss,10,left,6,ITC_collect,938,k,0,0,461,236465,579644
50,21,male,Dutch,1,20,ITC,loss,10,left,6,ITC_outcome,0,undefined,0,0,467,235463,580646
50,21,male,Dutch,1,21,guess,neutral,10,left,8,guess_start,392,space,0,0,467,235070,581039
50,21,male,Dutch,1,21,guess,neutral,10,left,8,guess_choice,630,f,0,0,467,234438,581671
50,21,male,Dutch,1,21,guess,neutral,10,left,8,guess_outcome,0,undefined,0,0,467,232884,583225
50,21,male,Dutch,1,21,ITC,neutral,10,left,8,ITC_start,346,space,0,0,467,232537,583572
50,21,male,Dutch,1,21,ITC,neutral,10,left,8,ITC_choice,1351,j,0,0,467,231185,584924
50,21,male,Dutch,1,21,ITC,neutral,10,left,8,ITC_wait,0,undefined,0,0,467,231183,584926
50,21,male,Dutch,1,21,ITC,neutral,10,left,8,ITC_collect,771,k,0,0,467,230411,585698
50,21,male,Dutch,1,21,ITC,neutral,10,left,8,ITC_outcome,0,undefined,0,0,475,229407,586702
50,21,male,Dutch,1,22,guess,neutral,5,right,13,guess_start,347,space,0,0,475,229059,587050
50,21,male,Dutch,1,22,guess,neutral,5,right,13,guess_choice,751,j,0,0,475,228307,587802
50,21,male,Dutch,1,22,guess,neutral,5,right,13,guess_outcome,0,undefined,0,0,475,226755,589354
50,21,male,Dutch,1,22,ITC,neutral,5,right,13,ITC_start,444,space,0,0,475,226310,589799
50,21,male,Dutch,1,22,ITC,neutral,5,right,13,ITC_choice,1271,f,0,0,475,225039,591070
50,21,male,Dutch,1,22,ITC,neutral,5,right,13,ITC_wait,0,undefined,0,0,475,225036,591073
50,21,male,Dutch,1,22,ITC,neutral,5,right,13,ITC_collect,949,k,0,0,475,224086,592023
50,21,male,Dutch,1,22,ITC,neutral,5,right,13,ITC_outcome,0,undefined,0,0,488,223084,593025
50,21,male,Dutch,1,23,guess,win,5,left,14,guess_start,435,space,0,0,488,222648,593461
50,21,male,Dutch,1,23,guess,win,5,left,14,guess_choice,552,j,0,0,488,222094,594015
50,21,male,Dutch,1,23,guess,win,5,left,14,guess_outcome,0,undefined,0,0,508,220539,595570
50,21,male,Dutch,1,23,ITC,win,5,left,14,ITC_start,465,space,0,0,508,220073,596036
50,21,male,Dutch,1,23,ITC,win,5,left,14,ITC_choice,1106,j,0,0,508,218966,597143
50,21,male,Dutch,1,23,ITC,win,5,left,14,ITC_wait,0,undefined,0,0,508,218964,597145
50,21,male,Dutch,1,23,ITC,win,5,left,14,ITC_collect,668,k,0,0,508,218295,597814
50,21,male,Dutch,1,23,ITC,win,5,left,14,ITC_outcome,0,undefined,0,0,522,217291,598818
50,21,male,Dutch,1,24,guess,neutral,5,left,5,guess_start,426,space,0,0,522,216864,599245
50,21,male,Dutch,1,24,guess,neutral,5,left,5,guess_choice,610,j,0,0,522,216252,599857
50,21,male,Dutch,1,24,guess,neutral,5,left,5,guess_outcome,0,undefined,0,0,522,214699,601410
50,21,male,Dutch,1,24,ITC,neutral,5,left,5,ITC_start,271,space,0,0,522,214427,601682
50,21,male,Dutch,1,24,ITC,neutral,5,left,5,ITC_choice,1167,j,0,0,522,213259,602850
50,21,male,Dutch,1,24,ITC,neutral,5,left,5,ITC_wait,0,undefined,0,0,522,213257,602852
50,21,male,Dutch,1,24,ITC,neutral,5,left,5,ITC_collect,638,k,0,0,522,212619,603490
50,21,male,Dutch,1,24,ITC,neutral,5,left,5,ITC_outcome,0,undefined,0,0,527,211616,604493
50,21,male,Dutch,1,25,guess,win,10,right,1,guess_start,829,space,0,0,527,210785,605324
50,21,male,Dutch,1,25,guess,win,10,right,1,guess_choice,839,j,0,0,527,209944,606165
50,21,male,Dutch,1,25,guess,win,10,right,1,guess_outcome,0,undefined,0,0,547,208391,607718
50,21,male,Dutch,1,25,ITC,win,10,right,1,ITC_start,439,space,0,0,547,207951,608158
50,21,male,Dutch,1,25,ITC,win,10,right,1,ITC_choice,1397,j,0,0,547,206554,609555
50,21,male,Dutch,1,25,ITC,win,10,right,1,ITC_wait,0,undefined,0,0,547,196543,619566
50,21,male,Dutch,1,25,ITC,win,10,right,1,ITC_collect,401,k,0,0,547,196141,619968
50,21,male,Dutch,1,25,ITC,win,10,right,1,ITC_outcome,0,undefined,0,0,567,195139,620970
50,21,male,Dutch,1,26,guess,loss,5,left,9,guess_start,356,space,0,0,567,194782,621327
50,21,male,Dutch,1,26,guess,loss,5,left,9,guess_choice,529,j,0,0,567,194250,621859
50,21,male,Dutch,1,26,guess,loss,5,left,9,guess_outcome,0,undefined,0,0,552,192698,623411
50,21,male,Dutch,1,26,ITC,loss,5,left,9,ITC_start,437,space,0,0,552,192260,623849
50,21,male,Dutch,1,26,ITC,loss,5,left,9,ITC_choice,1185,j,0,0,552,191074,625035
50,21,male,Dutch,1,26,ITC,loss,5,left,9,ITC_wait,0,undefined,0,0,552,191071,625038
50,21,male,Dutch,1,26,ITC,loss,5,left,9,ITC_collect,595,k,0,0,552,190474,625635
50,21,male,Dutch,1,26,ITC,loss,5,left,9,ITC_outcome,0,undefined,0,0,561,189472,626637
50,21,male,Dutch,1,27,guess,neutral,5,right,6,guess_start,433,space,0,0,561,189038,627071
50,21,male,Dutch,1,27,guess,neutral,5,right,6,guess_choice,679,f,0,0,561,188358,627751
50,21,male,Dutch,1,27,guess,neutral,5,right,6,guess_outcome,0,undefined,0,0,561,186806,629303
50,21,male,Dutch,1,27,ITC,neutral,5,right,6,ITC_start,551,space,0,0,561,186254,629855
50,21,male,Dutch,1,27,ITC,neutral,5,right,6,ITC_choice,1705,j,0,0,561,184549,631560
50,21,male,Dutch,1,27,ITC,neutral,5,right,6,ITC_wait,0,undefined,0,0,561,179546,636563
50,21,male,Dutch,1,27,ITC,neutral,5,right,6,ITC_collect,577,k,0,0,561,178968,637141
50,21,male,Dutch,1,27,ITC,neutral,5,right,6,ITC_outcome,0,undefined,0,0,581,177966,638143
50,21,male,Dutch,1,28,guess,loss,5,right,5,guess_start,480,space,0,0,581,177485,638624
50,21,male,Dutch,1,28,guess,loss,5,right,5,guess_choice,520,j,0,0,581,176964,639145
50,21,male,Dutch,1,28,guess,loss,5,right,5,guess_outcome,0,undefined,0,0,566,175408,640701
50,21,male,Dutch,1,28,ITC,loss,5,right,5,ITC_start,694,space,0,0,566,174713,641396
50,21,male,Dutch,1,28,ITC,loss,5,right,5,ITC_choice,1464,j,0,0,566,173249,642860
50,21,male,Dutch,1,28,ITC,loss,5,right,5,ITC_wait,0,undefined,0,0,566,168246,647863
50,21,male,Dutch,1,28,ITC,loss,5,right,5,ITC_collect,616,k,0,0,566,167629,648480
50,21,male,Dutch,1,28,ITC,loss,5,right,5,ITC_outcome,0,undefined,0,0,586,166626,649483
50,21,male,Dutch,1,29,guess,win,10,right,2,guess_start,342,space,0,0,586,166282,649827
50,21,male,Dutch,1,29,guess,win,10,right,2,guess_choice,683,f,0,0,586,165598,650511
50,21,male,Dutch,1,29,guess,win,10,right,2,guess_outcome,0,undefined,0,0,606,164044,652065
50,21,male,Dutch,1,29,ITC,win,10,right,2,ITC_start,544,space,0,0,606,163499,652610
50,21,male,Dutch,1,29,ITC,win,10,right,2,ITC_choice,1434,j,0,0,606,162062,654047
50,21,male,Dutch,1,29,ITC,win,10,right,2,ITC_wait,0,undefined,0,0,606,152060,664049
50,21,male,Dutch,1,29,ITC,win,10,right,2,ITC_collect,537,k,0,0,606,151523,664586
50,21,male,Dutch,1,29,ITC,win,10,right,2,ITC_outcome,0,undefined,0,0,626,150520,665589
50,21,male,Dutch,1,30,guess,neutral,10,left,7,guess_start,413,space,0,0,626,150106,666003
50,21,male,Dutch,1,30,guess,neutral,10,left,7,guess_choice,1033,f,0,0,626,149071,667038
50,21,male,Dutch,1,30,guess,neutral,10,left,7,guess_outcome,0,undefined,0,0,626,147517,668592
50,21,male,Dutch,1,30,ITC,neutral,10,left,7,ITC_start,339,space,0,0,626,147177,668932
50,21,male,Dutch,1,30,ITC,neutral,10,left,7,ITC_choice,1009,j,0,0,626,146167,669942
50,21,male,Dutch,1,30,ITC,neutral,10,left,7,ITC_wait,0,undefined,0,0,626,146164,669945
50,21,male,Dutch,1,30,ITC,neutral,10,left,7,ITC_collect,682,k,0,0,626,145482,670627
50,21,male,Dutch,1,30,ITC,neutral,10,left,7,ITC_outcome,0,undefined,0,0,633,144478,671631
50,21,male,Dutch,1,31,guess,loss,10,left,3,guess_start,442,space,0,0,633,144035,672074
50,21,male,Dutch,1,31,guess,loss,10,left,3,guess_choice,703,f,0,0,633,143331,672778
50,21,male,Dutch,1,31,guess,loss,10,left,3,guess_outcome,0,undefined,0,0,618,141779,674330
50,21,male,Dutch,1,31,ITC,loss,10,left,3,ITC_start,511,space,0,0,618,141267,674842
50,21,male,Dutch,1,31,ITC,loss,10,left,3,ITC_wait,0,undefined,0,0,618,139812,676297
50,21,male,Dutch,1,31,ITC,loss,10,left,3,ITC_choice,1451,j,0,0,618,139815,676294
50,21,male,Dutch,1,31,ITC,loss,10,left,3,ITC_collect,697,k,0,0,618,139114,676995
50,21,male,Dutch,1,31,ITC,loss,10,left,3,ITC_outcome,0,undefined,0,0,621,138112,677997
50,21,male,Dutch,1,32,guess,win,5,left,5,guess_start,415,space,0,0,621,137697,678412
50,21,male,Dutch,1,32,guess,win,5,left,5,guess_choice,720,f,0,0,621,136975,679134
50,21,male,Dutch,1,32,guess,win,5,left,5,guess_outcome,0,undefined,0,0,641,135421,680688
50,21,male,Dutch,1,32,ITC,win,5,left,5,ITC_start,442,space,0,0,641,134978,681131
50,21,male,Dutch,1,32,ITC,win,5,left,5,ITC_choice,1646,f,0,0,641,133331,682778
50,21,male,Dutch,1,32,ITC,win,5,left,5,ITC_wait,0,undefined,0,0,641,128328,687781
50,21,male,Dutch,1,32,ITC,win,5,left,5,ITC_collect,683,k,0,0,641,127644,688465
50,21,male,Dutch,1,32,ITC,win,5,left,5,ITC_outcome,0,undefined,0,0,661,126639,689470
50,21,male,Dutch,1,33,guess,neutral,5,left,3,guess_start,294,space,0,0,661,126345,689764
50,21,male,Dutch,1,33,guess,neutral,5,left,3,guess_choice,752,j,0,0,661,125592,690517
50,21,male,Dutch,1,33,guess,neutral,5,left,3,guess_outcome,0,undefined,0,0,661,124040,692069
50,21,male,Dutch,1,33,ITC,neutral,5,left,3,ITC_start,501,space,0,0,661,123539,692570
50,21,male,Dutch,1,33,ITC,neutral,5,left,3,ITC_choice,956,f,0,0,661,122582,693527
50,21,male,Dutch,1,33,ITC,neutral,5,left,3,ITC_wait,0,undefined,0,0,661,117579,698530
50,21,male,Dutch,1,33,ITC,neutral,5,left,3,ITC_collect,285,k,0,0,661,117293,698816
50,21,male,Dutch,1,33,ITC,neutral,5,left,3,ITC_outcome,0,undefined,0,0,681,116290,699819
50,21,male,Dutch,1,34,guess,loss,5,left,15,guess_start,985,space,0,0,681,115305,700804
50,21,male,Dutch,1,34,guess,loss,5,left,15,guess_choice,620,j,0,0,681,114683,701426
50,21,male,Dutch,1,34,guess,loss,5,left,15,guess_outcome,0,undefined,0,0,666,113129,702980
50,21,male,Dutch,1,34,ITC,loss,5,left,15,ITC_start,468,space,0,0,666,112661,703448
50,21,male,Dutch,1,34,ITC,loss,5,left,15,ITC_choice,1132,j,0,0,666,111528,704581
50,21,male,Dutch,1,34,ITC,loss,5,left,15,ITC_wait,0,undefined,0,0,666,111526,704583
50,21,male,Dutch,1,34,ITC,loss,5,left,15,ITC_collect,727,k,0,0,666,110798,705311
50,21,male,Dutch,1,34,ITC,loss,5,left,15,ITC_outcome,0,undefined,0,0,681,109794,706315
50,21,male,Dutch,1,35,guess,neutral,5,left,1,guess_start,407,space,0,0,681,109386,706723
50,21,male,Dutch,1,35,guess,neutral,5,left,1,guess_choice,560,j,0,0,681,108825,707284
50,21,male,Dutch,1,35,guess,neutral,5,left,1,guess_outcome,0,undefined,0,0,681,107272,708837
50,21,male,Dutch,1,35,ITC,neutral,5,left,1,ITC_start,271,space,0,0,681,107001,709108
50,21,male,Dutch,1,35,ITC,neutral,5,left,1,ITC_choice,850,f,0,0,681,106150,709959
50,21,male,Dutch,1,35,ITC,neutral,5,left,1,ITC_wait,0,undefined,0,0,681,101147,714962
50,21,male,Dutch,1,35,ITC,neutral,5,left,1,ITC_collect,336,k,0,0,681,100810,715299
50,21,male,Dutch,1,35,ITC,neutral,5,left,1,ITC_outcome,0,undefined,0,0,701,99807,716302
50,21,male,Dutch,1,36,guess,loss,10,left,1,guess_start,396,space,0,0,701,99410,716699
50,21,male,Dutch,1,36,guess,loss,10,left,1,guess_choice,670,j,0,0,701,98739,717370
50,21,male,Dutch,1,36,guess,loss,10,left,1,guess_outcome,0,undefined,0,0,686,97186,718923
50,21,male,Dutch,1,36,ITC,loss,10,left,1,ITC_start,345,space,0,0,686,96841,719268
50,21,male,Dutch,1,36,ITC,loss,10,left,1,ITC_wait,0,undefined,0,0,686,95402,720707
50,21,male,Dutch,1,36,ITC,loss,10,left,1,ITC_choice,1435,j,0,0,686,95405,720704
50,21,male,Dutch,1,36,ITC,loss,10,left,1,ITC_collect,628,k,0,0,686,94773,721336
50,21,male,Dutch,1,36,ITC,loss,10,left,1,ITC_outcome,0,undefined,0,0,687,93769,722340
50,21,male,Dutch,1,37,guess,loss,10,right,2,guess_start,290,space,0,0,687,93478,722631
50,21,male,Dutch,1,37,guess,loss,10,right,2,guess_choice,450,j,0,0,687,93026,723083
50,21,male,Dutch,1,37,guess,loss,10,right,2,guess_outcome,0,undefined,0,0,672,91474,724635
50,21,male,Dutch,1,37,ITC,loss,10,right,2,ITC_start,332,space,0,0,672,91141,724968
50,21,male,Dutch,1,37,ITC,loss,10,right,2,ITC_choice,1189,f,0,0,672,89951,726158
50,21,male,Dutch,1,37,ITC,loss,10,right,2,ITC_wait,0,undefined,0,0,672,89948,726161
50,21,male,Dutch,1,37,ITC,loss,10,right,2,ITC_collect,509,k,0,0,672,89438,726671
50,21,male,Dutch,1,37,ITC,loss,10,right,2,ITC_outcome,0,undefined,0,0,674,88436,727673
50,21,male,Dutch,1,38,guess,win,5,left,4,guess_start,332,space,0,0,674,88103,728006
50,21,male,Dutch,1,38,guess,win,5,left,4,guess_choice,539,j,0,0,674,87563,728546
50,21,male,Dutch,1,38,guess,win,5,left,4,guess_outcome,0,undefined,0,0,694,86008,730101
50,21,male,Dutch,1,38,ITC,win,5,left,4,ITC_start,411,space,0,0,694,85596,730513
50,21,male,Dutch,1,38,ITC,win,5,left,4,ITC_choice,1194,f,0,0,694,84401,731708
50,21,male,Dutch,1,38,ITC,win,5,left,4,ITC_wait,0,undefined,0,0,694,79398,736711
50,21,male,Dutch,1,38,ITC,win,5,left,4,ITC_collect,634,k,0,0,694,78763,737346
50,21,male,Dutch,1,38,ITC,win,5,left,4,ITC_outcome,0,undefined,0,0,714,77760,738349
50,21,male,Dutch,1,39,guess,loss,5,left,12,guess_start,261,space,0,0,714,77499,738610
50,21,male,Dutch,1,39,guess,loss,5,left,12,guess_choice,522,j,0,0,714,76976,739133
50,21,male,Dutch,1,39,guess,loss,5,left,12,guess_outcome,0,undefined,0,0,699,75424,740685
50,21,male,Dutch,1,39,ITC,loss,5,left,12,ITC_start,403,space,0,0,699,75020,741089
50,21,male,Dutch,1,39,ITC,loss,5,left,12,ITC_wait,0,undefined,0,0,699,73937,742172
50,21,male,Dutch,1,39,ITC,loss,5,left,12,ITC_choice,1081,j,0,0,699,73939,742170
50,21,male,Dutch,1,39,ITC,loss,5,left,12,ITC_collect,721,k,0,0,699,73215,742894
50,21,male,Dutch,1,39,ITC,loss,5,left,12,ITC_outcome,0,undefined,0,0,711,72213,743896
50,21,male,Dutch,1,40,guess,win,5,left,10,guess_start,255,space,0,0,711,71957,744152
50,21,male,Dutch,1,40,guess,win,5,left,10,guess_choice,521,j,0,0,711,71435,744674
50,21,male,Dutch,1,40,guess,win,5,left,10,guess_outcome,0,undefined,0,0,731,69880,746229
50,21,male,Dutch,1,40,ITC,win,5,left,10,ITC_start,439,space,0,0,731,69440,746669
50,21,male,Dutch,1,40,ITC,win,5,left,10,ITC_choice,1044,j,0,0,731,68396,747713
50,21,male,Dutch,1,40,ITC,win,5,left,10,ITC_wait,0,undefined,0,0,731,68392,747717
50,21,male,Dutch,1,40,ITC,win,5,left,10,ITC_collect,797,k,0,0,731,67594,748515
50,21,male,Dutch,1,40,ITC,win,5,left,10,ITC_outcome,0,undefined,0,0,741,66593,749516
50,21,male,Dutch,1,41,guess,loss,10,left,4,guess_start,252,space,0,0,741,66340,749769
50,21,male,Dutch,1,41,guess,loss,10,left,4,guess_choice,491,j,0,0,741,65848,750261
50,21,male,Dutch,1,41,guess,loss,10,left,4,guess_outcome,0,undefined,0,0,726,64296,751813
50,21,male,Dutch,1,41,ITC,loss,10,left,4,ITC_start,354,space,0,0,726,63942,752167
50,21,male,Dutch,1,41,ITC,loss,10,left,4,ITC_choice,1221,j,0,0,726,62720,753389
50,21,male,Dutch,1,41,ITC,loss,10,left,4,ITC_wait,0,undefined,0,0,726,62718,753391
50,21,male,Dutch,1,41,ITC,loss,10,left,4,ITC_collect,698,k,0,0,726,62019,754090
50,21,male,Dutch,1,41,ITC,loss,10,left,4,ITC_outcome,0,undefined,0,0,730,61017,755092
50,21,male,Dutch,1,42,guess,neutral,5,right,16,guess_start,359,space,0,0,730,60658,755451
50,21,male,Dutch,1,42,guess,neutral,5,right,16,guess_choice,742,f,0,0,730,59914,756195
50,21,male,Dutch,1,42,guess,neutral,5,right,16,guess_outcome,0,undefined,0,0,730,58361,757748
50,21,male,Dutch,1,42,ITC,neutral,5,right,16,ITC_start,231,space,0,0,730,58129,757980
50,21,male,Dutch,1,42,ITC,neutral,5,right,16,ITC_choice,1410,f,0,0,730,56718,759391
50,21,male,Dutch,1,42,ITC,neutral,5,right,16,ITC_wait,0,undefined,0,0,730,56715,759394
50,21,male,Dutch,1,42,ITC,neutral,5,right,16,ITC_collect,697,k,0,0,730,56017,760092
50,21,male,Dutch,1,42,ITC,neutral,5,right,16,ITC_outcome,0,undefined,0,0,746,55016,761093
50,21,male,Dutch,1,43,guess,neutral,5,right,4,guess_start,302,space,0,0,746,54713,761396
50,21,male,Dutch,1,43,guess,neutral,5,right,4,guess_choice,569,f,0,0,746,54143,761966
50,21,male,Dutch,1,43,guess,neutral,5,right,4,guess_outcome,0,undefined,0,0,746,52591,763518
50,21,male,Dutch,1,43,ITC,neutral,5,right,4,ITC_start,321,space,0,0,746,52269,763840
50,21,male,Dutch,1,43,ITC,neutral,5,right,4,ITC_wait,0,undefined,0,0,746,51025,765084
50,21,male,Dutch,1,43,ITC,neutral,5,right,4,ITC_choice,1241,f,0,0,746,51028,765081
50,21,male,Dutch,1,43,ITC,neutral,5,right,4,ITC_collect,610,k,0,0,746,50414,765695
50,21,male,Dutch,1,43,ITC,neutral,5,right,4,ITC_outcome,0,undefined,0,0,750,49411,766698
50,21,male,Dutch,1,44,guess,loss,5,right,2,guess_start,382,space,0,0,750,49028,767081
50,21,male,Dutch,1,44,guess,loss,5,right,2,guess_choice,527,j,0,0,750,48499,767610
50,21,male,Dutch,1,44,guess,loss,5,right,2,guess_outcome,0,undefined,0,0,735,46947,769162
50,21,male,Dutch,1,44,ITC,loss,5,right,2,ITC_start,366,space,0,0,735,46579,769530
50,21,male,Dutch,1,44,ITC,loss,5,right,2,ITC_choice,1395,j,0,0,735,45183,770926
50,21,male,Dutch,1,44,ITC,loss,5,right,2,ITC_wait,0,undefined,0,0,735,40179,775930
50,21,male,Dutch,1,44,ITC,loss,5,right,2,ITC_collect,336,k,0,0,735,39842,776267
50,21,male,Dutch,1,44,ITC,loss,5,right,2,ITC_outcome,0,undefined,0,0,755,38838,777271
50,21,male,Dutch,1,45,guess,win,10,left,5,guess_start,265,space,0,0,755,38572,777537
50,21,male,Dutch,1,45,guess,win,10,left,5,guess_choice,530,j,0,0,755,38041,778068
50,21,male,Dutch,1,45,guess,win,10,left,5,guess_outcome,0,undefined,0,0,775,36488,779621
50,21,male,Dutch,1,45,ITC,win,10,left,5,ITC_start,382,space,0,0,775,36105,780004
50,21,male,Dutch,1,45,ITC,win,10,left,5,ITC_choice,1042,j,0,0,775,35063,781046
50,21,male,Dutch,1,45,ITC,win,10,left,5,ITC_wait,0,undefined,0,0,775,35060,781049
50,21,male,Dutch,1,45,ITC,win,10,left,5,ITC_collect,801,k,0,0,775,34258,781851
50,21,male,Dutch,1,45,ITC,win,10,left,5,ITC_outcome,0,undefined,0,0,780,33257,782852
50,21,male,Dutch,1,46,guess,loss,5,left,4,guess_start,408,space,0,0,780,32847,783262
50,21,male,Dutch,1,46,guess,loss,5,left,4,guess_choice,582,j,0,0,780,32264,783845
50,21,male,Dutch,1,46,guess,loss,5,left,4,guess_outcome,0,undefined,0,0,765,30712,785397
50,21,male,Dutch,1,46,ITC,loss,5,left,4,ITC_start,422,space,0,0,765,30290,785819
50,21,male,Dutch,1,46,ITC,loss,5,left,4,ITC_choice,1324,f,0,0,765,28965,787144
50,21,male,Dutch,1,46,ITC,loss,5,left,4,ITC_wait,0,undefined,0,0,765,23961,792148
50,21,male,Dutch,1,46,ITC,loss,5,left,4,ITC_collect,348,k,0,0,765,23612,792497
50,21,male,Dutch,1,46,ITC,loss,5,left,4,ITC_outcome,0,undefined,0,0,785,22609,793500
50,21,male,Dutch,1,47,guess,neutral,10,left,5,guess_start,800,space,0,0,785,21808,794301
50,21,male,Dutch,1,47,guess,neutral,10,left,5,guess_choice,703,j,0,0,785,21104,795005
50,21,male,Dutch,1,47,guess,neutral,10,left,5,guess_outcome,0,undefined,0,0,785,19552,796557
50,21,male,Dutch,1,47,ITC,neutral,10,left,5,ITC_start,386,space,0,0,785,19165,796944
50,21,male,Dutch,1,47,ITC,neutral,10,left,5,ITC_choice,1054,j,0,0,785,18111,797998
50,21,male,Dutch,1,47,ITC,neutral,10,left,5,ITC_wait,0,undefined,0,0,785,18108,798001
50,21,male,Dutch,1,47,ITC,neutral,10,left,5,ITC_collect,826,k,0,0,785,17281,798828
50,21,male,Dutch,1,47,ITC,neutral,10,left,5,ITC_outcome,0,undefined,0,0,790,16278,799831
50,21,male,Dutch,1,48,guess,loss,5,left,8,guess_start,233,space,0,0,790,16044,800065
50,21,male,Dutch,1,48,guess,loss,5,left,8,guess_choice,532,j,0,0,790,15511,800598
50,21,male,Dutch,1,48,guess,loss,5,left,8,guess_outcome,0,undefined,0,0,775,13959,802150
50,21,male,Dutch,1,48,ITC,loss,5,left,8,ITC_start,252,space,0,0,775,13706,802403
50,21,male,Dutch,1,48,ITC,loss,5,left,8,ITC_wait,0,undefined,0,0,775,12723,803386
50,21,male,Dutch,1,48,ITC,loss,5,left,8,ITC_choice,980,j,0,0,775,12725,803384
50,21,male,Dutch,1,48,ITC,loss,5,left,8,ITC_collect,600,k,0,0,775,12122,803987
50,21,male,Dutch,1,48,ITC,loss,5,left,8,ITC_outcome,0,undefined,0,0,783,11118,804991
50,21,male,Dutch,1,49,guess,win,5,left,7,guess_start,373,space,0,0,783,10744,805365
50,21,male,Dutch,1,49,guess,win,5,left,7,guess_choice,1094,j,0,0,783,9649,806460
50,21,male,Dutch,1,49,guess,win,5,left,7,guess_outcome,0,undefined,0,0,803,8096,808013
50,21,male,Dutch,1,49,ITC,win,5,left,7,ITC_start,378,space,0,0,803,7717,808392
50,21,male,Dutch,1,49,ITC,win,5,left,7,ITC_choice,1001,j,0,0,803,6715,809394
50,21,male,Dutch,1,49,ITC,win,5,left,7,ITC_wait,0,undefined,0,0,803,6713,809396
50,21,male,Dutch,1,49,ITC,win,5,left,7,ITC_collect,611,k,0,0,803,6101,810008
50,21,male,Dutch,1,49,ITC,win,5,left,7,ITC_outcome,0,undefined,0,0,810,5099,811010
50,21,male,Dutch,1,50,guess,loss,5,left,13,guess_start,375,space,0,0,810,4723,811386
50,21,male,Dutch,1,50,guess,loss,5,left,13,guess_choice,680,j,0,0,810,4041,812068
50,21,male,Dutch,1,50,guess,loss,5,left,13,guess_outcome,0,undefined,0,0,795,2488,813621
50,21,male,Dutch,1,50,ITC,loss,5,left,13,ITC_start,523,space,0,0,795,1965,814144
50,21,male,Dutch,1,50,ITC,loss,5,left,13,ITC_choice,861,j,0,0,795,1103,815006
50,21,male,Dutch,1,50,ITC,loss,5,left,13,ITC_wait,0,undefined,0,0,795,1100,815009
50,21,male,Dutch,1,50,ITC,loss,5,left,13,ITC_collect,530,k,0,0,795,569,815540
50,21,male,Dutch,1,50,ITC,loss,5,left,13,ITC_outcome,0,undefined,0,0,808,-1,816110
50,21,male,Dutch,2,51,guess,win,10,right,7,guess_start,2701,space,0,0,0,477299,835899
50,21,male,Dutch,2,51,guess,win,10,right,7,guess_choice,899,j,0,0,0,476401,836797
50,21,male,Dutch,2,51,guess,win,10,right,7,guess_outcome,0,undefined,0,0,20,474847,838351
50,21,male,Dutch,2,51,ITC,win,10,right,7,ITC_start,546,space,0,0,20,474300,838898
50,21,male,Dutch,2,51,ITC,win,10,right,7,ITC_choice,1461,f,0,0,20,472839,840359
50,21,male,Dutch,2,51,ITC,win,10,right,7,ITC_wait,0,undefined,0,0,20,472835,840363
50,21,male,Dutch,2,51,ITC,win,10,right,7,ITC_collect,619,k,0,0,20,472215,840983
50,21,male,Dutch,2,51,ITC,win,10,right,7,ITC_outcome,0,undefined,0,0,27,471213,841985
50,21,male,Dutch,2,52,guess,neutral,10,left,3,guess_start,506,space,0,0,27,470706,842492
50,21,male,Dutch,2,52,guess,neutral,10,left,3,guess_choice,498,j,0,0,27,470206,842992
50,21,male,Dutch,2,52,guess,neutral,10,left,3,guess_outcome,0,undefined,0,0,27,468651,844547
50,21,male,Dutch,2,52,ITC,neutral,10,left,3,ITC_start,418,space,0,0,27,468233,844965
50,21,male,Dutch,2,52,ITC,neutral,10,left,3,ITC_choice,1299,j,0,0,27,466933,846265
50,21,male,Dutch,2,52,ITC,neutral,10,left,3,ITC_wait,0,undefined,0,0,27,466931,846267
50,21,male,Dutch,2,52,ITC,neutral,10,left,3,ITC_collect,721,k,0,0,27,466209,846989
50,21,male,Dutch,2,52,ITC,neutral,10,left,3,ITC_outcome,0,undefined,0,0,30,465207,847991
50,21,male,Dutch,2,53,guess,neutral,5,right,15,guess_start,371,space,0,0,30,464836,848362
50,21,male,Dutch,2,53,guess,neutral,5,right,15,guess_choice,563,j,0,0,30,464272,848926
50,21,male,Dutch,2,53,guess,neutral,5,right,15,guess_outcome,0,undefined,0,0,30,462719,850479
50,21,male,Dutch,2,53,ITC,neutral,5,right,15,ITC_start,271,space,0,0,30,462448,850750
50,21,male,Dutch,2,53,ITC,neutral,5,right,15,ITC_wait,0,undefined,0,0,30,461422,851776
50,21,male,Dutch,2,53,ITC,neutral,5,right,15,ITC_choice,1023,f,0,0,30,461424,851774
50,21,male,Dutch,2,53,ITC,neutral,5,right,15,ITC_collect,718,k,0,0,30,460702,852496
50,21,male,Dutch,2,53,ITC,neutral,5,right,15,ITC_outcome,0,undefined,0,0,45,459698,853500
50,21,male,Dutch,2,54,guess,loss,5,left,6,guess_start,834,space,0,0,45,458863,854335
50,21,male,Dutch,2,54,guess,loss,5,left,6,guess_choice,532,j,0,0,45,458329,854869
50,21,male,Dutch,2,54,guess,loss,5,left,6,guess_outcome,0,undefined,0,0,30,456777,856421
50,21,male,Dutch,2,54,ITC,loss,5,left,6,ITC_start,657,space,0,0,30,456119,857079
50,21,male,Dutch,2,54,ITC,loss,5,left,6,ITC_choice,1127,f,0,0,30,454990,858208
50,21,male,Dutch,2,54,ITC,loss,5,left,6,ITC_wait,0,undefined,0,0,30,449987,863211
50,21,male,Dutch,2,54,ITC,loss,5,left,6,ITC_collect,446,k,0,0,30,449540,863658
50,21,male,Dutch,2,54,ITC,loss,5,left,6,ITC_outcome,0,undefined,0,0,50,448537,864661
50,21,male,Dutch,2,55,guess,neutral,10,left,4,guess_start,448,space,0,0,50,448088,865110
50,21,male,Dutch,2,55,guess,neutral,10,left,4,guess_choice,688,f,0,0,50,447398,865800
50,21,male,Dutch,2,55,guess,neutral,10,left,4,guess_outcome,0,undefined,0,0,50,445845,867353
50,21,male,Dutch,2,55,ITC,neutral,10,left,4,ITC_start,1002,space,0,0,50,444842,868356
50,21,male,Dutch,2,55,ITC,neutral,10,left,4,ITC_choice,1349,j,0,0,50,443492,869706
50,21,male,Dutch,2,55,ITC,neutral,10,left,4,ITC_wait,0,undefined,0,0,50,443489,869709
50,21,male,Dutch,2,55,ITC,neutral,10,left,4,ITC_collect,388,k,0,0,50,443101,870097
50,21,male,Dutch,2,55,ITC,neutral,10,left,4,ITC_outcome,0,undefined,0,0,54,442099,871099
50,21,male,Dutch,2,56,guess,loss,5,right,3,guess_start,362,space,0,0,54,441736,871462
50,21,male,Dutch,2,56,guess,loss,5,right,3,guess_choice,795,j,0,0,54,440940,872258
50,21,male,Dutch,2,56,guess,loss,5,right,3,guess_outcome,0,undefined,0,0,39,439385,873813
50,21,male,Dutch,2,56,ITC,loss,5,right,3,ITC_start,650,space,0,0,39,438734,874464
50,21,male,Dutch,2,56,ITC,loss,5,right,3,ITC_choice,1304,j,0,0,39,437430,875768
50,21,male,Dutch,2,56,ITC,loss,5,right,3,ITC_wait,0,undefined,0,0,39,432428,880770
50,21,male,Dutch,2,56,ITC,loss,5,right,3,ITC_collect,294,k,0,0,39,432134,881064
50,21,male,Dutch,2,56,ITC,loss,5,right,3,ITC_outcome,0,undefined,0,0,59,431132,882066
50,21,male,Dutch,2,57,guess,neutral,5,left,7,guess_start,452,space,0,0,59,430679,882519
50,21,male,Dutch,2,57,guess,neutral,5,left,7,guess_choice,499,j,0,0,59,430178,883020
50,21,male,Dutch,2,57,guess,neutral,5,left,7,guess_outcome,0,undefined,0,0,59,428625,884573
50,21,male,Dutch,2,57,ITC,neutral,5,left,7,ITC_start,491,space,0,0,59,428133,885065
50,21,male,Dutch,2,57,ITC,neutral,5,left,7,ITC_choice,2201,f,0,0,59,425931,887267
50,21,male,Dutch,2,57,ITC,neutral,5,left,7,ITC_wait,0,undefined,0,0,59,420927,892271
50,21,male,Dutch,2,57,ITC,neutral,5,left,7,ITC_collect,438,k,0,0,59,420489,892709
50,21,male,Dutch,2,57,ITC,neutral,5,left,7,ITC_outcome,0,undefined,0,0,79,419485,893713
50,21,male,Dutch,2,58,guess,win,5,left,6,guess_start,315,space,0,0,79,419169,894029
50,21,male,Dutch,2,58,guess,win,5,left,6,guess_choice,469,j,0,0,79,418698,894500
50,21,male,Dutch,2,58,guess,win,5,left,6,guess_outcome,0,undefined,0,0,99,417146,896052
50,21,male,Dutch,2,58,ITC,win,5,left,6,ITC_start,423,space,0,0,99,416721,896477
50,21,male,Dutch,2,58,ITC,win,5,left,6,ITC_choice,1082,f,0,0,99,415637,897561
50,21,male,Dutch,2,58,ITC,win,5,left,6,ITC_wait,0,undefined,0,0,99,410635,902563
50,21,male,Dutch,2,58,ITC,win,5,left,6,ITC_collect,258,k,0,0,99,410377,902821
50,21,male,Dutch,2,58,ITC,win,5,left,6,ITC_outcome,0,undefined,0,0,119,409372,903826
50,21,male,Dutch,2,59,guess,neutral,5,right,14,guess_start,247,space,0,0,119,409124,904074
50,21,male,Dutch,2,59,guess,neutral,5,right,14,guess_choice,502,j,0,0,119,408621,904577
50,21,male,Dutch,2,59,guess,neutral,5,right,14,guess_outcome,0,undefined,0,0,119,407068,906130
50,21,male,Dutch,2,59,ITC,neutral,5,right,14,ITC_start,416,space,0,0,119,406650,906548
50,21,male,Dutch,2,59,ITC,neutral,5,right,14,ITC_choice,879,f,0,0,119,405770,907428
50,21,male,Dutch,2,59,ITC,neutral,5,right,14,ITC_wait,0,undefined,0,0,119,405769,907429
50,21,male,Dutch,2,59,ITC,neutral,5,right,14,ITC_collect,470,k,0,0,119,405298,907900
50,21,male,Dutch,2,59,ITC,neutral,5,right,14,ITC_outcome,0,undefined,0,0,133,404293,908905
50,21,male,Dutch,2,60,guess,neutral,5,right,9,guess_start,1612,space,0,0,133,402680,910518
50,21,male,Dutch,2,60,guess,neutral,5,right,9,guess_choice,586,f,0,0,133,402093,911105
50,21,male,Dutch,2,60,guess,neutral,5,right,9,guess_outcome,0,undefined,0,0,133,400539,912659
50,21,male,Dutch,2,60,ITC,neutral,5,right,9,ITC_start,502,space,0,0,133,400035,913163
50,21,male,Dutch,2,60,ITC,neutral,5,right,9,ITC_choice,1223,f,0,0,133,398812,914386
50,21,male,Dutch,2,60,ITC,neutral,5,right,9,ITC_wait,0,undefined,0,0,133,398808,914390
50,21,male,Dutch,2,60,ITC,neutral,5,right,9,ITC_collect,515,k,0,0,133,398293,914905
50,21,male,Dutch,2,60,ITC,neutral,5,right,9,ITC_outcome,0,undefined,0,0,142,397289,915909
50,21,male,Dutch,2,61,guess,neutral,5,right,10,guess_start,585,space,0,0,142,396703,916495
50,21,male,Dutch,2,61,guess,neutral,5,right,10,guess_choice,468,j,0,0,142,396232,916966
50,21,male,Dutch,2,61,guess,neutral,5,right,10,guess_outcome,0,undefined,0,0,142,394679,918519
50,21,male,Dutch,2,61,ITC,neutral,5,right,10,ITC_start,297,space,0,0,142,394381,918817
50,21,male,Dutch,2,61,ITC,neutral,5,right,10,ITC_choice,911,f,0,0,142,393469,919729
50,21,male,Dutch,2,61,ITC,neutral,5,right,10,ITC_wait,0,undefined,0,0,142,393467,919731
50,21,male,Dutch,2,61,ITC,neutral,5,right,10,ITC_collect,318,k,0,0,142,393148,920050
50,21,male,Dutch,2,61,ITC,neutral,5,right,10,ITC_outcome,0,undefined,0,0,152,392145,921053
50,21,male,Dutch,2,62,guess,neutral,5,right,8,guess_start,249,space,0,0,152,391895,921303
50,21,male,Dutch,2,62,guess,neutral,5,right,8,guess_choice,609,f,0,0,152,391284,921914
50,21,male,Dutch,2,62,guess,neutral,5,right,8,guess_outcome,0,undefined,0,0,152,389731,923467
50,21,male,Dutch,2,62,ITC,neutral,5,right,8,ITC_start,973,space,0,0,152,388757,924441
50,21,male,Dutch,2,62,ITC,neutral,5,right,8,ITC_choice,1061,j,0,0,152,387695,925503
50,21,male,Dutch,2,62,ITC,neutral,5,right,8,ITC_wait,0,undefined,0,0,152,382693,930505
50,21,male,Dutch,2,62,ITC,neutral,5,right,8,ITC_collect,418,k,0,0,152,382274,930924
50,21,male,Dutch,2,62,ITC,neutral,5,right,8,ITC_outcome,0,undefined,0,0,172,381273,931925
50,21,male,Dutch,2,63,guess,loss,5,left,7,guess_start,269,space,0,0,172,381003,932195
50,21,male,Dutch,2,63,guess,loss,5,left,7,guess_choice,523,j,0,0,172,380479,932719
50,21,male,Dutch,2,63,guess,loss,5,left,7,guess_outcome,0,undefined,0,0,157,378925,934273
50,21,male,Dutch,2,63,ITC,loss,5,left,7,ITC_start,251,space,0,0,157,378674,934524
50,21,male,Dutch,2,63,ITC,loss,5,left,7,ITC_choice,952,f,0,0,157,377721,935477
50,21,male,Dutch,2,63,ITC,loss,5,left,7,ITC_wait,0,undefined,0,0,157,372718,940480
50,21,male,Dutch,2,63,ITC,loss,5,left,7,ITC_collect,386,k,0,0,157,372331,940867
50,21,male,Dutch,2,63,ITC,loss,5,left,7,ITC_outcome,0,undefined,0,0,177,371327,941871
50,21,male,Dutch,2,64,guess,win,5,right,13,guess_start,263,space,0,0,177,371062,942136
50,21,male,Dutch,2,64,guess,win,5,right,13,guess_choice,493,j,0,0,177,370568,942630
50,21,male,Dutch,2,64,guess,win,5,right,13,guess_outcome,0,undefined,0,0,197,369015,944183
50,21,male,Dutch,2,64,ITC,win,5,right,13,ITC_start,317,space,0,0,197,368697,944501
50,21,male,Dutch,2,64,ITC,win,5,right,13,ITC_choice,871,f,0,0,197,367825,945373
50,21,male,Dutch,2,64,ITC,win,5,right,13,ITC_wait,0,undefined,0,0,197,367823,945375
50,21,male,Dutch,2,64,ITC,win,5,right,13,ITC_collect,441,k,0,0,197,367380,945818
50,21,male,Dutch,2,64,ITC,win,5,right,13,ITC_outcome,0,undefined,0,0,210,366378,946820
50,21,male,Dutch,2,65,guess,neutral,10,right,6,guess_start,573,space,0,0,210,365804,947394
50,21,male,Dutch,2,65,guess,neutral,10,right,6,guess_choice,452,j,0,0,210,365351,947847
50,21,male,Dutch,2,65,guess,neutral,10,right,6,guess_outcome,0,undefined,0,0,210,363799,949399
50,21,male,Dutch,2,65,ITC,neutral,10,right,6,ITC_start,254,space,0,0,210,363544,949654
50,21,male,Dutch,2,65,ITC,neutral,10,right,6,ITC_choice,1248,j,0,0,210,362295,950903
50,21,male,Dutch,2,65,ITC,neutral,10,right,6,ITC_wait,0,undefined,0,0,210,352287,960911
50,21,male,Dutch,2,65,ITC,neutral,10,right,6,ITC_collect,442,k,0,0,210,351845,961353
50,21,male,Dutch,2,65,ITC,neutral,10,right,6,ITC_outcome,0,undefined,0,0,230,350841,962357
50,21,male,Dutch,2,66,guess,win,5,left,1,guess_start,420,space,0,0,230,350421,962777
50,21,male,Dutch,2,66,guess,win,5,left,1,guess_choice,571,j,0,0,230,349848,963350
50,21,male,Dutch,2,66,guess,win,5,left,1,guess_outcome,0,undefined,0,0,250,348295,964903
50,21,male,Dutch,2,66,ITC,win,5,left,1,ITC_start,330,space,0,0,250,347965,965233
50,21,male,Dutch,2,66,ITC,win,5,left,1,ITC_choice,952,f,0,0,250,347012,966186
50,21,male,Dutch,2,66,ITC,win,5,left,1,ITC_wait,0,undefined,0,0,250,342009,971189
50,21,male,Dutch,2,66,ITC,win,5,left,1,ITC_collect,395,k,0,0,250,341613,971585
50,21,male,Dutch,2,66,ITC,win,5,left,1,ITC_outcome,0,undefined,0,0,270,340611,972587
50,21,male,Dutch,2,67,guess,win,10,left,8,guess_start,1386,space,0,0,270,339224,973974
50,21,male,Dutch,2,67,guess,win,10,left,8,guess_choice,469,j,0,0,270,338754,974444
50,21,male,Dutch,2,67,guess,win,10,left,8,guess_outcome,0,undefined,0,0,290,337200,975998
50,21,male,Dutch,2,67,ITC,win,10,left,8,ITC_start,416,space,0,0,290,336783,976415
50,21,male,Dutch,2,67,ITC,win,10,left,8,ITC_choice,1023,j,0,0,290,335760,977438
50,21,male,Dutch,2,67,ITC,win,10,left,8,ITC_wait,0,undefined,0,0,290,335757,977441
50,21,male,Dutch,2,67,ITC,win,10,left,8,ITC_collect,407,k,0,0,290,335349,977849
50,21,male,Dutch,2,67,ITC,win,10,left,8,ITC_outcome,0,undefined,0,0,298,334347,978851
50,21,male,Dutch,2,68,guess,win,10,left,4,guess_start,394,space,0,0,298,333952,979246
50,21,male,Dutch,2,68,guess,win,10,left,4,guess_choice,429,j,0,0,298,333522,979676
50,21,male,Dutch,2,68,guess,win,10,left,4,guess_outcome,0,undefined,0,0,318,331970,981228
50,21,male,Dutch,2,68,ITC,win,10,left,4,ITC_start,280,space,0,0,318,331689,981509
50,21,male,Dutch,2,68,ITC,win,10,left,4,ITC_wait,0,undefined,0,0,318,330198,983000
50,21,male,Dutch,2,68,ITC,win,10,left,4,ITC_choice,1488,j,0,0,318,330200,982998
50,21,male,Dutch,2,68,ITC,win,10,left,4,ITC_collect,476,k,0,0,318,329721,983477
50,21,male,Dutch,2,68,ITC,win,10,left,4,ITC_outcome,0,undefined,0,0,322,328719,984479
50,21,male,Dutch,2,69,guess,neutral,5,right,12,guess_start,233,space,0,0,322,328485,984713
50,21,male,Dutch,2,69,guess,neutral,5,right,12,guess_choice,681,f,0,0,322,327803,985395
50,21,male,Dutch,2,69,guess,neutral,5,right,12,guess_outcome,0,undefined,0,0,322,326249,986949
50,21,male,Dutch,2,69,ITC,neutral,5,right,12,ITC_start,419,space,0,0,322,325829,987369
50,21,male,Dutch,2,69,ITC,neutral,5,right,12,ITC_choice,1128,f,0,0,322,324700,988498
50,21,male,Dutch,2,69,ITC,neutral,5,right,12,ITC_wait,0,undefined,0,0,322,324698,988500
50,21,male,Dutch,2,69,ITC,neutral,5,right,12,ITC_collect,399,k,0,0,322,324298,988900
50,21,male,Dutch,2,69,ITC,neutral,5,right,12,ITC_outcome,0,undefined,0,0,334,323296,989902
50,21,male,Dutch,2,70,guess,loss,5,right,11,guess_start,267,space,0,0,334,323029,990169
50,21,male,Dutch,2,70,guess,loss,5,right,11,guess_choice,442,j,0,0,334,322585,990613
50,21,male,Dutch,2,70,guess,loss,5,right,11,guess_outcome,0,undefined,0,0,319,321032,992166
50,21,male,Dutch,2,70,ITC,loss,5,right,11,ITC_start,408,space,0,0,319,320623,992575
50,21,male,Dutch,2,70,ITC,loss,5,right,11,ITC_choice,884,f,0,0,319,319739,993459
50,21,male,Dutch,2,70,ITC,loss,5,right,11,ITC_wait,0,undefined,0,0,319,319737,993461
50,21,male,Dutch,2,70,ITC,loss,5,right,11,ITC_collect,328,k,0,0,319,319409,993789
50,21,male,Dutch,2,70,ITC,loss,5,right,11,ITC_outcome,0,undefined,0,0,330,318404,994794
50,21,male,Dutch,2,71,guess,loss,5,right,16,guess_start,490,space,0,0,330,317913,995285
50,21,male,Dutch,2,71,guess,loss,5,right,16,guess_choice,531,j,0,0,330,317381,995817
50,21,male,Dutch,2,71,guess,loss,5,right,16,guess_outcome,0,undefined,0,0,315,315827,997371
50,21,male,Dutch,2,71,ITC,loss,5,right,16,ITC_start,325,space,0,0,315,315501,997697
50,21,male,Dutch,2,71,ITC,loss,5,right,16,ITC_choice,982,f,0,0,315,314518,998680
50,21,male,Dutch,2,71,ITC,loss,5,right,16,ITC_wait,0,undefined,0,0,315,314516,998682
50,21,male,Dutch,2,71,ITC,loss,5,right,16,ITC_collect,287,k,0,0,315,314228,998970
50,21,male,Dutch,2,71,ITC,loss,5,right,16,ITC_outcome,0,undefined,0,0,331,313225,999973
50,21,male,Dutch,2,72,guess,loss,10,left,7,guess_start,269,space,0,0,331,312954,1000244
50,21,male,Dutch,2,72,guess,loss,10,left,7,guess_choice,463,j,0,0,331,312490,1000708
50,21,male,Dutch,2,72,guess,loss,10,left,7,guess_outcome,0,undefined,0,0,316,310937,1002261
50,21,male,Dutch,2,72,ITC,loss,10,left,7,ITC_start,334,space,0,0,316,310602,1002596
50,21,male,Dutch,2,72,ITC,loss,10,left,7,ITC_choice,1139,j,0,0,316,309462,1003736
50,21,male,Dutch,2,72,ITC,loss,10,left,7,ITC_wait,0,undefined,0,0,316,309461,1003737
50,21,male,Dutch,2,72,ITC,loss,10,left,7,ITC_collect,377,k,0,0,316,309083,1004115
50,21,male,Dutch,2,72,ITC,loss,10,left,7,ITC_outcome,0,undefined,0,0,323,308079,1005119
50,21,male,Dutch,2,73,guess,neutral,5,left,8,guess_start,465,space,0,0,323,307614,1005584
50,21,male,Dutch,2,73,guess,neutral,5,left,8,guess_choice,728,j,0,0,323,306884,1006314
50,21,male,Dutch,2,73,guess,neutral,5,left,8,guess_outcome,0,undefined,0,0,323,305332,1007866
50,21,male,Dutch,2,73,ITC,neutral,5,left,8,ITC_start,616,space,0,0,323,304715,1008483
50,21,male,Dutch,2,73,ITC,neutral,5,left,8,ITC_choice,1076,f,0,0,323,303639,1009559
50,21,male,Dutch,2,73,ITC,neutral,5,left,8,ITC_wait,0,undefined,0,0,323,298636,1014562
50,21,male,Dutch,2,73,ITC,neutral,5,left,8,ITC_collect,604,k,0,0,323,298031,1015167
50,21,male,Dutch,2,73,ITC,neutral,5,left,8,ITC_outcome,0,undefined,0,0,343,297028,1016170
50,21,male,Dutch,2,74,guess,win,10,left,2,guess_start,282,space,0,0,343,296745,1016453
50,21,male,Dutch,2,74,guess,win,10,left,2,guess_choice,419,j,0,0,343,296324,1016874
50,21,male,Dutch,2,74,guess,win,10,left,2,guess_outcome,0,undefined,0,0,363,294772,1018426
50,21,male,Dutch,2,74,ITC,win,10,left,2,ITC_start,221,space,0,0,363,294549,1018649
50,21,male,Dutch,2,74,ITC,win,10,left,2,ITC_choice,1362,j,0,0,363,293186,1020012
50,21,male,Dutch,2,74,ITC,win,10,left,2,ITC_wait,0,undefined,0,0,363,293183,1020015
50,21,male,Dutch,2,74,ITC,win,10,left,2,ITC_collect,218,k,0,0,363,292964,1020234
50,21,male,Dutch,2,74,ITC,win,10,left,2,ITC_outcome,0,undefined,0,0,365,291961,1021237
50,21,male,Dutch,2,75,guess,win,5,left,15,guess_start,233,space,0,0,365,291728,1021470
50,21,male,Dutch,2,75,guess,win,5,left,15,guess_choice,342,j,0,0,365,291384,1021814
50,21,male,Dutch,2,75,guess,win,5,left,15,guess_outcome,0,undefined,0,0,385,289829,1023369
50,21,male,Dutch,2,75,ITC,win,5,left,15,ITC_start,341,space,0,0,385,289487,1023711
50,21,male,Dutch,2,75,ITC,win,5,left,15,ITC_wait,0,undefined,0,0,385,288393,1024805
50,21,male,Dutch,2,75,ITC,win,5,left,15,ITC_choice,1092,j,0,0,385,288395,1024803
50,21,male,Dutch,2,75,ITC,win,5,left,15,ITC_collect,277,k,0,0,385,288115,1025083
50,21,male,Dutch,2,75,ITC,win,5,left,15,ITC_outcome,0,undefined,0,0,400,287112,1026086
50,21,male,Dutch,2,76,guess,loss,5,right,9,guess_start,229,space,0,0,400,286882,1026316
50,21,male,Dutch,2,76,guess,loss,5,right,9,guess_choice,297,j,0,0,400,286583,1026615
50,21,male,Dutch,2,76,guess,loss,5,right,9,guess_outcome,0,undefined,0,0,385,285029,1028169
50,21,male,Dutch,2,76,ITC,loss,5,right,9,ITC_start,600,space,0,0,385,284429,1028769
50,21,male,Dutch,2,76,ITC,loss,5,right,9,ITC_choice,1515,j,0,0,385,282913,1030285
50,21,male,Dutch,2,76,ITC,loss,5,right,9,ITC_wait,0,undefined,0,0,385,277912,1035286
50,21,male,Dutch,2,76,ITC,loss,5,right,9,ITC_collect,385,k,0,0,385,277526,1035672
50,21,male,Dutch,2,76,ITC,loss,5,right,9,ITC_outcome,0,undefined,0,0,405,276522,1036676
50,21,male,Dutch,2,77,guess,neutral,10,right,7,guess_start,260,space,0,0,405,276261,1036937
50,21,male,Dutch,2,77,guess,neutral,10,right,7,guess_choice,609,f,0,0,405,275651,1037547
50,21,male,Dutch,2,77,guess,neutral,10,right,7,guess_outcome,0,undefined,0,0,405,274097,1039101
50,21,male,Dutch,2,77,ITC,neutral,10,right,7,ITC_start,242,space,0,0,405,273854,1039344
50,21,male,Dutch,2,77,ITC,neutral,10,right,7,ITC_choice,1253,f,0,0,405,272600,1040598
50,21,male,Dutch,2,77,ITC,neutral,10,right,7,ITC_wait,0,undefined,0,0,405,272597,1040601
50,21,male,Dutch,2,77,ITC,neutral,10,right,7,ITC_collect,338,k,0,0,405,272258,1040940
50,21,male,Dutch,2,77,ITC,neutral,10,right,7,ITC_outcome,0,undefined,0,0,412,271254,1041944
50,21,male,Dutch,2,78,guess,loss,10,left,8,guess_start,336,space,0,0,412,270918,1042280
50,21,male,Dutch,2,78,guess,loss,10,left,8,guess_choice,448,j,0,0,412,270468,1042730
50,21,male,Dutch,2,78,guess,loss,10,left,8,guess_outcome,0,undefined,0,0,397,268916,1044282
50,21,male,Dutch,2,78,ITC,loss,10,left,8,ITC_start,302,space,0,0,397,268613,1044585
50,21,male,Dutch,2,78,ITC,loss,10,left,8,ITC_choice,1125,j,0,0,397,267488,1045710
50,21,male,Dutch,2,78,ITC,loss,10,left,8,ITC_wait,0,undefined,0,0,397,267486,1045712
50,21,male,Dutch,2,78,ITC,loss,10,left,8,ITC_collect,169,k,0,0,397,267316,1045882
50,21,male,Dutch,2,78,ITC,loss,10,left,8,ITC_outcome,0,undefined,0,0,405,266314,1046884
50,21,male,Dutch,2,79,guess,neutral,5,right,11,guess_start,394,space,0,0,405,265919,1047279
50,21,male,Dutch,2,79,guess,neutral,5,right,11,guess_choice,601,j,0,0,405,265317,1047881
50,21,male,Dutch,2,79,guess,neutral,5,right,11,guess_outcome,0,undefined,0,0,405,263764,1049434
50,21,male,Dutch,2,79,ITC,neutral,5,right,11,ITC_start,245,space,0,0,405,263519,1049679
50,21,male,Dutch,2,79,ITC,neutral,5,right,11,ITC_wait,0,undefined,0,0,405,262553,1050645
50,21,male,Dutch,2,79,ITC,neutral,5,right,11,ITC_choice,961,f,0,0,405,262557,1050641
50,21,male,Dutch,2,79,ITC,neutral,5,right,11,ITC_collect,288,k,0,0,405,262265,1050933
50,21,male,Dutch,2,79,ITC,neutral,5,right,11,ITC_outcome,0,undefined,0,0,416,261262,1051936
50,21,male,Dutch,2,80,guess,neutral,5,right,1,guess_start,361,space,0,0,416,260899,1052299
50,21,male,Dutch,2,80,guess,neutral,5,right,1,guess_choice,428,j,0,0,416,260469,1052729
50,21,male,Dutch,2,80,guess,neutral,5,right,1,guess_outcome,0,undefined,0,0,416,258918,1054280
50,21,male,Dutch,2,80,ITC,neutral,5,right,1,ITC_start,350,space,0,0,416,258567,1054631
50,21,male,Dutch,2,80,ITC,neutral,5,right,1,ITC_choice,1282,j,0,0,416,257284,1055914
50,21,male,Dutch,2,80,ITC,neutral,5,right,1,ITC_wait,0,undefined,0,0,416,252281,1060917
50,21,male,Dutch,2,80,ITC,neutral,5,right,1,ITC_collect,791,k,0,0,416,251488,1061710
50,21,male,Dutch,2,80,ITC,neutral,5,right,1,ITC_outcome,0,undefined,0,0,436,250486,1062712
50,21,male,Dutch,2,81,guess,win,10,left,3,guess_start,187,space,0,0,436,250298,1062900
50,21,male,Dutch,2,81,guess,win,10,left,3,guess_choice,472,j,0,0,436,249824,1063374
50,21,male,Dutch,2,81,guess,win,10,left,3,guess_outcome,0,undefined,0,0,456,248272,1064926
50,21,male,Dutch,2,81,ITC,win,10,left,3,ITC_start,234,space,0,0,456,248038,1065160
50,21,male,Dutch,2,81,ITC,win,10,left,3,ITC_choice,1183,j,0,0,456,246853,1066345
50,21,male,Dutch,2,81,ITC,win,10,left,3,ITC_wait,0,undefined,0,0,456,246850,1066348
50,21,male,Dutch,2,81,ITC,win,10,left,3,ITC_collect,186,k,0,0,456,246663,1066535
50,21,male,Dutch,2,81,ITC,win,10,left,3,ITC_outcome,0,undefined,0,0,459,245660,1067538
50,21,male,Dutch,2,82,guess,win,5,left,7,guess_start,307,space,0,0,459,245352,1067846
50,21,male,Dutch,2,82,guess,win,5,left,7,guess_choice,460,j,0,0,459,244891,1068307
50,21,male,Dutch,2,82,guess,win,5,left,7,guess_outcome,0,undefined,0,0,479,243338,1069860
50,21,male,Dutch,2,82,ITC,win,5,left,7,ITC_start,573,space,0,0,479,242765,1070433
50,21,male,Dutch,2,82,ITC,win,5,left,7,ITC_choice,1108,f,0,0,479,241657,1071541
50,21,male,Dutch,2,82,ITC,win,5,left,7,ITC_wait,0,undefined,0,0,479,236655,1076543
50,21,male,Dutch,2,82,ITC,win,5,left,7,ITC_collect,657,k,0,0,479,235996,1077202
50,21,male,Dutch,2,82,ITC,win,5,left,7,ITC_outcome,0,undefined,0,0,499,234994,1078204
50,21,male,Dutch,2,83,guess,win,5,right,4,guess_start,210,space,0,0,499,234783,1078415
50,21,male,Dutch,2,83,guess,win,5,right,4,guess_choice,420,j,0,0,499,234362,1078836
50,21,male,Dutch,2,83,guess,win,5,right,4,guess_outcome,0,undefined,0,0,519,232809,1080389
50,21,male,Dutch,2,83,ITC,win,5,right,4,ITC_start,302,space,0,0,519,232507,1080691
50,21,male,Dutch,2,83,ITC,win,5,right,4,ITC_choice,1103,j,0,0,519,231405,1081793
50,21,male,Dutch,2,83,ITC,win,5,right,4,ITC_wait,0,undefined,0,0,519,226403,1086795
50,21,male,Dutch,2,83,ITC,win,5,right,4,ITC_collect,224,k,0,0,519,226178,1087020
50,21,male,Dutch,2,83,ITC,win,5,right,4,ITC_outcome,0,undefined,0,0,539,225176,1088022
50,21,male,Dutch,2,84,guess,neutral,10,right,6,guess_start,230,space,0,0,539,224945,1088253
50,21,male,Dutch,2,84,guess,neutral,10,right,6,guess_choice,308,j,0,0,539,224636,1088562
50,21,male,Dutch,2,84,guess,neutral,10,right,6,guess_outcome,0,undefined,0,0,539,223083,1090115
50,21,male,Dutch,2,84,ITC,neutral,10,right,6,ITC_start,239,space,0,0,539,222842,1090356
50,21,male,Dutch,2,84,ITC,neutral,10,right,6,ITC_choice,1121,j,0,0,539,221721,1091477
50,21,male,Dutch,2,84,ITC,neutral,10,right,6,ITC_wait,0,undefined,0,0,539,211705,1101493
50,21,male,Dutch,2,84,ITC,neutral,10,right,6,ITC_collect,524,k,0,0,539,211179,1102019
50,21,male,Dutch,2,84,ITC,neutral,10,right,6,ITC_outcome,0,undefined,0,0,559,210176,1103022
50,21,male,Dutch,2,85,guess,win,5,left,5,guess_start,837,space,0,0,559,209338,1103860
50,21,male,Dutch,2,85,guess,win,5,left,5,guess_choice,449,j,0,0,559,208888,1104310
50,21,male,Dutch,2,85,guess,win,5,left,5,guess_outcome,0,undefined,0,0,579,207336,1105862
50,21,male,Dutch,2,85,ITC,win,5,left,5,ITC_start,256,space,0,0,579,207080,1106118
50,21,male,Dutch,2,85,ITC,win,5,left,5,ITC_choice,1021,f,0,0,579,206058,1107140
50,21,male,Dutch,2,85,ITC,win,5,left,5,ITC_wait,0,undefined,0,0,579,201054,1112144
50,21,male,Dutch,2,85,ITC,win,5,left,5,ITC_collect,486,k,0,0,579,200567,1112631
50,21,male,Dutch,2,85,ITC,win,5,left,5,ITC_outcome,0,undefined,0,0,599,199564,1113634
50,21,male,Dutch,2,86,guess,win,5,right,11,guess_start,417,space,0,0,599,199146,1114052
50,21,male,Dutch,2,86,guess,win,5,right,11,guess_choice,432,j,0,0,599,198712,1114486
50,21,male,Dutch,2,86,guess,win,5,right,11,guess_outcome,0,undefined,0,0,619,197160,1116038
50,21,male,Dutch,2,86,ITC,win,5,right,11,ITC_start,344,space,0,0,619,196815,1116383
50,21,male,Dutch,2,86,ITC,win,5,right,11,ITC_choice,900,f,0,0,619,195913,1117285
50,21,male,Dutch,2,86,ITC,win,5,right,11,ITC_wait,0,undefined,0,0,619,195911,1117287
50,21,male,Dutch,2,86,ITC,win,5,right,11,ITC_collect,258,k,0,0,619,195652,1117546
50,21,male,Dutch,2,86,ITC,win,5,right,11,ITC_outcome,0,undefined,0,0,630,194649,1118549
50,21,male,Dutch,2,87,guess,loss,5,left,6,guess_start,259,space,0,0,630,194388,1118810
50,21,male,Dutch,2,87,guess,loss,5,left,6,guess_choice,450,j,0,0,630,193937,1119261
50,21,male,Dutch,2,87,guess,loss,5,left,6,guess_outcome,0,undefined,0,0,615,192383,1120815
50,21,male,Dutch,2,87,ITC,loss,5,left,6,ITC_start,285,space,0,0,615,192097,1121101
50,21,male,Dutch,2,87,ITC,loss,5,left,6,ITC_choice,1134,f,0,0,615,190962,1122236
50,21,male,Dutch,2,87,ITC,loss,5,left,6,ITC_wait,0,undefined,0,0,615,185960,1127238
50,21,male,Dutch,2,87,ITC,loss,5,left,6,ITC_collect,255,k,0,0,615,185704,1127494
50,21,male,Dutch,2,87,ITC,loss,5,left,6,ITC_outcome,0,undefined,0,0,635,184702,1128496
50,21,male,Dutch,2,88,guess,loss,5,left,15,guess_start,252,space,0,0,635,184449,1128749
50,21,male,Dutch,2,88,guess,loss,5,left,15,guess_choice,449,j,0,0,635,183999,1129199
50,21,male,Dutch,2,88,guess,loss,5,left,15,guess_outcome,0,undefined,0,0,620,182446,1130752
50,21,male,Dutch,2,88,ITC,loss,5,left,15,ITC_start,340,space,0,0,620,182105,1131093
50,21,male,Dutch,2,88,ITC,loss,5,left,15,ITC_choice,953,j,0,0,620,181151,1132047
50,21,male,Dutch,2,88,ITC,loss,5,left,15,ITC_wait,0,undefined,0,0,620,181149,1132049
50,21,male,Dutch,2,88,ITC,loss,5,left,15,ITC_collect,177,k,0,0,620,180972,1132226
50,21,male,Dutch,2,88,ITC,loss,5,left,15,ITC_outcome,0,undefined,0,0,635,179968,1133230
50,21,male,Dutch,2,89,guess,loss,5,right,11,guess_start,246,space,0,0,635,179721,1133477
50,21,male,Dutch,2,89,guess,loss,5,right,11,guess_choice,409,j,0,0,635,179310,1133888
50,21,male,Dutch,2,89,guess,loss,5,right,11,guess_outcome,0,undefined,0,0,620,177757,1135441
50,21,male,Dutch,2,89,ITC,loss,5,right,11,ITC_start,326,space,0,0,620,177430,1135768
50,21,male,Dutch,2,89,ITC,loss,5,right,11,ITC_choice,853,f,0,0,620,176576,1136622
50,21,male,Dutch,2,89,ITC,loss,5,right,11,ITC_wait,0,undefined,0,0,620,176574,1136624
50,21,male,Dutch,2,89,ITC,loss,5,right,11,ITC_collect,218,k,0,0,620,176356,1136842
50,21,male,Dutch,2,89,ITC,loss,5,right,11,ITC_outcome,0,undefined,0,0,631,175352,1137846
50,21,male,Dutch,2,90,guess,neutral,5,left,5,guess_start,237,space,0,0,631,175114,1138084
50,21,male,Dutch,2,90,guess,neutral,5,left,5,guess_choice,659,f,0,0,631,174453,1138745
50,21,male,Dutch,2,90,guess,neutral,5,left,5,guess_outcome,0,undefined,0,0,631,172901,1140297
50,21,male,Dutch,2,90,ITC,neutral,5,left,5,ITC_start,1040,space,0,0,631,171860,1141338
50,21,male,Dutch,2,90,ITC,neutral,5,left,5,ITC_choice,1074,f,0,0,631,170785,1142413
50,21,male,Dutch,2,90,ITC,neutral,5,left,5,ITC_wait,0,undefined,0,0,631,165784,1147414
50,21,male,Dutch,2,90,ITC,neutral,5,left,5,ITC_collect,274,k,0,0,631,165509,1147689
50,21,male,Dutch,2,90,ITC,neutral,5,left,5,ITC_outcome,0,undefined,0,0,651,164506,1148692
50,21,male,Dutch,2,91,guess,loss,5,left,16,guess_start,239,space,0,0,651,164266,1148932
50,21,male,Dutch,2,91,guess,loss,5,left,16,guess_choice,499,j,0,0,651,163766,1149432
50,21,male,Dutch,2,91,guess,loss,5,left,16,guess_outcome,0,undefined,0,0,636,162211,1150987
50,21,male,Dutch,2,91,ITC,loss,5,left,16,ITC_start,281,space,0,0,636,161930,1151268
50,21,male,Dutch,2,91,ITC,loss,5,left,16,ITC_choice,792,j,0,0,636,161137,1152061
50,21,male,Dutch,2,91,ITC,loss,5,left,16,ITC_wait,0,undefined,0,0,636,161134,1152064
50,21,male,Dutch,2,91,ITC,loss,5,left,16,ITC_collect,208,k,0,0,636,160925,1152273
50,21,male,Dutch,2,91,ITC,loss,5,left,16,ITC_outcome,0,undefined,0,0,652,159922,1153276
50,21,male,Dutch,2,92,guess,loss,5,right,2,guess_start,268,space,0,0,652,159652,1153546
50,21,male,Dutch,2,92,guess,loss,5,right,2,guess_choice,473,j,0,0,652,159178,1154020
50,21,male,Dutch,2,92,guess,loss,5,right,2,guess_outcome,0,undefined,0,0,637,157625,1155573
50,21,male,Dutch,2,92,ITC,loss,5,right,2,ITC_start,412,space,0,0,637,157212,1155986
50,21,male,Dutch,2,92,ITC,loss,5,right,2,ITC_choice,953,j,0,0,637,156258,1156940
50,21,male,Dutch,2,92,ITC,loss,5,right,2,ITC_wait,0,undefined,0,0,637,151254,1161944
50,21,male,Dutch,2,92,ITC,loss,5,right,2,ITC_collect,206,k,0,0,637,151047,1162151
50,21,male,Dutch,2,92,ITC,loss,5,right,2,ITC_outcome,0,undefined,0,0,657,150043,1163155
50,21,male,Dutch,2,93,guess,win,5,right,9,guess_start,245,space,0,0,657,149797,1163401
50,21,male,Dutch,2,93,guess,win,5,right,9,guess_choice,693,j,0,0,657,149102,1164096
50,21,male,Dutch,2,93,guess,win,5,right,9,guess_outcome,0,undefined,0,0,677,147549,1165649
50,21,male,Dutch,2,93,ITC,win,5,right,9,ITC_start,285,space,0,0,677,147264,1165934
50,21,male,Dutch,2,93,ITC,win,5,right,9,ITC_choice,1277,j,0,0,677,145986,1167212
50,21,male,Dutch,2,93,ITC,win,5,right,9,ITC_wait,0,undefined,0,0,677,140983,1172215
50,21,male,Dutch,2,93,ITC,win,5,right,9,ITC_collect,370,k,0,0,677,140611,1172587
50,21,male,Dutch,2,93,ITC,win,5,right,9,ITC_outcome,0,undefined,0,0,697,139608,1173590
50,21,male,Dutch,2,94,guess,loss,5,left,7,guess_start,333,space,0,0,697,139274,1173924
50,21,male,Dutch,2,94,guess,loss,5,left,7,guess_choice,431,j,0,0,697,138841,1174357
50,21,male,Dutch,2,94,guess,loss,5,left,7,guess_outcome,0,undefined,0,0,682,137289,1175909
50,21,male,Dutch,2,94,ITC,loss,5,left,7,ITC_start,219,space,0,0,682,137070,1176128
50,21,male,Dutch,2,94,ITC,loss,5,left,7,ITC_choice,892,f,0,0,682,136177,1177021
50,21,male,Dutch,2,94,ITC,loss,5,left,7,ITC_wait,0,undefined,0,0,682,131175,1182023
50,21,male,Dutch,2,94,ITC,loss,5,left,7,ITC_collect,283,k,0,0,682,130892,1182306
50,21,male,Dutch,2,94,ITC,loss,5,left,7,ITC_outcome,0,undefined,0,0,702,129889,1183309
50,21,male,Dutch,2,95,guess,win,5,left,2,guess_start,1057,space,0,0,702,128832,1184366
50,21,male,Dutch,2,95,guess,win,5,left,2,guess_choice,418,j,0,0,702,128412,1184786
50,21,male,Dutch,2,95,guess,win,5,left,2,guess_outcome,0,undefined,0,0,722,126860,1186338
50,21,male,Dutch,2,95,ITC,win,5,left,2,ITC_start,223,space,0,0,722,126636,1186562
50,21,male,Dutch,2,95,ITC,win,5,left,2,ITC_choice,802,f,0,0,722,125832,1187366
50,21,male,Dutch,2,95,ITC,win,5,left,2,ITC_wait,0,undefined,0,0,722,120831,1192367
50,21,male,Dutch,2,95,ITC,win,5,left,2,ITC_collect,266,k,0,0,722,120564,1192634
50,21,male,Dutch,2,95,ITC,win,5,left,2,ITC_outcome,0,undefined,0,0,742,119560,1193638
50,21,male,Dutch,2,96,guess,neutral,5,right,15,guess_start,384,space,0,0,742,119175,1194023
50,21,male,Dutch,2,96,guess,neutral,5,right,15,guess_choice,749,f,0,0,742,118425,1194773
50,21,male,Dutch,2,96,guess,neutral,5,right,15,guess_outcome,0,undefined,0,0,742,116871,1196327
50,21,male,Dutch,2,96,ITC,neutral,5,right,15,ITC_start,571,space,0,0,742,116299,1196899
50,21,male,Dutch,2,96,ITC,neutral,5,right,15,ITC_choice,890,f,0,0,742,115409,1197789
50,21,male,Dutch,2,96,ITC,neutral,5,right,15,ITC_wait,0,undefined,0,0,742,115406,1197792
50,21,male,Dutch,2,96,ITC,neutral,5,right,15,ITC_collect,198,k,0,0,742,115208,1197990
50,21,male,Dutch,2,96,ITC,neutral,5,right,15,ITC_outcome,0,undefined,0,0,757,114206,1198992
50,21,male,Dutch,2,97,guess,win,5,right,12,guess_start,573,space,0,0,757,113632,1199566
50,21,male,Dutch,2,97,guess,win,5,right,12,guess_choice,439,j,0,0,757,113191,1200007
50,21,male,Dutch,2,97,guess,win,5,right,12,guess_outcome,0,undefined,0,0,777,111636,1201562
50,21,male,Dutch,2,97,ITC,win,5,right,12,ITC_start,284,space,0,0,777,111352,1201846
50,21,male,Dutch,2,97,ITC,win,5,right,12,ITC_choice,984,f,0,0,777,110365,1202833
50,21,male,Dutch,2,97,ITC,win,5,right,12,ITC_wait,0,undefined,0,0,777,110363,1202835
50,21,male,Dutch,2,97,ITC,win,5,right,12,ITC_collect,249,k,0,0,777,110113,1203085
50,21,male,Dutch,2,97,ITC,win,5,right,12,ITC_outcome,0,undefined,0,0,789,109110,1204088
50,21,male,Dutch,2,98,guess,win,5,right,13,guess_start,259,space,0,0,789,108851,1204347
50,21,male,Dutch,2,98,guess,win,5,right,13,guess_choice,479,j,0,0,789,108370,1204828
50,21,male,Dutch,2,98,guess,win,5,right,13,guess_outcome,0,undefined,0,0,809,106817,1206381
50,21,male,Dutch,2,98,ITC,win,5,right,13,ITC_start,429,space,0,0,809,106387,1206811
50,21,male,Dutch,2,98,ITC,win,5,right,13,ITC_wait,0,undefined,0,0,809,105601,1207597
50,21,male,Dutch,2,98,ITC,win,5,right,13,ITC_choice,782,f,0,0,809,105604,1207594
50,21,male,Dutch,2,98,ITC,win,5,right,13,ITC_collect,217,k,0,0,809,105384,1207814
50,21,male,Dutch,2,98,ITC,win,5,right,13,ITC_outcome,0,undefined,0,0,822,104380,1208818
50,21,male,Dutch,2,99,guess,win,10,left,7,guess_start,257,space,0,0,822,104122,1209076
50,21,male,Dutch,2,99,guess,win,10,left,7,guess_choice,611,j,0,0,822,103510,1209688
50,21,male,Dutch,2,99,guess,win,10,left,7,guess_outcome,0,undefined,0,0,842,101958,1211240
50,21,male,Dutch,2,99,ITC,win,10,left,7,ITC_start,280,space,0,0,842,101677,1211521
50,21,male,Dutch,2,99,ITC,win,10,left,7,ITC_choice,1194,j,0,0,842,100481,1212717
50,21,male,Dutch,2,99,ITC,win,10,left,7,ITC_wait,0,undefined,0,0,842,100479,1212719
50,21,male,Dutch,2,99,ITC,win,10,left,7,ITC_collect,124,k,0,0,842,100354,1212844
50,21,male,Dutch,2,99,ITC,win,10,left,7,ITC_outcome,0,undefined,0,0,849,99352,1213846
50,21,male,Dutch,2,100,guess,loss,5,left,3,guess_start,244,space,0,0,849,99106,1214092
50,21,male,Dutch,2,100,guess,loss,5,left,3,guess_choice,443,j,0,0,849,98662,1214536
50,21,male,Dutch,2,100,guess,loss,5,left,3,guess_outcome,0,undefined,0,0,834,97109,1216089
50,21,male,Dutch,2,100,ITC,loss,5,left,3,ITC_start,254,space,0,0,834,96854,1216344
50,21,male,Dutch,2,100,ITC,loss,5,left,3,ITC_choice,824,f,0,0,834,96029,1217169
50,21,male,Dutch,2,100,ITC,loss,5,left,3,ITC_wait,0,undefined,0,0,834,91026,1222172
50,21,male,Dutch,2,100,ITC,loss,5,left,3,ITC_collect,228,k,0,0,834,90797,1222401
50,21,male,Dutch,2,100,ITC,loss,5,left,3,ITC_outcome,0,undefined,0,0,854,89794,1223404
50,21,male,Dutch,2,101,guess,win,5,left,8,guess_start,233,space,0,0,854,89560,1223638
50,21,male,Dutch,2,101,guess,win,5,left,8,guess_choice,440,j,0,0,854,89119,1224079
50,21,male,Dutch,2,101,guess,win,5,left,8,guess_outcome,0,undefined,0,0,874,87566,1225632
50,21,male,Dutch,2,101,ITC,win,5,left,8,ITC_start,248,space,0,0,874,87317,1225881
50,21,male,Dutch,2,101,ITC,win,5,left,8,ITC_choice,1187,f,0,0,874,86129,1227069
50,21,male,Dutch,2,101,ITC,win,5,left,8,ITC_wait,0,undefined,0,0,874,81126,1232072
50,21,male,Dutch,2,101,ITC,win,5,left,8,ITC_collect,433,k,0,0,874,80693,1232505
50,21,male,Dutch,2,101,ITC,win,5,left,8,ITC_outcome,0,undefined,0,0,894,79691,1233507
50,21,male,Dutch,2,102,guess,win,10,right,8,guess_start,294,space,0,0,894,79396,1233802
50,21,male,Dutch,2,102,guess,win,10,right,8,guess_choice,489,j,0,0,894,78906,1234292
50,21,male,Dutch,2,102,guess,win,10,right,8,guess_outcome,0,undefined,0,0,914,77352,1235846
50,21,male,Dutch,2,102,ITC,win,10,right,8,ITC_start,248,space,0,0,914,77104,1236094
50,21,male,Dutch,2,102,ITC,win,10,right,8,ITC_choice,1061,f,0,0,914,76042,1237156
50,21,male,Dutch,2,102,ITC,win,10,right,8,ITC_wait,0,undefined,0,0,914,76039,1237159
50,21,male,Dutch,2,102,ITC,win,10,right,8,ITC_collect,246,k,0,0,914,75792,1237406
50,21,male,Dutch,2,102,ITC,win,10,right,8,ITC_outcome,0,undefined,0,0,922,74790,1238408
50,21,male,Dutch,2,103,guess,loss,10,left,4,guess_start,247,space,0,0,922,74542,1238656
50,21,male,Dutch,2,103,guess,loss,10,left,4,guess_choice,409,j,0,0,922,74132,1239066
50,21,male,Dutch,2,103,guess,loss,10,left,4,guess_outcome,0,undefined,0,0,907,72580,1240618
50,21,male,Dutch,2,103,ITC,loss,10,left,4,ITC_start,229,space,0,0,907,72349,1240849
50,21,male,Dutch,2,103,ITC,loss,10,left,4,ITC_choice,1292,j,0,0,907,71057,1242141
50,21,male,Dutch,2,103,ITC,loss,10,left,4,ITC_wait,0,undefined,0,0,907,71055,1242143
50,21,male,Dutch,2,103,ITC,loss,10,left,4,ITC_collect,128,k,0,0,907,70927,1242271
50,21,male,Dutch,2,103,ITC,loss,10,left,4,ITC_outcome,0,undefined,0,0,911,69923,1243275
50,21,male,Dutch,2,104,guess,loss,5,right,8,guess_start,240,space,0,0,911,69682,1243516
50,21,male,Dutch,2,104,guess,loss,5,right,8,guess_choice,489,j,0,0,911,69191,1244007
50,21,male,Dutch,2,104,guess,loss,5,right,8,guess_outcome,0,undefined,0,0,896,67637,1245561
50,21,male,Dutch,2,104,ITC,loss,5,right,8,ITC_start,285,space,0,0,896,67351,1245847
50,21,male,Dutch,2,104,ITC,loss,5,right,8,ITC_choice,1043,f,0,0,896,66307,1246891
50,21,male,Dutch,2,104,ITC,loss,5,right,8,ITC_wait,0,undefined,0,0,896,66303,1246895
50,21,male,Dutch,2,104,ITC,loss,5,right,8,ITC_collect,173,k,0,0,896,66129,1247069
50,21,male,Dutch,2,104,ITC,loss,5,right,8,ITC_outcome,0,undefined,0,0,904,65128,1248070
50,21,male,Dutch,2,105,guess,neutral,5,left,4,guess_start,234,space,0,0,904,64894,1248304
50,21,male,Dutch,2,105,guess,neutral,5,left,4,guess_choice,592,j,0,0,904,64300,1248898
50,21,male,Dutch,2,105,guess,neutral,5,left,4,guess_outcome,0,undefined,0,0,904,62747,1250451
50,21,male,Dutch,2,105,ITC,neutral,5,left,4,ITC_start,240,space,0,0,904,62506,1250692
50,21,male,Dutch,2,105,ITC,neutral,5,left,4,ITC_choice,950,f,0,0,904,61555,1251643
50,21,male,Dutch,2,105,ITC,neutral,5,left,4,ITC_wait,0,undefined,0,0,904,56552,1256646
50,21,male,Dutch,2,105,ITC,neutral,5,left,4,ITC_collect,321,k,0,0,904,56230,1256968
50,21,male,Dutch,2,105,ITC,neutral,5,left,4,ITC_outcome,0,undefined,0,0,924,55228,1257970
50,21,male,Dutch,2,106,guess,neutral,5,right,3,guess_start,244,space,0,0,924,54984,1258214
50,21,male,Dutch,2,106,guess,neutral,5,right,3,guess_choice,632,f,0,0,924,54350,1258848
50,21,male,Dutch,2,106,guess,neutral,5,right,3,guess_outcome,0,undefined,0,0,924,52795,1260403
50,21,male,Dutch,2,106,ITC,neutral,5,right,3,ITC_start,413,space,0,0,924,52381,1260817
50,21,male,Dutch,2,106,ITC,neutral,5,right,3,ITC_choice,1118,j,0,0,924,51262,1261936
50,21,male,Dutch,2,106,ITC,neutral,5,right,3,ITC_wait,0,undefined,0,0,924,46260,1266938
50,21,male,Dutch,2,106,ITC,neutral,5,right,3,ITC_collect,350,k,0,0,924,45909,1267289
50,21,male,Dutch,2,106,ITC,neutral,5,right,3,ITC_outcome,0,undefined,0,0,944,44905,1268293
50,21,male,Dutch,2,107,guess,win,5,right,1,guess_start,272,space,0,0,944,44633,1268565
50,21,male,Dutch,2,107,guess,win,5,right,1,guess_choice,533,j,0,0,944,44098,1269100
50,21,male,Dutch,2,107,guess,win,5,right,1,guess_outcome,0,undefined,0,0,964,42543,1270655
50,21,male,Dutch,2,107,ITC,win,5,right,1,ITC_start,262,space,0,0,964,42280,1270918
50,21,male,Dutch,2,107,ITC,win,5,right,1,ITC_choice,941,j,0,0,964,41339,1271859
50,21,male,Dutch,2,107,ITC,win,5,right,1,ITC_wait,0,undefined,0,0,964,36337,1276861
50,21,male,Dutch,2,107,ITC,win,5,right,1,ITC_collect,260,k,0,0,964,36076,1277122
50,21,male,Dutch,2,107,ITC,win,5,right,1,ITC_outcome,0,undefined,0,0,984,35074,1278124
50,21,male,Dutch,2,108,guess,win,10,left,1,guess_start,280,space,0,0,984,34793,1278405
50,21,male,Dutch,2,108,guess,win,10,left,1,guess_choice,470,j,0,0,984,34322,1278876
50,21,male,Dutch,2,108,guess,win,10,left,1,guess_outcome,0,undefined,0,0,1004,32768,1280430
50,21,male,Dutch,2,108,ITC,win,10,left,1,ITC_start,298,space,0,0,1004,32470,1280728
50,21,male,Dutch,2,108,ITC,win,10,left,1,ITC_choice,1210,j,0,0,1004,31259,1281939
50,21,male,Dutch,2,108,ITC,win,10,left,1,ITC_wait,0,undefined,0,0,1004,31257,1281941
50,21,male,Dutch,2,108,ITC,win,10,left,1,ITC_collect,138,k,0,0,1004,31118,1282080
50,21,male,Dutch,2,108,ITC,win,10,left,1,ITC_outcome,0,undefined,0,0,1005,30116,1283082
50,21,male,Dutch,2,109,guess,loss,5,left,5,guess_start,213,space,0,0,1005,29901,1283297
50,21,male,Dutch,2,109,guess,loss,5,left,5,guess_choice,811,j,0,0,1005,29088,1284110
50,21,male,Dutch,2,109,guess,loss,5,left,5,guess_outcome,0,undefined,0,0,990,27534,1285664
50,21,male,Dutch,2,109,ITC,loss,5,left,5,ITC_start,388,space,0,0,990,27145,1286053
50,21,male,Dutch,2,109,ITC,loss,5,left,5,ITC_choice,1464,f,0,0,990,25679,1287519
50,21,male,Dutch,2,109,ITC,loss,5,left,5,ITC_wait,0,undefined,0,0,990,20675,1292523
50,21,male,Dutch,2,109,ITC,loss,5,left,5,ITC_collect,882,k,0,0,990,19792,1293406
50,21,male,Dutch,2,109,ITC,loss,5,left,5,ITC_outcome,0,undefined,0,0,1010,18789,1294409
50,21,male,Dutch,2,110,guess,win,10,left,5,guess_start,837,space,0,0,1010,17951,1295247
50,21,male,Dutch,2,110,guess,win,10,left,5,guess_choice,519,j,0,0,1010,17431,1295767
50,21,male,Dutch,2,110,guess,win,10,left,5,guess_outcome,0,undefined,0,0,1030,15877,1297321
50,21,male,Dutch,2,110,ITC,win,10,left,5,ITC_start,372,space,0,0,1030,15505,1297693
50,21,male,Dutch,2,110,ITC,win,10,left,5,ITC_choice,1764,j,0,0,1030,13741,1299457
50,21,male,Dutch,2,110,ITC,win,10,left,5,ITC_wait,0,undefined,0,0,1030,13737,1299461
50,21,male,Dutch,2,110,ITC,win,10,left,5,ITC_collect,446,k,0,0,1030,13290,1299908
50,21,male,Dutch,2,110,ITC,win,10,left,5,ITC_outcome,0,undefined,0,0,1035,12287,1300911
50,21,male,Dutch,2,111,guess,neutral,5,left,9,guess_start,275,space,0,0,1035,12010,1301188
50,21,male,Dutch,2,111,guess,neutral,5,left,9,guess_choice,651,f,0,0,1035,11358,1301840
50,21,male,Dutch,2,111,guess,neutral,5,left,9,guess_outcome,0,undefined,0,0,1035,9805,1303393
50,21,male,Dutch,2,111,ITC,neutral,5,left,9,ITC_start,413,space,0,0,1035,9392,1303806
50,21,male,Dutch,2,111,ITC,neutral,5,left,9,ITC_choice,1123,j,0,0,1035,8268,1304930
50,21,male,Dutch,2,111,ITC,neutral,5,left,9,ITC_wait,0,undefined,0,0,1035,8265,1304933
50,21,male,Dutch,2,111,ITC,neutral,5,left,9,ITC_collect,146,k,0,0,1035,8118,1305080
50,21,male,Dutch,2,111,ITC,neutral,5,left,9,ITC_outcome,0,undefined,0,0,1044,7114,1306084
50,21,male,Dutch,2,112,guess,neutral,10,left,8,guess_start,229,space,0,0,1044,6884,1306314
50,21,male,Dutch,2,112,guess,neutral,10,left,8,guess_choice,670,f,0,0,1044,6213,1306985
50,21,male,Dutch,2,112,guess,neutral,10,left,8,guess_outcome,0,undefined,0,0,1044,4659,1308539
50,21,male,Dutch,2,112,ITC,neutral,10,left,8,ITC_start,431,space,0,0,1044,4227,1308971
50,21,male,Dutch,2,112,ITC,neutral,10,left,8,ITC_choice,914,j,0,0,1044,3312,1309886
50,21,male,Dutch,2,112,ITC,neutral,10,left,8,ITC_wait,0,undefined,0,0,1044,3309,1309889
50,21,male,Dutch,2,112,ITC,neutral,10,left,8,ITC_collect,155,k,0,0,1044,3154,1310044
50,21,male,Dutch,2,112,ITC,neutral,10,left,8,ITC_outcome,0,undefined,0,0,1052,2150,1311048
50,21,male,Dutch,2,113,guess,win,10,right,6,guess_start,301,space,0,0,1052,1848,1311350
50,21,male,Dutch,2,113,guess,win,10,right,6,guess_choice,460,j,0,0,1052,1387,1311811
50,21,male,Dutch,2,113,guess,win,10,right,6,guess_outcome,0,undefined,0,0,1072,-3,1313201
50,21,male,Dutch,3,114,guess,neutral,5,right,16,guess_start,535,space,0,0,0,479464,1468799
50,21,male,Dutch,3,114,guess,neutral,5,right,16,guess_choice,539,j,0,0,0,478923,1469340
50,21,male,Dutch,3,114,guess,neutral,5,right,16,guess_outcome,0,undefined,0,0,0,477370,1470893
50,21,male,Dutch,3,114,ITC,neutral,5,right,16,ITC_start,386,space,0,0,0,476983,1471280
50,21,male,Dutch,3,114,ITC,neutral,5,right,16,ITC_choice,1148,f,0,0,0,475834,1472429
50,21,male,Dutch,3,114,ITC,neutral,5,right,16,ITC_wait,0,undefined,0,0,0,475833,1472430
50,21,male,Dutch,3,114,ITC,neutral,5,right,16,ITC_collect,288,k,0,0,0,475544,1472719
50,21,male,Dutch,3,114,ITC,neutral,5,right,16,ITC_outcome,0,undefined,0,0,16,474542,1473721
50,21,male,Dutch,3,115,guess,loss,10,right,2,guess_start,216,space,0,0,16,474325,1473938
50,21,male,Dutch,3,115,guess,loss,10,right,2,guess_choice,623,j,0,0,16,473700,1474563
50,21,male,Dutch,3,115,guess,loss,10,right,2,guess_outcome,0,undefined,0,0,1,472147,1476116
50,21,male,Dutch,3,115,ITC,loss,10,right,2,ITC_start,285,space,0,0,1,471861,1476402
50,21,male,Dutch,3,115,ITC,loss,10,right,2,ITC_choice,2185,f,0,0,1,469676,1478587
50,21,male,Dutch,3,115,ITC,loss,10,right,2,ITC_wait,0,undefined,0,0,1,469674,1478589
50,21,male,Dutch,3,115,ITC,loss,10,right,2,ITC_collect,195,k,0,0,1,469477,1478786
50,21,male,Dutch,3,115,ITC,loss,10,right,2,ITC_outcome,0,undefined,0,0,3,468475,1479788
50,21,male,Dutch,3,116,guess,neutral,10,left,4,guess_start,227,space,0,0,3,468247,1480016
50,21,male,Dutch,3,116,guess,neutral,10,left,4,guess_choice,461,j,0,0,3,467784,1480479
50,21,male,Dutch,3,116,guess,neutral,10,left,4,guess_outcome,0,undefined,0,0,3,466232,1482031
50,21,male,Dutch,3,116,ITC,neutral,10,left,4,ITC_start,340,space,0,0,3,465891,1482372
50,21,male,Dutch,3,116,ITC,neutral,10,left,4,ITC_choice,1188,j,0,0,3,464702,1483561
50,21,male,Dutch,3,116,ITC,neutral,10,left,4,ITC_wait,0,undefined,0,0,3,464700,1483563
50,21,male,Dutch,3,116,ITC,neutral,10,left,4,ITC_collect,205,k,0,0,3,464495,1483768
50,21,male,Dutch,3,116,ITC,neutral,10,left,4,ITC_outcome,0,undefined,0,0,7,463491,1484772
50,21,male,Dutch,3,117,guess,neutral,5,left,2,guess_start,326,space,0,0,7,463164,1485099
50,21,male,Dutch,3,117,guess,neutral,5,left,2,guess_choice,638,f,0,0,7,462524,1485739
50,21,male,Dutch,3,117,guess,neutral,5,left,2,guess_outcome,0,undefined,0,0,7,460972,1487291
50,21,male,Dutch,3,117,ITC,neutral,5,left,2,ITC_start,205,space,0,0,7,460766,1487497
50,21,male,Dutch,3,117,ITC,neutral,5,left,2,ITC_choice,915,f,0,0,7,459851,1488412
50,21,male,Dutch,3,117,ITC,neutral,5,left,2,ITC_wait,0,undefined,0,0,7,454847,1493416
50,21,male,Dutch,3,117,ITC,neutral,5,left,2,ITC_collect,281,k,0,0,7,454565,1493698
50,21,male,Dutch,3,117,ITC,neutral,5,left,2,ITC_outcome,0,undefined,0,0,27,453563,1494700
50,21,male,Dutch,3,118,guess,win,5,left,6,guess_start,383,space,0,0,27,453179,1495084
50,21,male,Dutch,3,118,guess,win,5,left,6,guess_choice,480,j,0,0,27,452698,1495565
50,21,male,Dutch,3,118,guess,win,5,left,6,guess_outcome,0,undefined,0,0,47,451144,1497119
50,21,male,Dutch,3,118,ITC,win,5,left,6,ITC_start,367,space,0,0,47,450776,1497487
50,21,male,Dutch,3,118,ITC,win,5,left,6,ITC_choice,822,f,0,0,47,449954,1498309
50,21,male,Dutch,3,118,ITC,win,5,left,6,ITC_wait,0,undefined,0,0,47,444950,1503313
50,21,male,Dutch,3,118,ITC,win,5,left,6,ITC_collect,556,k,0,0,47,444393,1503870
50,21,male,Dutch,3,118,ITC,win,5,left,6,ITC_outcome,0,undefined,0,0,67,443391,1504872
50,21,male,Dutch,3,119,guess,neutral,10,left,3,guess_start,276,space,0,0,67,443113,1505150
50,21,male,Dutch,3,119,guess,neutral,10,left,3,guess_choice,490,f,0,0,67,442622,1505641
50,21,male,Dutch,3,119,guess,neutral,10,left,3,guess_outcome,0,undefined,0,0,67,441066,1507197
50,21,male,Dutch,3,119,ITC,neutral,10,left,3,ITC_start,214,space,0,0,67,440851,1507412
50,21,male,Dutch,3,119,ITC,neutral,10,left,3,ITC_choice,1156,j,0,0,67,439695,1508568
50,21,male,Dutch,3,119,ITC,neutral,10,left,3,ITC_wait,0,undefined,0,0,67,439692,1508571
50,21,male,Dutch,3,119,ITC,neutral,10,left,3,ITC_collect,189,k,0,0,67,439502,1508761
50,21,male,Dutch,3,119,ITC,neutral,10,left,3,ITC_outcome,0,undefined,0,0,70,438499,1509764
50,21,male,Dutch,3,120,guess,loss,5,left,4,guess_start,227,space,0,0,70,438271,1509992
50,21,male,Dutch,3,120,guess,loss,5,left,4,guess_choice,430,j,0,0,70,437840,1510423
50,21,male,Dutch,3,120,guess,loss,5,left,4,guess_outcome,0,undefined,0,0,55,436287,1511976
50,21,male,Dutch,3,120,ITC,loss,5,left,4,ITC_start,264,space,0,0,55,436022,1512241
50,21,male,Dutch,3,120,ITC,loss,5,left,4,ITC_choice,801,f,0,0,55,435220,1513043
50,21,male,Dutch,3,120,ITC,loss,5,left,4,ITC_wait,0,undefined,0,0,55,430217,1518046
50,21,male,Dutch,3,120,ITC,loss,5,left,4,ITC_collect,227,k,0,0,55,429989,1518274
50,21,male,Dutch,3,120,ITC,loss,5,left,4,ITC_outcome,0,undefined,0,0,75,428987,1519276
50,21,male,Dutch,3,121,guess,loss,5,right,10,guess_start,426,space,0,0,75,428559,1519704
50,21,male,Dutch,3,121,guess,loss,5,right,10,guess_choice,430,j,0,0,75,428128,1520135
50,21,male,Dutch,3,121,guess,loss,5,right,10,guess_outcome,0,undefined,0,0,60,426575,1521688
50,21,male,Dutch,3,121,ITC,loss,5,right,10,ITC_start,226,space,0,0,60,426348,1521915
50,21,male,Dutch,3,121,ITC,loss,5,right,10,ITC_choice,966,f,0,0,60,425381,1522882
50,21,male,Dutch,3,121,ITC,loss,5,right,10,ITC_wait,0,undefined,0,0,60,425378,1522885
50,21,male,Dutch,3,121,ITC,loss,5,right,10,ITC_collect,193,k,0,0,60,425184,1523079
50,21,male,Dutch,3,121,ITC,loss,5,right,10,ITC_outcome,0,undefined,0,0,70,424180,1524083
50,21,male,Dutch,3,122,guess,loss,10,right,6,guess_start,238,space,0,0,70,423941,1524322
50,21,male,Dutch,3,122,guess,loss,10,right,6,guess_choice,370,j,0,0,70,423570,1524693
50,21,male,Dutch,3,122,guess,loss,10,right,6,guess_outcome,0,undefined,0,0,55,422016,1526247
50,21,male,Dutch,3,122,ITC,loss,10,right,6,ITC_start,230,space,0,0,55,421785,1526478
50,21,male,Dutch,3,122,ITC,loss,10,right,6,ITC_choice,1890,j,0,0,55,419896,1528367
50,21,male,Dutch,3,122,ITC,loss,10,right,6,ITC_wait,0,undefined,0,0,55,409893,1538370
50,21,male,Dutch,3,122,ITC,loss,10,right,6,ITC_collect,391,k,0,0,55,409501,1538762
50,21,male,Dutch,3,122,ITC,loss,10,right,6,ITC_outcome,0,undefined,0,0,75,408498,1539765
50,21,male,Dutch,3,123,guess,loss,5,right,12,guess_start,258,space,0,0,75,408239,1540024
50,21,male,Dutch,3,123,guess,loss,5,right,12,guess_choice,429,j,0,0,75,407809,1540454
50,21,male,Dutch,3,123,guess,loss,5,right,12,guess_outcome,0,undefined,0,0,60,406257,1542006
50,21,male,Dutch,3,123,ITC,loss,5,right,12,ITC_start,194,space,0,0,60,406062,1542201
50,21,male,Dutch,3,123,ITC,loss,5,right,12,ITC_choice,1872,f,0,0,60,404189,1544074
50,21,male,Dutch,3,123,ITC,loss,5,right,12,ITC_wait,0,undefined,0,0,60,404187,1544076
50,21,male,Dutch,3,123,ITC,loss,5,right,12,ITC_collect,129,k,0,0,60,404058,1544205
50,21,male,Dutch,3,123,ITC,loss,5,right,12,ITC_outcome,0,undefined,0,0,72,403056,1545207
50,21,male,Dutch,3,124,guess,win,10,right,4,guess_start,267,space,0,0,72,402788,1545475
50,21,male,Dutch,3,124,guess,win,10,right,4,guess_choice,409,j,0,0,72,402378,1545885
50,21,male,Dutch,3,124,guess,win,10,right,4,guess_outcome,0,undefined,0,0,92,400824,1547439
50,21,male,Dutch,3,124,ITC,win,10,right,4,ITC_start,213,space,0,0,92,400610,1547653
50,21,male,Dutch,3,124,ITC,win,10,right,4,ITC_choice,1266,f,0,0,92,399344,1548919
50,21,male,Dutch,3,124,ITC,win,10,right,4,ITC_wait,0,undefined,0,0,92,399342,1548921
50,21,male,Dutch,3,124,ITC,win,10,right,4,ITC_collect,127,k,0,0,92,399214,1549049
50,21,male,Dutch,3,124,ITC,win,10,right,4,ITC_outcome,0,undefined,0,0,96,398210,1550053
50,21,male,Dutch,3,125,guess,neutral,5,left,7,guess_start,222,space,0,0,96,397987,1550276
50,21,male,Dutch,3,125,guess,neutral,5,left,7,guess_choice,282,j,0,0,96,397703,1550560
50,21,male,Dutch,3,125,guess,neutral,5,left,7,guess_outcome,0,undefined,0,0,96,396150,1552113
50,21,male,Dutch,3,125,ITC,neutral,5,left,7,ITC_start,331,space,0,0,96,395818,1552445
50,21,male,Dutch,3,125,ITC,neutral,5,left,7,ITC_choice,1106,f,0,0,96,394711,1553552
50,21,male,Dutch,3,125,ITC,neutral,5,left,7,ITC_wait,0,undefined,0,0,96,389707,1558556
50,21,male,Dutch,3,125,ITC,neutral,5,left,7,ITC_collect,266,k,0,0,96,389439,1558824
50,21,male,Dutch,3,125,ITC,neutral,5,left,7,ITC_outcome,0,undefined,0,0,116,388436,1559827
50,21,male,Dutch,3,126,guess,loss,10,left,7,guess_start,246,space,0,0,116,388189,1560074
50,21,male,Dutch,3,126,guess,loss,10,left,7,guess_choice,419,j,0,0,116,387769,1560494
50,21,male,Dutch,3,126,guess,loss,10,left,7,guess_outcome,0,undefined,0,0,101,386217,1562046
50,21,male,Dutch,3,126,ITC,loss,10,left,7,ITC_start,230,space,0,0,101,385987,1562276
50,21,male,Dutch,3,126,ITC,loss,10,left,7,ITC_choice,1054,j,0,0,101,384932,1563331
50,21,male,Dutch,3,126,ITC,loss,10,left,7,ITC_wait,0,undefined,0,0,101,384930,1563333
50,21,male,Dutch,3,126,ITC,loss,10,left,7,ITC_collect,137,k,0,0,101,384791,1563472
50,21,male,Dutch,3,126,ITC,loss,10,left,7,ITC_outcome,0,undefined,0,0,108,383787,1564476
50,21,male,Dutch,3,127,guess,neutral,10,left,5,guess_start,260,space,0,0,108,383527,1564736
50,21,male,Dutch,3,127,guess,neutral,10,left,5,guess_choice,364,j,0,0,108,383161,1565102
50,21,male,Dutch,3,127,guess,neutral,10,left,5,guess_outcome,0,undefined,0,0,108,381607,1566656
50,21,male,Dutch,3,127,ITC,neutral,10,left,5,ITC_start,1253,space,0,0,108,380353,1567910
50,21,male,Dutch,3,127,ITC,neutral,10,left,5,ITC_choice,1699,j,0,0,108,378653,1569610
50,21,male,Dutch,3,127,ITC,neutral,10,left,5,ITC_wait,0,undefined,0,0,108,378651,1569612
50,21,male,Dutch,3,127,ITC,neutral,10,left,5,ITC_collect,736,k,0,0,108,377914,1570349
50,21,male,Dutch,3,127,ITC,neutral,10,left,5,ITC_outcome,0,undefined,0,0,113,376911,1571352
50,21,male,Dutch,3,128,guess,loss,5,left,13,guess_start,246,space,0,0,113,376664,1571599
50,21,male,Dutch,3,128,guess,loss,5,left,13,guess_choice,431,j,0,0,113,376232,1572031
50,21,male,Dutch,3,128,guess,loss,5,left,13,guess_outcome,0,undefined,0,0,98,374680,1573583
50,21,male,Dutch,3,128,ITC,loss,5,left,13,ITC_start,243,space,0,0,98,374436,1573827
50,21,male,Dutch,3,128,ITC,loss,5,left,13,ITC_choice,961,j,0,0,98,373475,1574788
50,21,male,Dutch,3,128,ITC,loss,5,left,13,ITC_wait,0,undefined,0,0,98,373472,1574791
50,21,male,Dutch,3,128,ITC,loss,5,left,13,ITC_collect,112,k,0,0,98,373360,1574903
50,21,male,Dutch,3,128,ITC,loss,5,left,13,ITC_outcome,0,undefined,0,0,111,372357,1575906
50,21,male,Dutch,3,129,guess,win,5,right,10,guess_start,228,space,0,0,111,372128,1576135
50,21,male,Dutch,3,129,guess,win,5,right,10,guess_choice,408,j,0,0,111,371718,1576545
50,21,male,Dutch,3,129,guess,win,5,right,10,guess_outcome,0,undefined,0,0,131,370163,1578100
50,21,male,Dutch,3,129,ITC,win,5,right,10,ITC_start,243,space,0,0,131,369919,1578344
50,21,male,Dutch,3,129,ITC,win,5,right,10,ITC_choice,983,f,0,0,131,368935,1579328
50,21,male,Dutch,3,129,ITC,win,5,right,10,ITC_wait,0,undefined,0,0,131,368933,1579330
50,21,male,Dutch,3,129,ITC,win,5,right,10,ITC_collect,177,k,0,0,131,368754,1579509
50,21,male,Dutch,3,129,ITC,win,5,right,10,ITC_outcome,0,undefined,0,0,141,367753,1580510
50,21,male,Dutch,3,130,guess,neutral,5,right,12,guess_start,235,space,0,0,141,367517,1580746
50,21,male,Dutch,3,130,guess,neutral,5,right,12,guess_choice,400,j,0,0,141,367116,1581147
50,21,male,Dutch,3,130,guess,neutral,5,right,12,guess_outcome,0,undefined,0,0,141,365563,1582700
50,21,male,Dutch,3,130,ITC,neutral,5,right,12,ITC_start,266,space,0,0,141,365296,1582967
50,21,male,Dutch,3,130,ITC,neutral,5,right,12,ITC_choice,1136,f,0,0,141,364158,1584105
50,21,male,Dutch,3,130,ITC,neutral,5,right,12,ITC_wait,0,undefined,0,0,141,364155,1584108
50,21,male,Dutch,3,130,ITC,neutral,5,right,12,ITC_collect,178,k,0,0,141,363976,1584287
50,21,male,Dutch,3,130,ITC,neutral,5,right,12,ITC_outcome,0,undefined,0,0,153,362974,1585289
50,21,male,Dutch,3,131,guess,neutral,10,left,1,guess_start,223,space,0,0,153,362750,1585513
50,21,male,Dutch,3,131,guess,neutral,10,left,1,guess_choice,582,f,0,0,153,362167,1586096
50,21,male,Dutch,3,131,guess,neutral,10,left,1,guess_outcome,0,undefined,0,0,153,360614,1587649
50,21,male,Dutch,3,131,ITC,neutral,10,left,1,ITC_start,277,space,0,0,153,360337,1587926
50,21,male,Dutch,3,131,ITC,neutral,10,left,1,ITC_choice,1034,f,0,0,153,359300,1588963
50,21,male,Dutch,3,131,ITC,neutral,10,left,1,ITC_wait,0,undefined,0,0,153,349298,1598965
50,21,male,Dutch,3,131,ITC,neutral,10,left,1,ITC_collect,229,k,0,0,153,349069,1599194
50,21,male,Dutch,3,131,ITC,neutral,10,left,1,ITC_outcome,0,undefined,0,0,173,348065,1600198
50,21,male,Dutch,3,132,guess,neutral,10,right,2,guess_start,236,space,0,0,173,347828,1600435
50,21,male,Dutch,3,132,guess,neutral,10,right,2,guess_choice,536,f,0,0,173,347290,1600973
50,21,male,Dutch,3,132,guess,neutral,10,right,2,guess_outcome,0,undefined,0,0,173,345737,1602526
50,21,male,Dutch,3,132,ITC,neutral,10,right,2,ITC_start,188,space,0,0,173,345548,1602715
50,21,male,Dutch,3,132,ITC,neutral,10,right,2,ITC_choice,1214,j,0,0,173,344333,1603930
50,21,male,Dutch,3,133,guess,loss,5,left,1,guess_outcome,0,undefined,0,0,178,330758,1617505
50,21,male,Dutch,3,132,ITC,neutral,10,right,2,ITC_wait,0,undefined,0,0,173,334326,1613937
50,21,male,Dutch,3,132,ITC,neutral,10,right,2,ITC_outcome,0,undefined,0,0,193,333057,1615206
50,21,male,Dutch,3,133,guess,loss,5,left,1,guess_choice,469,j,0,0,193,332312,1615951
50,21,male,Dutch,3,133,guess,loss,5,left,1,guess_start,273,space,0,0,193,332783,1615480
50,21,male,Dutch,3,132,ITC,neutral,10,right,2,ITC_collect,263,k,0,0,173,334061,1614202
50,21,male,Dutch,3,133,ITC,loss,5,left,1,ITC_start,384,space,0,0,178,330373,1617890
50,21,male,Dutch,3,133,ITC,loss,5,left,1,ITC_choice,819,f,0,0,178,329553,1618710
50,21,male,Dutch,3,133,ITC,loss,5,left,1,ITC_wait,0,undefined,0,0,178,324550,1623713
50,21,male,Dutch,3,133,ITC,loss,5,left,1,ITC_collect,257,k,0,0,178,324292,1623971
50,21,male,Dutch,3,133,ITC,loss,5,left,1,ITC_outcome,0,undefined,0,0,198,323289,1624974
50,21,male,Dutch,3,134,guess,neutral,5,right,13,guess_start,209,space,0,0,198,323078,1625185
50,21,male,Dutch,3,134,guess,neutral,5,right,13,guess_choice,469,j,0,0,198,322608,1625655
50,21,male,Dutch,3,134,guess,neutral,5,right,13,guess_outcome,0,undefined,0,0,198,321055,1627208
50,21,male,Dutch,3,134,ITC,neutral,5,right,13,ITC_start,252,space,0,0,198,320803,1627460
50,21,male,Dutch,3,134,ITC,neutral,5,right,13,ITC_choice,912,f,0,0,198,319890,1628373
50,21,male,Dutch,3,134,ITC,neutral,5,right,13,ITC_wait,0,undefined,0,0,198,319886,1628377
50,21,male,Dutch,3,134,ITC,neutral,5,right,13,ITC_collect,197,k,0,0,198,319689,1628574
50,21,male,Dutch,3,134,ITC,neutral,5,right,13,ITC_outcome,0,undefined,0,0,211,318687,1629576
50,21,male,Dutch,3,135,guess,win,5,right,3,guess_start,217,space,0,0,211,318468,1629795
50,21,male,Dutch,3,135,guess,win,5,right,3,guess_choice,428,j,0,0,211,318039,1630224
50,21,male,Dutch,3,135,guess,win,5,right,3,guess_outcome,0,undefined,0,0,231,316485,1631778
50,21,male,Dutch,3,135,ITC,win,5,right,3,ITC_start,103,space,0,0,231,316382,1631881
50,21,male,Dutch,3,135,ITC,win,5,right,3,ITC_choice,1032,j,0,0,231,315348,1632915
50,21,male,Dutch,3,135,ITC,win,5,right,3,ITC_wait,0,undefined,0,0,231,310347,1637916
50,21,male,Dutch,3,135,ITC,win,5,right,3,ITC_collect,267,k,0,0,231,310079,1638184
50,21,male,Dutch,3,135,ITC,win,5,right,3,ITC_outcome,0,undefined,0,0,251,309077,1639186
50,21,male,Dutch,3,136,guess,win,5,left,16,guess_start,230,space,0,0,251,308845,1639418
50,21,male,Dutch,3,136,guess,win,5,left,16,guess_choice,388,j,0,0,251,308456,1639807
50,21,male,Dutch,3,136,guess,win,5,left,16,guess_outcome,0,undefined,0,0,271,306904,1641359
50,21,male,Dutch,3,136,ITC,win,5,left,16,ITC_start,220,space,0,0,271,306683,1641580
50,21,male,Dutch,3,136,ITC,win,5,left,16,ITC_choice,739,j,0,0,271,305944,1642319
50,21,male,Dutch,3,136,ITC,win,5,left,16,ITC_wait,0,undefined,0,0,271,305941,1642322
50,21,male,Dutch,3,136,ITC,win,5,left,16,ITC_collect,158,k,0,0,271,305783,1642480
50,21,male,Dutch,3,136,ITC,win,5,left,16,ITC_outcome,0,undefined,0,0,287,304780,1643483
50,21,male,Dutch,3,137,guess,neutral,5,left,10,guess_start,272,space,0,0,287,304508,1643755
50,21,male,Dutch,3,137,guess,neutral,5,left,10,guess_choice,379,j,0,0,287,304127,1644136
50,21,male,Dutch,3,137,guess,neutral,5,left,10,guess_outcome,0,undefined,0,0,287,302574,1645689
50,21,male,Dutch,3,137,ITC,neutral,5,left,10,ITC_start,213,space,0,0,287,302360,1645903
50,21,male,Dutch,3,137,ITC,neutral,5,left,10,ITC_choice,1002,f,0,0,287,301358,1646905
50,21,male,Dutch,3,137,ITC,neutral,5,left,10,ITC_wait,0,undefined,0,0,287,296355,1651908
50,21,male,Dutch,3,137,ITC,neutral,5,left,10,ITC_collect,278,k,0,0,287,296076,1652187
50,21,male,Dutch,3,137,ITC,neutral,5,left,10,ITC_outcome,0,undefined,0,0,307,295075,1653188
50,21,male,Dutch,3,138,guess,loss,5,left,14,guess_start,731,space,0,0,307,294343,1653920
50,21,male,Dutch,3,138,guess,loss,5,left,14,guess_choice,429,j,0,0,307,293913,1654350
50,21,male,Dutch,3,138,guess,loss,5,left,14,guess_outcome,0,undefined,0,0,292,292360,1655903
50,21,male,Dutch,3,138,ITC,loss,5,left,14,ITC_start,219,space,0,0,292,292139,1656124
50,21,male,Dutch,3,138,ITC,loss,5,left,14,ITC_choice,703,j,0,0,292,291436,1656827
50,21,male,Dutch,3,138,ITC,loss,5,left,14,ITC_wait,0,undefined,0,0,292,291433,1656830
50,21,male,Dutch,3,138,ITC,loss,5,left,14,ITC_collect,164,k,0,0,292,291268,1656995
50,21,male,Dutch,3,138,ITC,loss,5,left,14,ITC_outcome,0,undefined,0,0,306,290265,1657998
50,21,male,Dutch,3,139,guess,loss,10,left,1,guess_start,251,space,0,0,306,290013,1658250
50,21,male,Dutch,3,139,guess,loss,10,left,1,guess_choice,550,j,0,0,306,289461,1658802
50,21,male,Dutch,3,139,guess,loss,10,left,1,guess_outcome,0,undefined,0,0,291,287907,1660356
50,21,male,Dutch,3,139,ITC,loss,10,left,1,ITC_start,303,space,0,0,291,287603,1660660
50,21,male,Dutch,3,139,ITC,loss,10,left,1,ITC_choice,823,f,0,0,291,286779,1661484
50,21,male,Dutch,3,139,ITC,loss,10,left,1,ITC_wait,0,undefined,0,0,291,276763,1671500
50,21,male,Dutch,3,139,ITC,loss,10,left,1,ITC_collect,288,k,0,0,291,276474,1671789
50,21,male,Dutch,3,139,ITC,loss,10,left,1,ITC_outcome,0,undefined,0,0,311,275470,1672793
50,21,male,Dutch,3,140,guess,neutral,5,right,14,guess_start,332,space,0,0,311,275137,1673126
50,21,male,Dutch,3,140,guess,neutral,5,right,14,guess_choice,523,f,0,0,311,274613,1673650
50,21,male,Dutch,3,140,guess,neutral,5,right,14,guess_outcome,0,undefined,0,0,311,273060,1675203
50,21,male,Dutch,3,140,ITC,neutral,5,right,14,ITC_start,231,space,0,0,311,272828,1675435
50,21,male,Dutch,3,140,ITC,neutral,5,right,14,ITC_choice,850,f,0,0,311,271977,1676286
50,21,male,Dutch,3,140,ITC,neutral,5,right,14,ITC_wait,0,undefined,0,0,311,271975,1676288
50,21,male,Dutch,3,140,ITC,neutral,5,right,14,ITC_collect,179,k,0,0,311,271795,1676468
50,21,male,Dutch,3,140,ITC,neutral,5,right,14,ITC_outcome,0,undefined,0,0,325,270793,1677470
50,21,male,Dutch,3,141,guess,loss,10,right,3,guess_start,256,space,0,0,325,270535,1677728
50,21,male,Dutch,3,141,guess,loss,10,right,3,guess_choice,279,j,0,0,325,270255,1678008
50,21,male,Dutch,3,141,guess,loss,10,right,3,guess_outcome,0,undefined,0,0,310,268703,1679560
50,21,male,Dutch,3,141,ITC,loss,10,right,3,ITC_start,196,space,0,0,310,268506,1679757
50,21,male,Dutch,3,141,ITC,loss,10,right,3,ITC_choice,1219,j,0,0,310,267287,1680976
50,21,male,Dutch,3,141,ITC,loss,10,right,3,ITC_wait,0,undefined,0,0,310,257275,1690988
50,21,male,Dutch,3,141,ITC,loss,10,right,3,ITC_collect,1022,k,0,0,310,256252,1692011
50,21,male,Dutch,3,141,ITC,loss,10,right,3,ITC_outcome,0,undefined,0,0,330,255248,1693015
50,21,male,Dutch,3,142,guess,neutral,5,left,6,guess_start,205,space,0,0,330,255042,1693221
50,21,male,Dutch,3,142,guess,neutral,5,left,6,guess_choice,472,j,0,0,330,254569,1693694
50,21,male,Dutch,3,142,guess,neutral,5,left,6,guess_outcome,0,undefined,0,0,330,253015,1695248
50,21,male,Dutch,3,142,ITC,neutral,5,left,6,ITC_start,107,space,0,0,330,252907,1695356
50,21,male,Dutch,3,142,ITC,neutral,5,left,6,ITC_choice,931,f,0,0,330,251976,1696287
50,21,male,Dutch,3,142,ITC,neutral,5,left,6,ITC_wait,0,undefined,0,0,330,246974,1701289
50,21,male,Dutch,3,142,ITC,neutral,5,left,6,ITC_collect,255,k,0,0,330,246718,1701545
50,21,male,Dutch,3,142,ITC,neutral,5,left,6,ITC_outcome,0,undefined,0,0,350,245717,1702546
50,21,male,Dutch,3,143,guess,win,5,right,14,guess_start,270,space,0,0,350,245446,1702817
50,21,male,Dutch,3,143,guess,win,5,right,14,guess_choice,449,j,0,0,350,244995,1703268
50,21,male,Dutch,3,143,guess,win,5,right,14,guess_outcome,0,undefined,0,0,370,243442,1704821
50,21,male,Dutch,3,143,ITC,win,5,right,14,ITC_start,117,space,0,0,370,243324,1704939
50,21,male,Dutch,3,143,ITC,win,5,right,14,ITC_choice,1123,f,0,0,370,242200,1706063
50,21,male,Dutch,3,143,ITC,win,5,right,14,ITC_wait,0,undefined,0,0,370,242196,1706067
50,21,male,Dutch,3,143,ITC,win,5,right,14,ITC_collect,185,k,0,0,370,242011,1706252
50,21,male,Dutch,3,143,ITC,win,5,right,14,ITC_outcome,0,undefined,0,0,384,241008,1707255
50,21,male,Dutch,3,144,guess,loss,10,right,5,guess_start,220,space,0,0,384,240787,1707476
50,21,male,Dutch,3,144,guess,loss,10,right,5,guess_choice,381,j,0,0,384,240405,1707858
50,21,male,Dutch,3,144,guess,loss,10,right,5,guess_outcome,0,undefined,0,0,369,238852,1709411
50,21,male,Dutch,3,144,ITC,loss,10,right,5,ITC_start,53,space,0,0,369,238798,1709465
50,21,male,Dutch,3,144,ITC,loss,10,right,5,ITC_choice,2062,j,0,0,369,236736,1711527
50,21,male,Dutch,3,144,ITC,loss,10,right,5,ITC_wait,0,undefined,0,0,369,226718,1721545
50,21,male,Dutch,3,144,ITC,loss,10,right,5,ITC_collect,215,k,0,0,369,226502,1721761
50,21,male,Dutch,3,144,ITC,loss,10,right,5,ITC_outcome,0,undefined,0,0,389,225500,1722763
50,21,male,Dutch,3,145,guess,win,5,left,4,guess_start,315,space,0,0,389,225184,1723079
50,21,male,Dutch,3,145,guess,win,5,left,4,guess_choice,408,j,0,0,389,224775,1723488
50,21,male,Dutch,3,145,guess,win,5,left,4,guess_outcome,0,undefined,0,0,409,223222,1725041
50,21,male,Dutch,3,145,ITC,win,5,left,4,ITC_start,284,space,0,0,409,222937,1725326
50,21,male,Dutch,3,145,ITC,win,5,left,4,ITC_choice,922,f,0,0,409,222014,1726249
50,21,male,Dutch,3,145,ITC,win,5,left,4,ITC_wait,0,undefined,0,0,409,217011,1731252
50,21,male,Dutch,3,145,ITC,win,5,left,4,ITC_collect,252,k,0,0,409,216758,1731505
50,21,male,Dutch,3,145,ITC,win,5,left,4,ITC_outcome,0,undefined,0,0,429,215756,1732507
50,21,male,Dutch,3,146,guess,loss,10,left,8,guess_start,246,space,0,0,429,215508,1732755
50,21,male,Dutch,3,146,guess,loss,10,left,8,guess_choice,410,j,0,0,429,215097,1733166
50,21,male,Dutch,3,146,guess,loss,10,left,8,guess_outcome,0,undefined,0,0,414,213544,1734719
50,21,male,Dutch,3,146,ITC,loss,10,left,8,ITC_start,270,space,0,0,414,213273,1734990
50,21,male,Dutch,3,146,ITC,loss,10,left,8,ITC_choice,1213,j,0,0,414,212059,1736204
50,21,male,Dutch,3,146,ITC,loss,10,left,8,ITC_wait,0,undefined,0,0,414,212056,1736207
50,21,male,Dutch,3,146,ITC,loss,10,left,8,ITC_collect,96,k,0,0,414,211959,1736304
50,21,male,Dutch,3,146,ITC,loss,10,left,8,ITC_outcome,0,undefined,0,0,422,210957,1737306
