subjectID,age,gender,nationality,block_number,trial_number,trial_type,guess_outcome,delay_time,delay_pos,immediate_amount,stage,respRT,respKey,blur_count,focus_count,total_points,remaining_duration,time_elapsed
38,18,female,Belg,1,1,guess,win,10,left,7,guess_start,4135,space,0,0,0,475862,267070
38,18,female,Belg,1,1,guess,win,10,left,7,guess_choice,1236,f,0,0,0,474618,268314
38,18,female,Belg,1,1,guess,win,10,left,7,guess_outcome,0,undefined,0,0,20,473056,269876
38,18,female,Belg,1,1,ITC,win,10,left,7,ITC_start,2750,space,0,0,20,470302,272630
38,18,female,Belg,1,1,ITC,win,10,left,7,ITC_choice,2199,f,0,0,20,468100,274832
38,18,female,Belg,1,1,ITC,win,10,left,7,ITC_wait,0,undefined,0,0,20,458091,284841
38,18,female,Belg,1,1,ITC,win,10,left,7,ITC_collect,855,k,0,0,20,457232,285700
38,18,female,Belg,1,1,ITC,win,10,left,7,ITC_outcome,0,undefined,0,0,40,456226,286706
38,18,female,Belg,1,2,guess,neutral,5,right,2,guess_start,1600,space,0,0,40,454620,288312
38,18,female,Belg,1,2,guess,neutral,5,right,2,guess_choice,1114,f,0,0,40,453500,289432
38,18,female,Belg,1,2,guess,neutral,5,right,2,guess_outcome,0,undefined,0,0,40,451940,290992
38,18,female,Belg,1,2,ITC,neutral,5,right,2,ITC_start,1306,space,0,0,40,450630,292302
38,18,female,Belg,1,2,ITC,neutral,5,right,2,ITC_choice,2476,j,0,0,40,448150,294782
38,18,female,Belg,1,2,ITC,neutral,5,right,2,ITC_wait,0,undefined,0,0,40,443142,299790
38,18,female,Belg,1,2,ITC,neutral,5,right,2,ITC_collect,1016,k,0,0,40,442123,300809
38,18,female,Belg,1,2,ITC,neutral,5,right,2,ITC_outcome,0,undefined,0,0,60,441118,301814
38,18,female,Belg,1,3,guess,loss,10,left,7,guess_start,2592,space,0,0,60,438522,304410
38,18,female,Belg,1,3,guess,loss,10,left,7,guess_choice,861,j,0,0,60,437655,305277
38,18,female,Belg,1,3,guess,loss,10,left,7,guess_outcome,0,undefined,0,0,45,436098,306834
38,18,female,Belg,1,3,ITC,loss,10,left,7,ITC_start,1987,space,0,0,45,434108,308824
38,18,female,Belg,1,3,ITC,loss,10,left,7,ITC_choice,1558,f,0,0,45,432547,310385
38,18,female,Belg,1,3,ITC,loss,10,left,7,ITC_wait,0,undefined,0,0,45,422541,320391
38,18,female,Belg,1,3,ITC,loss,10,left,7,ITC_collect,921,k,0,0,45,421617,321315
38,18,female,Belg,1,3,ITC,loss,10,left,7,ITC_outcome,0,undefined,0,0,65,420608,322324
38,18,female,Belg,1,4,guess,neutral,5,right,1,guess_start,1167,space,0,0,65,419438,323494
38,18,female,Belg,1,4,guess,neutral,5,right,1,guess_choice,912,f,0,0,65,418521,324411
38,18,female,Belg,1,4,guess,neutral,5,right,1,guess_outcome,0,undefined,0,0,65,416963,325969
38,18,female,Belg,1,4,ITC,neutral,5,right,1,ITC_start,6043,space,0,0,65,410917,332015
38,18,female,Belg,1,4,ITC,neutral,5,right,1,ITC_choice,1743,j,0,0,65,409171,333761
38,18,female,Belg,1,4,ITC,neutral,5,right,1,ITC_wait,0,undefined,0,0,65,404167,338765
38,18,female,Belg,1,4,ITC,neutral,5,right,1,ITC_collect,995,k,0,0,65,403169,339763
38,18,female,Belg,1,4,ITC,neutral,5,right,1,ITC_outcome,0,undefined,0,0,85,402159,340773
38,18,female,Belg,1,5,guess,neutral,5,left,14,guess_start,619,space,0,0,85,401536,341396
38,18,female,Belg,1,5,guess,neutral,5,left,14,guess_choice,850,f,0,0,85,400681,342251
38,18,female,Belg,1,5,guess,neutral,5,left,14,guess_outcome,0,undefined,0,0,85,399125,343807
38,18,female,Belg,1,5,ITC,neutral,5,left,14,ITC_start,947,space,0,0,85,398175,344757
38,18,female,Belg,1,5,ITC,neutral,5,left,14,ITC_choice,1697,f,0,0,85,396476,346456
38,18,female,Belg,1,5,ITC,neutral,5,left,14,ITC_wait,0,undefined,0,0,85,391470,351462
38,18,female,Belg,1,5,ITC,neutral,5,left,14,ITC_collect,528,k,0,0,85,390939,351993
38,18,female,Belg,1,5,ITC,neutral,5,left,14,ITC_outcome,0,undefined,0,0,105,389931,353001
38,18,female,Belg,1,6,guess,win,10,right,2,guess_start,983,space,0,0,105,388946,353986
38,18,female,Belg,1,6,guess,win,10,right,2,guess_choice,894,j,0,0,105,388048,354884
38,18,female,Belg,1,6,guess,win,10,right,2,guess_outcome,0,undefined,0,0,125,386492,356440
38,18,female,Belg,1,6,ITC,win,10,right,2,ITC_start,1080,space,0,0,125,385409,357523
38,18,female,Belg,1,6,ITC,win,10,right,2,ITC_choice,1326,j,0,0,125,384081,358851
38,18,female,Belg,1,6,ITC,win,10,right,2,ITC_wait,0,undefined,0,0,125,374073,368859
38,18,female,Belg,1,6,ITC,win,10,right,2,ITC_collect,676,k,0,0,125,373393,369539
38,18,female,Belg,1,6,ITC,win,10,right,2,ITC_outcome,0,undefined,0,0,145,372384,370548
38,18,female,Belg,1,7,guess,neutral,5,right,13,guess_start,588,space,0,0,145,371793,371139
38,18,female,Belg,1,7,guess,neutral,5,right,13,guess_choice,772,f,0,0,145,371017,371915
38,18,female,Belg,1,7,guess,neutral,5,right,13,guess_outcome,0,undefined,0,0,145,369458,373474
38,18,female,Belg,1,7,ITC,neutral,5,right,13,ITC_start,1217,space,0,0,145,368238,374694
38,18,female,Belg,1,7,ITC,neutral,5,right,13,ITC_choice,1159,j,0,0,145,367077,375855
38,18,female,Belg,1,7,ITC,neutral,5,right,13,ITC_wait,0,undefined,0,0,145,362069,380863
38,18,female,Belg,1,7,ITC,neutral,5,right,13,ITC_collect,1121,k,0,0,145,360945,381987
38,18,female,Belg,1,7,ITC,neutral,5,right,13,ITC_outcome,0,undefined,0,0,165,359940,382992
38,18,female,Belg,1,8,guess,neutral,10,left,8,guess_start,616,space,0,0,165,359321,383611
38,18,female,Belg,1,8,guess,neutral,10,left,8,guess_choice,613,f,0,0,165,358704,384228
38,18,female,Belg,1,8,guess,neutral,10,left,8,guess_outcome,0,undefined,0,0,165,357146,385786
38,18,female,Belg,1,8,ITC,neutral,10,left,8,ITC_start,953,space,0,0,165,356190,386742
38,18,female,Belg,1,8,ITC,neutral,10,left,8,ITC_choice,1577,f,0,0,165,354611,388321
38,18,female,Belg,1,8,ITC,neutral,10,left,8,ITC_wait,0,undefined,0,0,165,344607,398325
38,18,female,Belg,1,8,ITC,neutral,10,left,8,ITC_collect,732,k,0,0,165,343872,399060
38,18,female,Belg,1,8,ITC,neutral,10,left,8,ITC_outcome,0,undefined,0,0,185,342863,400069
38,18,female,Belg,1,9,guess,neutral,5,left,8,guess_start,580,space,0,0,185,342280,400652
38,18,female,Belg,1,9,guess,neutral,5,left,8,guess_choice,804,f,0,0,185,341471,401461
38,18,female,Belg,1,9,guess,neutral,5,left,8,guess_outcome,0,undefined,0,0,185,339913,403019
38,18,female,Belg,1,9,ITC,neutral,5,left,8,ITC_start,1570,space,0,0,185,338340,404592
38,18,female,Belg,1,9,ITC,neutral,5,left,8,ITC_choice,3000,f,0,0,185,335337,407595
38,18,female,Belg,1,9,ITC,neutral,5,left,8,ITC_wait,0,undefined,0,0,185,330329,412603
38,18,female,Belg,1,9,ITC,neutral,5,left,8,ITC_collect,735,k,0,0,185,329590,413342
38,18,female,Belg,1,9,ITC,neutral,5,left,8,ITC_outcome,0,undefined,0,0,205,328583,414349
38,18,female,Belg,1,10,guess,neutral,10,left,6,guess_start,683,space,0,0,205,327897,415035
38,18,female,Belg,1,10,guess,neutral,10,left,6,guess_choice,613,f,0,0,205,327280,415652
38,18,female,Belg,1,10,guess,neutral,10,left,6,guess_outcome,0,undefined,0,0,205,325725,417207
38,18,female,Belg,1,10,ITC,neutral,10,left,6,ITC_start,997,space,0,0,205,324725,418207
38,18,female,Belg,1,10,ITC,neutral,10,left,6,ITC_choice,1570,f,0,0,205,323152,419780
38,18,female,Belg,1,10,ITC,neutral,10,left,6,ITC_wait,0,undefined,0,0,205,313144,429788
38,18,female,Belg,1,10,ITC,neutral,10,left,6,ITC_collect,500,k,0,0,205,312640,430292
38,18,female,Belg,1,10,ITC,neutral,10,left,6,ITC_outcome,0,undefined,0,0,225,311632,431300
38,18,female,Belg,1,11,guess,neutral,5,right,7,guess_start,831,space,0,0,225,310798,432134
38,18,female,Belg,1,11,guess,neutral,5,right,7,guess_choice,763,j,0,0,225,310030,432902
38,18,female,Belg,1,11,guess,neutral,5,right,7,guess_outcome,0,undefined,0,0,225,308471,434461
38,18,female,Belg,1,11,ITC,neutral,5,right,7,ITC_start,2737,space,0,0,225,305731,437201
38,18,female,Belg,1,11,ITC,neutral,5,right,7,ITC_choice,1376,j,0,0,225,304352,438580
38,18,female,Belg,1,11,ITC,neutral,5,right,7,ITC_wait,0,undefined,0,0,225,299344,443588
38,18,female,Belg,1,11,ITC,neutral,5,right,7,ITC_collect,373,k,0,0,225,298967,443965
38,18,female,Belg,1,11,ITC,neutral,5,right,7,ITC_outcome,0,undefined,0,0,245,297963,444969
38,18,female,Belg,1,12,guess,win,5,right,8,guess_start,419,space,0,0,245,297540,445392
38,18,female,Belg,1,12,guess,win,5,right,8,guess_choice,902,f,0,0,245,296633,446299
38,18,female,Belg,1,12,guess,win,5,right,8,guess_outcome,0,undefined,0,0,265,295077,447855
38,18,female,Belg,1,12,ITC,win,5,right,8,ITC_start,1302,space,0,0,265,293773,449159
38,18,female,Belg,1,12,ITC,win,5,right,8,ITC_choice,1150,j,0,0,265,292621,450311
38,18,female,Belg,1,12,ITC,win,5,right,8,ITC_wait,0,undefined,0,0,265,287613,455319
38,18,female,Belg,1,12,ITC,win,5,right,8,ITC_collect,1006,k,0,0,265,286604,456328
38,18,female,Belg,1,12,ITC,win,5,right,8,ITC_outcome,0,undefined,0,0,285,285599,457333
38,18,female,Belg,1,13,guess,neutral,5,left,15,guess_start,460,space,0,0,285,285136,457796
38,18,female,Belg,1,13,guess,neutral,5,left,15,guess_choice,783,f,0,0,285,284349,458583
38,18,female,Belg,1,13,guess,neutral,5,left,15,guess_outcome,0,undefined,0,0,285,282793,460139
38,18,female,Belg,1,13,ITC,neutral,5,left,15,ITC_start,690,space,0,0,285,282100,460832
38,18,female,Belg,1,13,ITC,neutral,5,left,15,ITC_choice,2277,j,0,0,285,279821,463111
38,18,female,Belg,1,13,ITC,neutral,5,left,15,ITC_wait,0,undefined,0,0,285,279817,463115
38,18,female,Belg,1,13,ITC,neutral,5,left,15,ITC_collect,1138,k,0,0,285,278678,464254
38,18,female,Belg,1,13,ITC,neutral,5,left,15,ITC_outcome,0,undefined,0,0,300,277670,465262
38,18,female,Belg,1,14,guess,loss,5,right,16,guess_start,998,space,0,0,300,276668,466264
38,18,female,Belg,1,14,guess,loss,5,right,16,guess_choice,865,j,0,0,300,275799,467133
38,18,female,Belg,1,14,guess,loss,5,right,16,guess_outcome,0,undefined,0,0,285,274240,468692
38,18,female,Belg,1,14,ITC,loss,5,right,16,ITC_start,861,space,0,0,285,273375,469557
38,18,female,Belg,1,14,ITC,loss,5,right,16,ITC_choice,1246,j,0,0,285,272127,470805
38,18,female,Belg,1,14,ITC,loss,5,right,16,ITC_wait,0,undefined,0,0,285,267123,475809
38,18,female,Belg,1,14,ITC,loss,5,right,16,ITC_collect,348,k,0,0,285,266772,476160
38,18,female,Belg,1,14,ITC,loss,5,right,16,ITC_outcome,0,undefined,0,0,305,265767,477165
38,18,female,Belg,1,15,guess,win,5,right,15,guess_start,625,space,0,0,305,265139,477793
38,18,female,Belg,1,15,guess,win,5,right,15,guess_choice,792,j,0,0,305,264342,478590
38,18,female,Belg,1,15,guess,win,5,right,15,guess_outcome,0,undefined,0,0,325,262785,480147
38,18,female,Belg,1,15,ITC,win,5,right,15,ITC_start,850,space,0,0,325,261931,481001
38,18,female,Belg,1,15,ITC,win,5,right,15,ITC_choice,1606,f,0,0,325,260322,482610
38,18,female,Belg,1,15,ITC,win,5,right,15,ITC_wait,0,undefined,0,0,325,260317,482615
38,18,female,Belg,1,15,ITC,win,5,right,15,ITC_collect,966,k,0,0,325,259350,483582
38,18,female,Belg,1,15,ITC,win,5,right,15,ITC_outcome,0,undefined,0,0,340,258345,484587
38,18,female,Belg,1,16,guess,win,10,right,4,guess_start,790,space,0,0,340,257551,485381
38,18,female,Belg,1,16,guess,win,10,right,4,guess_choice,934,f,0,0,340,256613,486319
38,18,female,Belg,1,16,guess,win,10,right,4,guess_outcome,0,undefined,0,0,360,255056,487876
38,18,female,Belg,1,16,ITC,win,10,right,4,ITC_start,526,space,0,0,360,254526,488406
38,18,female,Belg,1,16,ITC,win,10,right,4,ITC_choice,1819,j,0,0,360,252704,490228
38,18,female,Belg,1,16,ITC,win,10,right,4,ITC_wait,0,undefined,0,0,360,242696,500236
38,18,female,Belg,1,16,ITC,win,10,right,4,ITC_collect,447,k,0,0,360,242246,500686
38,18,female,Belg,1,16,ITC,win,10,right,4,ITC_outcome,0,undefined,0,0,380,241237,501695
38,18,female,Belg,1,17,guess,win,5,left,10,guess_start,897,space,0,0,380,240337,502595
38,18,female,Belg,1,17,guess,win,5,left,10,guess_choice,1725,f,0,0,380,238608,504324
38,18,female,Belg,1,17,guess,win,5,left,10,guess_outcome,0,undefined,0,0,400,237047,505885
38,18,female,Belg,1,17,ITC,win,5,left,10,ITC_start,661,space,0,0,400,236383,506549
38,18,female,Belg,1,17,ITC,win,5,left,10,ITC_choice,1428,f,0,0,400,234952,507980
38,18,female,Belg,1,17,ITC,win,5,left,10,ITC_wait,0,undefined,0,0,400,229949,512983
38,18,female,Belg,1,17,ITC,win,5,left,10,ITC_collect,906,k,0,0,400,229040,513892
38,18,female,Belg,1,17,ITC,win,5,left,10,ITC_outcome,0,undefined,0,0,420,228032,514900
38,18,female,Belg,1,18,guess,neutral,10,right,4,guess_start,482,space,0,0,420,227545,515387
38,18,female,Belg,1,18,guess,neutral,10,right,4,guess_choice,780,j,0,0,420,226761,516171
38,18,female,Belg,1,18,guess,neutral,10,right,4,guess_outcome,0,undefined,0,0,420,225203,517729
38,18,female,Belg,1,18,ITC,neutral,10,right,4,ITC_start,398,space,0,0,420,224802,518130
38,18,female,Belg,1,18,ITC,neutral,10,right,4,ITC_choice,1085,j,0,0,420,223715,519217
38,18,female,Belg,1,18,ITC,neutral,10,right,4,ITC_wait,0,undefined,0,0,420,213707,529225
38,18,female,Belg,1,18,ITC,neutral,10,right,4,ITC_collect,342,k,0,0,420,213362,529570
38,18,female,Belg,1,18,ITC,neutral,10,right,4,ITC_outcome,0,undefined,0,0,440,212356,530576
38,18,female,Belg,1,19,guess,loss,5,right,15,guess_start,514,space,0,0,440,211839,531093
38,18,female,Belg,1,19,guess,loss,5,right,15,guess_choice,939,j,0,0,440,210895,532037
38,18,female,Belg,1,19,guess,loss,5,right,15,guess_outcome,0,undefined,0,0,425,209335,533597
38,18,female,Belg,1,19,ITC,loss,5,right,15,ITC_start,437,space,0,0,425,208895,534037
38,18,female,Belg,1,19,ITC,loss,5,right,15,ITC_choice,1359,j,0,0,425,207534,535398
38,18,female,Belg,1,19,ITC,loss,5,right,15,ITC_wait,0,undefined,0,0,425,202526,540406
38,18,female,Belg,1,19,ITC,loss,5,right,15,ITC_collect,770,k,0,0,425,201752,541180
38,18,female,Belg,1,19,ITC,loss,5,right,15,ITC_outcome,0,undefined,0,0,445,200744,542188
38,18,female,Belg,1,20,guess,neutral,10,left,7,guess_start,691,space,0,0,445,200050,542882
38,18,female,Belg,1,20,guess,neutral,10,left,7,guess_choice,732,j,0,0,445,199313,543619
38,18,female,Belg,1,20,guess,neutral,10,left,7,guess_outcome,0,undefined,0,0,445,197759,545173
38,18,female,Belg,1,20,ITC,neutral,10,left,7,ITC_start,537,space,0,0,445,197219,545713
38,18,female,Belg,1,20,ITC,neutral,10,left,7,ITC_choice,1585,f,0,0,445,195631,547301
38,18,female,Belg,1,20,ITC,neutral,10,left,7,ITC_wait,0,undefined,0,0,445,185623,557309
38,18,female,Belg,1,20,ITC,neutral,10,left,7,ITC_collect,847,k,0,0,445,184773,558159
38,18,female,Belg,1,20,ITC,neutral,10,left,7,ITC_outcome,0,undefined,0,0,465,183764,559168
38,18,female,Belg,1,21,guess,loss,10,left,2,guess_start,504,space,0,0,465,183257,559675
38,18,female,Belg,1,21,guess,loss,10,left,2,guess_choice,743,j,0,0,465,182510,560422
38,18,female,Belg,1,21,guess,loss,10,left,2,guess_outcome,0,undefined,0,0,450,180950,561982
38,18,female,Belg,1,21,ITC,loss,10,left,2,ITC_start,755,space,0,0,450,180192,562740
38,18,female,Belg,1,21,ITC,loss,10,left,2,ITC_choice,1216,f,0,0,450,178974,563958
38,18,female,Belg,1,21,ITC,loss,10,left,2,ITC_wait,0,undefined,0,0,450,168967,573965
38,18,female,Belg,1,21,ITC,loss,10,left,2,ITC_collect,405,k,0,0,450,168558,574374
38,18,female,Belg,1,21,ITC,loss,10,left,2,ITC_outcome,0,undefined,0,0,470,167550,575382
38,18,female,Belg,1,22,guess,win,5,left,4,guess_start,813,space,0,0,470,166734,576198
38,18,female,Belg,1,22,guess,win,5,left,4,guess_choice,1067,j,0,0,470,165662,577270
38,18,female,Belg,1,22,guess,win,5,left,4,guess_outcome,0,undefined,0,0,490,164103,578829
38,18,female,Belg,1,22,ITC,win,5,left,4,ITC_start,437,space,0,0,490,163663,579269
38,18,female,Belg,1,22,ITC,win,5,left,4,ITC_choice,1189,f,0,0,490,162472,580460
38,18,female,Belg,1,22,ITC,win,5,left,4,ITC_wait,0,undefined,0,0,490,157465,585467
38,18,female,Belg,1,22,ITC,win,5,left,4,ITC_collect,1344,k,0,0,490,156118,586814
38,18,female,Belg,1,22,ITC,win,5,left,4,ITC_outcome,0,undefined,0,0,510,155114,587818
38,18,female,Belg,1,23,guess,win,5,right,14,guess_start,527,space,0,0,510,154584,588348
38,18,female,Belg,1,23,guess,win,5,right,14,guess_choice,864,f,0,0,510,153716,589216
38,18,female,Belg,1,23,guess,win,5,right,14,guess_outcome,0,undefined,0,0,530,152156,590776
38,18,female,Belg,1,23,ITC,win,5,right,14,ITC_start,1012,space,0,0,530,151141,591791
38,18,female,Belg,1,23,ITC,win,5,right,14,ITC_choice,1676,f,0,0,530,149462,593470
38,18,female,Belg,1,23,ITC,win,5,right,14,ITC_wait,0,undefined,0,0,530,149458,593474
38,18,female,Belg,1,23,ITC,win,5,right,14,ITC_collect,945,k,0,0,530,148512,594420
38,18,female,Belg,1,23,ITC,win,5,right,14,ITC_outcome,0,undefined,0,0,544,147503,595429
38,18,female,Belg,1,24,guess,neutral,10,left,2,guess_start,642,space,0,0,544,146859,596073
38,18,female,Belg,1,24,guess,neutral,10,left,2,guess_choice,790,f,0,0,544,146065,596867
38,18,female,Belg,1,24,guess,neutral,10,left,2,guess_outcome,0,undefined,0,0,544,144506,598426
38,18,female,Belg,1,24,ITC,neutral,10,left,2,ITC_start,382,space,0,0,544,144121,598811
38,18,female,Belg,1,24,ITC,neutral,10,left,2,ITC_choice,1172,f,0,0,544,142945,599987
38,18,female,Belg,1,24,ITC,neutral,10,left,2,ITC_wait,0,undefined,0,0,544,132939,609993
38,18,female,Belg,1,24,ITC,neutral,10,left,2,ITC_collect,370,k,0,0,544,132566,610366
38,18,female,Belg,1,24,ITC,neutral,10,left,2,ITC_outcome,0,undefined,0,0,564,131559,611373
38,18,female,Belg,1,25,guess,loss,5,left,8,guess_start,687,space,0,0,564,130869,612063
38,18,female,Belg,1,25,guess,loss,5,left,8,guess_choice,1490,f,0,0,564,129375,613557
38,18,female,Belg,1,25,guess,loss,5,left,8,guess_outcome,0,undefined,0,0,549,127821,615111
38,18,female,Belg,1,25,ITC,loss,5,left,8,ITC_start,100,space,0,0,549,127718,615214
38,18,female,Belg,1,25,ITC,loss,5,left,8,ITC_choice,1677,f,0,0,549,126038,616894
38,18,female,Belg,1,25,ITC,loss,5,left,8,ITC_wait,0,undefined,0,0,549,121030,621902
38,18,female,Belg,1,25,ITC,loss,5,left,8,ITC_collect,514,k,0,0,549,120512,622420
38,18,female,Belg,1,25,ITC,loss,5,left,8,ITC_outcome,0,undefined,0,0,569,119504,623428
38,18,female,Belg,1,26,guess,loss,10,right,8,guess_start,592,space,0,0,569,118908,624024
38,18,female,Belg,1,26,guess,loss,10,right,8,guess_choice,658,j,0,0,569,118246,624686
38,18,female,Belg,1,26,guess,loss,10,right,8,guess_outcome,0,undefined,0,0,554,116687,626245
38,18,female,Belg,1,26,ITC,loss,10,right,8,ITC_start,532,space,0,0,554,116151,626781
38,18,female,Belg,1,26,ITC,loss,10,right,8,ITC_choice,854,j,0,0,554,115294,627638
38,18,female,Belg,1,26,ITC,loss,10,right,8,ITC_wait,0,undefined,0,0,554,105290,637642
38,18,female,Belg,1,26,ITC,loss,10,right,8,ITC_collect,370,k,0,0,554,104917,638015
38,18,female,Belg,1,26,ITC,loss,10,right,8,ITC_outcome,0,undefined,0,0,574,103909,639023
38,18,female,Belg,1,27,guess,win,5,left,5,guess_start,649,space,0,0,574,103256,639676
38,18,female,Belg,1,27,guess,win,5,left,5,guess_choice,888,j,0,0,574,102363,640569
38,18,female,Belg,1,27,guess,win,5,left,5,guess_outcome,0,undefined,0,0,594,100806,642126
38,18,female,Belg,1,27,ITC,win,5,left,5,ITC_start,851,space,0,0,594,99952,642980
38,18,female,Belg,1,27,ITC,win,5,left,5,ITC_choice,1333,f,0,0,594,98616,644316
38,18,female,Belg,1,27,ITC,win,5,left,5,ITC_wait,0,undefined,0,0,594,93608,649324
38,18,female,Belg,1,27,ITC,win,5,left,5,ITC_collect,798,k,0,0,594,92807,650125
38,18,female,Belg,1,27,ITC,win,5,left,5,ITC_outcome,0,undefined,0,0,614,91801,651131
38,18,female,Belg,1,28,guess,win,10,right,6,guess_start,862,space,0,0,614,90936,651996
38,18,female,Belg,1,28,guess,win,10,right,6,guess_choice,759,j,0,0,614,90172,652760
38,18,female,Belg,1,28,guess,win,10,right,6,guess_outcome,0,undefined,0,0,634,88612,654320
38,18,female,Belg,1,28,ITC,win,10,right,6,ITC_start,810,space,0,0,634,87800,655132
38,18,female,Belg,1,28,ITC,win,10,right,6,ITC_choice,1237,j,0,0,634,86560,656372
38,18,female,Belg,1,28,ITC,win,10,right,6,ITC_wait,0,undefined,0,0,634,76552,666380
38,18,female,Belg,1,28,ITC,win,10,right,6,ITC_collect,366,k,0,0,634,76181,666751
38,18,female,Belg,1,28,ITC,win,10,right,6,ITC_outcome,0,undefined,0,0,654,75172,667760
38,18,female,Belg,1,29,guess,loss,10,right,5,guess_start,441,space,0,0,654,74728,668204
38,18,female,Belg,1,29,guess,loss,10,right,5,guess_choice,677,f,0,0,654,74047,668885
38,18,female,Belg,1,29,guess,loss,10,right,5,guess_outcome,0,undefined,0,0,639,72489,670443
38,18,female,Belg,1,29,ITC,loss,10,right,5,ITC_start,911,space,0,0,639,71575,671357
38,18,female,Belg,1,29,ITC,loss,10,right,5,ITC_choice,1254,f,0,0,639,70318,672614
38,18,female,Belg,1,29,ITC,loss,10,right,5,ITC_wait,0,undefined,0,0,639,70314,672618
38,18,female,Belg,1,29,ITC,loss,10,right,5,ITC_collect,1324,k,0,0,639,68989,673943
38,18,female,Belg,1,29,ITC,loss,10,right,5,ITC_outcome,0,undefined,0,0,644,67983,674949
38,18,female,Belg,1,30,guess,loss,5,right,9,guess_start,830,space,0,0,644,67150,675782
38,18,female,Belg,1,30,guess,loss,5,right,9,guess_choice,916,j,0,0,644,66229,676703
38,18,female,Belg,1,30,guess,loss,5,right,9,guess_outcome,0,undefined,0,0,629,64675,678257
38,18,female,Belg,1,30,ITC,loss,5,right,9,ITC_start,21,space,0,0,629,64651,678281
38,18,female,Belg,1,30,ITC,loss,5,right,9,ITC_choice,782,f,0,0,629,63867,679065
38,18,female,Belg,1,30,ITC,loss,5,right,9,ITC_wait,0,undefined,0,0,629,63863,679069
38,18,female,Belg,1,30,ITC,loss,5,right,9,ITC_collect,931,k,0,0,629,62931,680001
38,18,female,Belg,1,30,ITC,loss,5,right,9,ITC_outcome,0,undefined,0,0,638,61925,681007
38,18,female,Belg,1,31,guess,loss,10,left,3,guess_start,524,space,0,0,638,61397,681535
38,18,female,Belg,1,31,guess,loss,10,left,3,guess_choice,548,j,0,0,638,60844,682088
38,18,female,Belg,1,31,guess,loss,10,left,3,guess_outcome,0,undefined,0,0,623,59285,683647
38,18,female,Belg,1,31,ITC,loss,10,left,3,ITC_start,556,space,0,0,623,58726,684206
38,18,female,Belg,1,31,ITC,loss,10,left,3,ITC_choice,972,f,0,0,623,57752,685180
38,18,female,Belg,1,31,ITC,loss,10,left,3,ITC_wait,0,undefined,0,0,623,47744,695188
38,18,female,Belg,1,31,ITC,loss,10,left,3,ITC_collect,345,k,0,0,623,47396,695536
38,18,female,Belg,1,31,ITC,loss,10,left,3,ITC_outcome,0,undefined,0,0,643,46386,696546
38,18,female,Belg,1,32,guess,neutral,5,left,16,guess_start,525,space,0,0,643,45857,697075
38,18,female,Belg,1,32,guess,neutral,5,left,16,guess_choice,662,j,0,0,643,45191,697741
38,18,female,Belg,1,32,guess,neutral,5,left,16,guess_outcome,0,undefined,0,0,643,43633,699299
38,18,female,Belg,1,32,ITC,neutral,5,left,16,ITC_start,640,space,0,0,643,42991,699941
38,18,female,Belg,1,32,ITC,neutral,5,left,16,ITC_choice,1291,f,0,0,643,41697,701235
38,18,female,Belg,1,32,ITC,neutral,5,left,16,ITC_wait,0,undefined,0,0,643,36689,706243
38,18,female,Belg,1,32,ITC,neutral,5,left,16,ITC_collect,809,k,0,0,643,35876,707056
38,18,female,Belg,1,32,ITC,neutral,5,left,16,ITC_outcome,0,undefined,0,0,663,34872,708060
38,18,female,Belg,1,33,guess,win,5,right,13,guess_start,541,space,0,0,663,34328,708604
38,18,female,Belg,1,33,guess,win,5,right,13,guess_choice,816,f,0,0,663,33507,709425
38,18,female,Belg,1,33,guess,win,5,right,13,guess_outcome,0,undefined,0,0,683,31952,710980
38,18,female,Belg,1,33,ITC,win,5,right,13,ITC_start,788,space,0,0,683,31161,711771
38,18,female,Belg,1,33,ITC,win,5,right,13,ITC_choice,1300,f,0,0,683,29858,713074
38,18,female,Belg,1,33,ITC,win,5,right,13,ITC_wait,0,undefined,0,0,683,29853,713079
38,18,female,Belg,1,33,ITC,win,5,right,13,ITC_collect,1171,k,0,0,683,28681,714251
38,18,female,Belg,1,33,ITC,win,5,right,13,ITC_outcome,0,undefined,0,0,696,27672,715260
38,18,female,Belg,1,34,guess,loss,10,left,4,guess_start,624,space,0,0,696,27046,715886
38,18,female,Belg,1,34,guess,loss,10,left,4,guess_choice,641,j,0,0,696,26400,716532
38,18,female,Belg,1,34,guess,loss,10,left,4,guess_outcome,0,undefined,0,0,681,24843,718089
38,18,female,Belg,1,34,ITC,loss,10,left,4,ITC_start,680,space,0,0,681,24160,718772
38,18,female,Belg,1,34,ITC,loss,10,left,4,ITC_choice,1044,j,0,0,681,23113,719819
38,18,female,Belg,1,34,ITC,loss,10,left,4,ITC_wait,0,undefined,0,0,681,23109,719823
38,18,female,Belg,1,34,ITC,loss,10,left,4,ITC_collect,1549,k,0,0,681,21558,721374
38,18,female,Belg,1,34,ITC,loss,10,left,4,ITC_outcome,0,undefined,0,0,685,20551,722381
38,18,female,Belg,1,35,guess,loss,5,right,10,guess_start,579,space,0,0,685,19969,722963
38,18,female,Belg,1,35,guess,loss,5,right,10,guess_choice,455,f,0,0,685,19509,723423
38,18,female,Belg,1,35,guess,loss,5,right,10,guess_outcome,0,undefined,0,0,670,17949,724983
38,18,female,Belg,1,35,ITC,loss,5,right,10,ITC_start,644,space,0,0,670,17303,725629
38,18,female,Belg,1,35,ITC,loss,5,right,10,ITC_choice,1770,f,0,0,670,15531,727401
38,18,female,Belg,1,35,ITC,loss,5,right,10,ITC_wait,0,undefined,0,0,670,15527,727405
38,18,female,Belg,1,35,ITC,loss,5,right,10,ITC_collect,918,k,0,0,670,14608,728324
38,18,female,Belg,1,35,ITC,loss,5,right,10,ITC_outcome,0,undefined,0,0,680,13601,729331
38,18,female,Belg,1,36,guess,loss,5,left,12,guess_start,716,space,0,0,680,12881,730051
38,18,female,Belg,1,36,guess,loss,5,left,12,guess_choice,408,j,0,0,680,12470,730462
38,18,female,Belg,1,36,guess,loss,5,left,12,guess_outcome,0,undefined,0,0,665,10911,732021
38,18,female,Belg,1,36,ITC,loss,5,left,12,ITC_start,554,space,0,0,665,10354,732578
38,18,female,Belg,1,36,ITC,loss,5,left,12,ITC_choice,844,j,0,0,665,9507,733425
38,18,female,Belg,1,36,ITC,loss,5,left,12,ITC_wait,0,undefined,0,0,665,9504,733428
38,18,female,Belg,1,36,ITC,loss,5,left,12,ITC_collect,923,k,0,0,665,8580,734352
38,18,female,Belg,1,36,ITC,loss,5,left,12,ITC_outcome,0,undefined,0,0,677,7574,735358
38,18,female,Belg,1,37,guess,loss,5,left,2,guess_start,850,space,0,0,677,6720,736212
38,18,female,Belg,1,37,guess,loss,5,left,2,guess_choice,760,j,0,0,677,5954,736978
38,18,female,Belg,1,37,guess,loss,5,left,2,guess_outcome,0,undefined,0,0,662,4397,738535
38,18,female,Belg,1,37,ITC,loss,5,left,2,ITC_start,571,space,0,0,662,3824,739108
38,18,female,Belg,1,37,ITC,loss,5,left,2,ITC_choice,1083,f,0,0,662,2738,740194
38,18,female,Belg,1,37,ITC,loss,5,left,2,ITC_wait,0,undefined,0,0,662,-6,742938
38,18,female,Belg,2,38,guess,neutral,5,left,9,guess_start,2138,space,0,0,0,477860,787822
38,18,female,Belg,2,38,guess,neutral,5,left,9,guess_choice,1015,f,0,0,0,476840,788842
38,18,female,Belg,2,38,guess,neutral,5,left,9,guess_outcome,0,undefined,0,0,0,475281,790401
38,18,female,Belg,2,38,ITC,neutral,5,left,9,ITC_start,967,space,0,0,0,474312,791370
38,18,female,Belg,2,38,ITC,neutral,5,left,9,ITC_choice,1453,f,0,0,0,472856,792826
38,18,female,Belg,2,38,ITC,neutral,5,left,9,ITC_wait,0,undefined,0,0,0,467848,797834
38,18,female,Belg,2,38,ITC,neutral,5,left,9,ITC_collect,354,k,0,0,0,467492,798190
38,18,female,Belg,2,38,ITC,neutral,5,left,9,ITC_outcome,0,undefined,0,0,20,466484,799198
38,18,female,Belg,2,39,guess,win,5,right,12,guess_start,305,space,0,0,20,466176,799506
38,18,female,Belg,2,39,guess,win,5,right,12,guess_choice,695,f,0,0,20,465477,800205
38,18,female,Belg,2,39,guess,win,5,right,12,guess_outcome,0,undefined,0,0,40,463921,801761
38,18,female,Belg,2,39,ITC,win,5,right,12,ITC_start,795,space,0,0,40,463124,802558
38,18,female,Belg,2,39,ITC,win,5,right,12,ITC_choice,881,f,0,0,40,462240,803442
38,18,female,Belg,2,39,ITC,win,5,right,12,ITC_wait,0,undefined,0,0,40,462236,803446
38,18,female,Belg,2,39,ITC,win,5,right,12,ITC_collect,533,k,0,0,40,461702,803980
38,18,female,Belg,2,39,ITC,win,5,right,12,ITC_outcome,0,undefined,0,0,52,460694,804988
38,18,female,Belg,2,40,guess,loss,5,left,1,guess_start,558,space,0,0,52,460133,805549
38,18,female,Belg,2,40,guess,loss,5,left,1,guess_choice,605,f,0,0,52,459523,806159
38,18,female,Belg,2,40,guess,loss,5,left,1,guess_outcome,0,undefined,0,0,37,457963,807719
38,18,female,Belg,2,40,ITC,loss,5,left,1,ITC_start,757,space,0,0,37,457204,808478
38,18,female,Belg,2,40,ITC,loss,5,left,1,ITC_choice,1002,f,0,0,37,456199,809483
38,18,female,Belg,2,40,ITC,loss,5,left,1,ITC_wait,0,undefined,0,0,37,451194,814488
38,18,female,Belg,2,40,ITC,loss,5,left,1,ITC_collect,277,k,0,0,37,450914,814768
38,18,female,Belg,2,40,ITC,loss,5,left,1,ITC_outcome,0,undefined,0,0,57,449905,815777
38,18,female,Belg,2,41,guess,loss,5,right,4,guess_start,152,space,0,0,57,449750,815932
38,18,female,Belg,2,41,guess,loss,5,right,4,guess_choice,761,j,0,0,57,448985,816697
38,18,female,Belg,2,41,guess,loss,5,right,4,guess_outcome,0,undefined,0,0,42,447426,818256
38,18,female,Belg,2,41,ITC,loss,5,right,4,ITC_start,639,space,0,0,42,446784,818898
38,18,female,Belg,2,41,ITC,loss,5,right,4,ITC_choice,1003,j,0,0,42,445778,819904
38,18,female,Belg,2,41,ITC,loss,5,right,4,ITC_wait,0,undefined,0,0,42,440770,824912
38,18,female,Belg,2,41,ITC,loss,5,right,4,ITC_collect,295,k,0,0,42,440472,825210
38,18,female,Belg,2,41,ITC,loss,5,right,4,ITC_outcome,0,undefined,0,0,62,439464,826218
38,18,female,Belg,2,42,guess,win,5,left,3,guess_start,488,space,0,0,62,438973,826709
38,18,female,Belg,2,42,guess,win,5,left,3,guess_choice,639,f,0,0,62,438329,827353
38,18,female,Belg,2,42,guess,win,5,left,3,guess_outcome,0,undefined,0,0,82,436769,828913
38,18,female,Belg,2,42,ITC,win,5,left,3,ITC_start,493,space,0,0,82,436273,829409
38,18,female,Belg,2,42,ITC,win,5,left,3,ITC_choice,877,f,0,0,82,435393,830289
38,18,female,Belg,2,42,ITC,win,5,left,3,ITC_wait,0,undefined,0,0,82,430389,835293
38,18,female,Belg,2,42,ITC,win,5,left,3,ITC_collect,325,k,0,0,82,430061,835621
38,18,female,Belg,2,42,ITC,win,5,left,3,ITC_outcome,0,undefined,0,0,102,429053,836629
38,18,female,Belg,2,43,guess,loss,5,right,13,guess_start,470,space,0,0,102,428579,837103
38,18,female,Belg,2,43,guess,loss,5,right,13,guess_choice,532,j,0,0,102,428042,837640
38,18,female,Belg,2,43,guess,loss,5,right,13,guess_outcome,0,undefined,0,0,87,426482,839200
38,18,female,Belg,2,43,ITC,loss,5,right,13,ITC_start,510,space,0,0,87,425969,839713
38,18,female,Belg,2,43,ITC,loss,5,right,13,ITC_choice,849,j,0,0,87,425118,840564
38,18,female,Belg,2,43,ITC,loss,5,right,13,ITC_wait,0,undefined,0,0,87,420110,845572
38,18,female,Belg,2,43,ITC,loss,5,right,13,ITC_collect,954,k,0,0,87,419153,846529
38,18,female,Belg,2,43,ITC,loss,5,right,13,ITC_outcome,0,undefined,0,0,107,418146,847536
38,18,female,Belg,2,44,guess,neutral,5,right,11,guess_start,523,space,0,0,107,417619,848063
38,18,female,Belg,2,44,guess,neutral,5,right,11,guess_choice,602,f,0,0,107,417012,848670
38,18,female,Belg,2,44,guess,neutral,5,right,11,guess_outcome,0,undefined,0,0,107,415452,850230
38,18,female,Belg,2,44,ITC,neutral,5,right,11,ITC_start,721,space,0,0,107,414729,850953
38,18,female,Belg,2,44,ITC,neutral,5,right,11,ITC_choice,906,f,0,0,107,413819,851863
38,18,female,Belg,2,44,ITC,neutral,5,right,11,ITC_wait,0,undefined,0,0,107,413816,851866
38,18,female,Belg,2,44,ITC,neutral,5,right,11,ITC_collect,516,k,0,0,107,413298,852384
38,18,female,Belg,2,44,ITC,neutral,5,right,11,ITC_outcome,0,undefined,0,0,118,412292,853390
38,18,female,Belg,2,45,guess,win,10,right,3,guess_start,466,space,0,0,118,411823,853859
38,18,female,Belg,2,45,guess,win,10,right,3,guess_choice,595,j,0,0,118,411224,854458
38,18,female,Belg,2,45,guess,win,10,right,3,guess_outcome,0,undefined,0,0,138,409668,856014
38,18,female,Belg,2,45,ITC,win,10,right,3,ITC_start,324,space,0,0,138,409341,856341
38,18,female,Belg,2,45,ITC,win,10,right,3,ITC_choice,1320,j,0,0,138,408018,857664
38,18,female,Belg,2,45,ITC,win,10,right,3,ITC_wait,0,undefined,0,0,138,398009,867673
38,18,female,Belg,2,45,ITC,win,10,right,3,ITC_collect,378,k,0,0,138,397628,868054
38,18,female,Belg,2,45,ITC,win,10,right,3,ITC_outcome,0,undefined,0,0,158,396620,869062
38,18,female,Belg,2,46,guess,win,10,right,8,guess_start,319,space,0,0,158,396298,869384
38,18,female,Belg,2,46,guess,win,10,right,8,guess_choice,503,f,0,0,158,395790,869892
38,18,female,Belg,2,46,guess,win,10,right,8,guess_outcome,0,undefined,0,0,178,394230,871452
38,18,female,Belg,2,46,ITC,win,10,right,8,ITC_start,704,space,0,0,178,393523,872159
38,18,female,Belg,2,46,ITC,win,10,right,8,ITC_choice,1430,j,0,0,178,392090,873592
38,18,female,Belg,2,46,ITC,win,10,right,8,ITC_wait,0,undefined,0,0,178,382087,883595
38,18,female,Belg,2,46,ITC,win,10,right,8,ITC_collect,354,k,0,0,178,381730,883952
38,18,female,Belg,2,46,ITC,win,10,right,8,ITC_outcome,0,undefined,0,0,198,380721,884961
38,18,female,Belg,2,47,guess,neutral,5,left,5,guess_start,340,space,0,0,198,380378,885304
38,18,female,Belg,2,47,guess,neutral,5,left,5,guess_choice,556,f,0,0,198,379817,885865
38,18,female,Belg,2,47,guess,neutral,5,left,5,guess_outcome,0,undefined,0,0,198,378259,887423
38,18,female,Belg,2,47,ITC,neutral,5,left,5,ITC_start,422,space,0,0,198,377834,887848
38,18,female,Belg,2,47,ITC,neutral,5,left,5,ITC_choice,1351,j,0,0,198,376480,889202
38,18,female,Belg,2,47,ITC,neutral,5,left,5,ITC_wait,0,undefined,0,0,198,376476,889206
38,18,female,Belg,2,47,ITC,neutral,5,left,5,ITC_collect,492,k,0,0,198,375983,889699
38,18,female,Belg,2,47,ITC,neutral,5,left,5,ITC_outcome,0,undefined,0,0,203,374974,890708
38,18,female,Belg,2,48,guess,neutral,10,right,1,guess_start,458,space,0,0,203,374513,891169
38,18,female,Belg,2,48,guess,neutral,10,right,1,guess_choice,490,f,0,0,203,374018,891664
38,18,female,Belg,2,48,guess,neutral,10,right,1,guess_outcome,0,undefined,0,0,203,372458,893224
38,18,female,Belg,2,48,ITC,neutral,10,right,1,ITC_start,309,space,0,0,203,372146,893536
38,18,female,Belg,2,48,ITC,neutral,10,right,1,ITC_choice,1187,j,0,0,203,370957,894725
38,18,female,Belg,2,48,ITC,neutral,10,right,1,ITC_wait,0,undefined,0,0,203,360952,904730
38,18,female,Belg,2,48,ITC,neutral,10,right,1,ITC_collect,647,k,0,0,203,360302,905380
38,18,female,Belg,2,48,ITC,neutral,10,right,1,ITC_outcome,0,undefined,0,0,223,359298,906384
38,18,female,Belg,2,49,guess,neutral,5,left,12,guess_start,352,space,0,0,223,358942,906740
38,18,female,Belg,2,49,guess,neutral,5,left,12,guess_choice,577,j,0,0,223,358361,907321
38,18,female,Belg,2,49,guess,neutral,5,left,12,guess_outcome,0,undefined,0,0,223,356806,908876
38,18,female,Belg,2,49,ITC,neutral,5,left,12,ITC_start,638,space,0,0,223,356165,909517
38,18,female,Belg,2,49,ITC,neutral,5,left,12,ITC_choice,1726,j,0,0,223,354437,911245
38,18,female,Belg,2,49,ITC,neutral,5,left,12,ITC_wait,0,undefined,0,0,223,354433,911249
38,18,female,Belg,2,49,ITC,neutral,5,left,12,ITC_collect,476,k,0,0,223,353956,911726
38,18,female,Belg,2,49,ITC,neutral,5,left,12,ITC_outcome,0,undefined,0,0,235,352948,912734
38,18,female,Belg,2,50,guess,neutral,5,left,4,guess_start,404,space,0,0,235,352541,913141
38,18,female,Belg,2,50,guess,neutral,5,left,4,guess_choice,683,j,0,0,235,351853,913829
38,18,female,Belg,2,50,guess,neutral,5,left,4,guess_outcome,0,undefined,0,0,235,350299,915383
38,18,female,Belg,2,50,ITC,neutral,5,left,4,ITC_start,342,space,0,0,235,349954,915728
38,18,female,Belg,2,50,ITC,neutral,5,left,4,ITC_choice,1386,f,0,0,235,348565,917117
38,18,female,Belg,2,50,ITC,neutral,5,left,4,ITC_wait,0,undefined,0,0,235,343560,922122
38,18,female,Belg,2,50,ITC,neutral,5,left,4,ITC_collect,304,k,0,0,235,343253,922429
38,18,female,Belg,2,50,ITC,neutral,5,left,4,ITC_outcome,0,undefined,0,0,255,342248,923434
38,18,female,Belg,2,51,guess,neutral,5,left,10,guess_start,29,space,0,0,255,342216,923466
38,18,female,Belg,2,51,guess,neutral,5,left,10,guess_choice,649,j,0,0,255,341563,924119
38,18,female,Belg,2,51,guess,neutral,5,left,10,guess_outcome,0,undefined,0,0,255,340003,925679
38,18,female,Belg,2,51,ITC,neutral,5,left,10,ITC_start,290,space,0,0,255,339710,925972
38,18,female,Belg,2,51,ITC,neutral,5,left,10,ITC_wait,0,undefined,0,0,255,338916,926766
38,18,female,Belg,2,51,ITC,neutral,5,left,10,ITC_choice,787,j,0,0,255,338920,926762
38,18,female,Belg,2,51,ITC,neutral,5,left,10,ITC_collect,704,k,0,0,255,338211,927471
38,18,female,Belg,2,51,ITC,neutral,5,left,10,ITC_outcome,0,undefined,0,0,265,337203,928479
38,18,female,Belg,2,52,guess,loss,5,right,14,guess_start,501,space,0,0,265,336698,928984
38,18,female,Belg,2,52,guess,loss,5,right,14,guess_choice,757,f,0,0,265,335937,929745
38,18,female,Belg,2,52,guess,loss,5,right,14,guess_outcome,0,undefined,0,0,250,334378,931304
38,18,female,Belg,2,52,ITC,loss,5,right,14,ITC_start,585,space,0,0,250,333789,931893
38,18,female,Belg,2,52,ITC,loss,5,right,14,ITC_choice,1111,f,0,0,250,332675,933007
38,18,female,Belg,2,52,ITC,loss,5,right,14,ITC_wait,0,undefined,0,0,250,332671,933011
38,18,female,Belg,2,52,ITC,loss,5,right,14,ITC_collect,555,k,0,0,250,332115,933567
38,18,female,Belg,2,52,ITC,loss,5,right,14,ITC_outcome,0,undefined,0,0,264,331107,934575
38,18,female,Belg,2,53,guess,loss,5,left,3,guess_start,418,space,0,0,264,330685,934997
38,18,female,Belg,2,53,guess,loss,5,left,3,guess_choice,590,j,0,0,264,330092,935590
38,18,female,Belg,2,53,guess,loss,5,left,3,guess_outcome,0,undefined,0,0,249,328532,937150
38,18,female,Belg,2,53,ITC,loss,5,left,3,ITC_start,365,space,0,0,249,328164,937518
38,18,female,Belg,2,53,ITC,loss,5,left,3,ITC_choice,1385,f,0,0,249,326777,938905
38,18,female,Belg,2,53,ITC,loss,5,left,3,ITC_wait,0,undefined,0,0,249,321773,943909
38,18,female,Belg,2,53,ITC,loss,5,left,3,ITC_collect,776,k,0,0,249,320994,944688
38,18,female,Belg,2,53,ITC,loss,5,left,3,ITC_outcome,0,undefined,0,0,269,319991,945691
38,18,female,Belg,2,54,guess,loss,10,right,6,guess_start,107,space,0,0,269,319879,945803
38,18,female,Belg,2,54,guess,loss,10,right,6,guess_choice,630,j,0,0,269,319244,946438
38,18,female,Belg,2,54,guess,loss,10,right,6,guess_outcome,0,undefined,0,0,254,317686,947996
38,18,female,Belg,2,54,ITC,loss,10,right,6,ITC_start,856,space,0,0,254,316826,948856
38,18,female,Belg,2,54,ITC,loss,10,right,6,ITC_choice,1148,f,0,0,254,315675,950007
38,18,female,Belg,2,54,ITC,loss,10,right,6,ITC_wait,0,undefined,0,0,254,315672,950010
38,18,female,Belg,2,54,ITC,loss,10,right,6,ITC_collect,409,k,0,0,254,315261,950421
38,18,female,Belg,2,54,ITC,loss,10,right,6,ITC_outcome,0,undefined,0,0,260,314254,951428
38,18,female,Belg,2,55,guess,win,5,right,9,guess_start,513,space,0,0,260,313737,951945
38,18,female,Belg,2,55,guess,win,5,right,9,guess_choice,680,f,0,0,260,313052,952630
38,18,female,Belg,2,55,guess,win,5,right,9,guess_outcome,0,undefined,0,0,280,311492,954190
38,18,female,Belg,2,55,ITC,win,5,right,9,ITC_start,668,space,0,0,280,310821,954861
38,18,female,Belg,2,55,ITC,win,5,right,9,ITC_wait,0,undefined,0,0,280,309651,956031
38,18,female,Belg,2,55,ITC,win,5,right,9,ITC_choice,1163,f,0,0,280,309655,956027
38,18,female,Belg,2,55,ITC,win,5,right,9,ITC_collect,745,k,0,0,280,308904,956778
38,18,female,Belg,2,55,ITC,win,5,right,9,ITC_outcome,0,undefined,0,0,289,307896,957786
38,18,female,Belg,2,56,guess,loss,5,left,11,guess_start,540,space,0,0,289,307352,958330
38,18,female,Belg,2,56,guess,loss,5,left,11,guess_choice,825,j,0,0,289,306523,959159
38,18,female,Belg,2,56,guess,loss,5,left,11,guess_outcome,0,undefined,0,0,274,304964,960718
38,18,female,Belg,2,56,ITC,loss,5,left,11,ITC_start,499,space,0,0,274,304462,961220
38,18,female,Belg,2,56,ITC,loss,5,left,11,ITC_choice,850,j,0,0,274,303609,962073
38,18,female,Belg,2,56,ITC,loss,5,left,11,ITC_wait,0,undefined,0,0,274,303605,962077
38,18,female,Belg,2,56,ITC,loss,5,left,11,ITC_collect,362,k,0,0,274,303242,962440
38,18,female,Belg,2,56,ITC,loss,5,left,11,ITC_outcome,0,undefined,0,0,285,302234,963448
38,18,female,Belg,2,57,guess,loss,5,right,5,guess_start,393,space,0,0,285,301837,963845
38,18,female,Belg,2,57,guess,loss,5,right,5,guess_choice,611,f,0,0,285,301222,964460
38,18,female,Belg,2,57,guess,loss,5,right,5,guess_outcome,0,undefined,0,0,270,299666,966016
38,18,female,Belg,2,57,ITC,loss,5,right,5,ITC_start,68,space,0,0,270,299595,966087
38,18,female,Belg,2,57,ITC,loss,5,right,5,ITC_choice,1165,f,0,0,270,298427,967255
38,18,female,Belg,2,57,ITC,loss,5,right,5,ITC_wait,0,undefined,0,0,270,298423,967259
38,18,female,Belg,2,57,ITC,loss,5,right,5,ITC_collect,478,k,0,0,270,297944,967738
38,18,female,Belg,2,57,ITC,loss,5,right,5,ITC_outcome,0,undefined,0,0,275,296936,968746
38,18,female,Belg,2,58,guess,win,5,left,2,guess_start,433,space,0,0,275,296500,969182
38,18,female,Belg,2,58,guess,win,5,left,2,guess_choice,693,f,0,0,275,295802,969880
38,18,female,Belg,2,58,guess,win,5,left,2,guess_outcome,0,undefined,0,0,295,294244,971438
38,18,female,Belg,2,58,ITC,win,5,left,2,ITC_start,477,space,0,0,295,293764,971918
38,18,female,Belg,2,58,ITC,win,5,left,2,ITC_choice,1233,f,0,0,295,292528,973154
38,18,female,Belg,2,58,ITC,win,5,left,2,ITC_wait,0,undefined,0,0,295,287523,978159
38,18,female,Belg,2,58,ITC,win,5,left,2,ITC_collect,328,k,0,0,295,287191,978491
38,18,female,Belg,2,58,ITC,win,5,left,2,ITC_outcome,0,undefined,0,0,315,286188,979494
38,18,female,Belg,2,59,guess,loss,5,left,6,guess_start,361,space,0,0,315,285824,979858
38,18,female,Belg,2,59,guess,loss,5,left,6,guess_choice,526,j,0,0,315,285292,980390
38,18,female,Belg,2,59,guess,loss,5,left,6,guess_outcome,0,undefined,0,0,300,283732,981950
38,18,female,Belg,2,59,ITC,loss,5,left,6,ITC_start,669,space,0,0,300,283060,982622
38,18,female,Belg,2,59,ITC,loss,5,left,6,ITC_choice,1062,j,0,0,300,281995,983687
38,18,female,Belg,2,59,ITC,loss,5,left,6,ITC_wait,0,undefined,0,0,300,281992,983690
38,18,female,Belg,2,59,ITC,loss,5,left,6,ITC_collect,269,k,0,0,300,281721,983961
38,18,female,Belg,2,59,ITC,loss,5,left,6,ITC_outcome,0,undefined,0,0,306,280713,984969
38,18,female,Belg,2,60,guess,win,5,left,11,guess_start,476,space,0,0,306,280233,985449
38,18,female,Belg,2,60,guess,win,5,left,11,guess_choice,634,f,0,0,306,279595,986087
38,18,female,Belg,2,60,guess,win,5,left,11,guess_outcome,0,undefined,0,0,326,278035,987647
38,18,female,Belg,2,60,ITC,win,5,left,11,ITC_start,359,space,0,0,326,277674,988008
38,18,female,Belg,2,60,ITC,win,5,left,11,ITC_choice,580,j,0,0,326,277091,988591
38,18,female,Belg,2,60,ITC,win,5,left,11,ITC_wait,0,undefined,0,0,326,277087,988595
38,18,female,Belg,2,60,ITC,win,5,left,11,ITC_collect,233,k,0,0,326,276852,988830
38,18,female,Belg,2,60,ITC,win,5,left,11,ITC_outcome,0,undefined,0,0,337,275848,989834
38,18,female,Belg,2,61,guess,loss,5,right,7,guess_start,311,space,0,0,337,275534,990148
38,18,female,Belg,2,61,guess,loss,5,right,7,guess_choice,732,f,0,0,337,274797,990885
38,18,female,Belg,2,61,guess,loss,5,right,7,guess_outcome,0,undefined,0,0,322,273237,992445
38,18,female,Belg,2,61,ITC,loss,5,right,7,ITC_start,183,space,0,0,322,273051,992631
38,18,female,Belg,2,61,ITC,loss,5,right,7,ITC_choice,943,f,0,0,322,272105,993577
38,18,female,Belg,2,61,ITC,loss,5,right,7,ITC_wait,0,undefined,0,0,322,272101,993581
38,18,female,Belg,2,61,ITC,loss,5,right,7,ITC_collect,386,k,0,0,322,271713,993969
38,18,female,Belg,2,61,ITC,loss,5,right,7,ITC_outcome,0,undefined,0,0,329,270708,994974
38,18,female,Belg,2,62,guess,win,10,left,5,guess_start,438,space,0,0,329,270266,995416
38,18,female,Belg,2,62,guess,win,10,left,5,guess_choice,580,j,0,0,329,269682,996000
38,18,female,Belg,2,62,guess,win,10,left,5,guess_outcome,0,undefined,0,0,349,268124,997558
38,18,female,Belg,2,62,ITC,win,10,left,5,ITC_start,342,space,0,0,349,267779,997903
38,18,female,Belg,2,62,ITC,win,10,left,5,ITC_choice,1208,j,0,0,349,266568,999114
38,18,female,Belg,2,62,ITC,win,10,left,5,ITC_wait,0,undefined,0,0,349,266564,999118
38,18,female,Belg,2,62,ITC,win,10,left,5,ITC_collect,369,k,0,0,349,266194,999488
38,18,female,Belg,2,62,ITC,win,10,left,5,ITC_outcome,0,undefined,0,0,354,265186,1000496
38,18,female,Belg,2,63,guess,neutral,10,left,5,guess_start,581,space,0,0,354,264602,1001080
38,18,female,Belg,2,63,guess,neutral,10,left,5,guess_choice,707,f,0,0,354,263890,1001792
38,18,female,Belg,2,63,guess,neutral,10,left,5,guess_outcome,0,undefined,0,0,354,262333,1003349
38,18,female,Belg,2,63,ITC,neutral,10,left,5,ITC_start,430,space,0,0,354,261900,1003782
38,18,female,Belg,2,63,ITC,neutral,10,left,5,ITC_choice,704,j,0,0,354,261193,1004489
38,18,female,Belg,2,63,ITC,neutral,10,left,5,ITC_wait,0,undefined,0,0,354,261189,1004493
38,18,female,Belg,2,63,ITC,neutral,10,left,5,ITC_collect,304,k,0,0,354,260883,1004799
38,18,female,Belg,2,63,ITC,neutral,10,left,5,ITC_outcome,0,undefined,0,0,359,259875,1005807
38,18,female,Belg,2,64,guess,loss,10,left,1,guess_start,220,space,0,0,359,259652,1006030
38,18,female,Belg,2,64,guess,loss,10,left,1,guess_choice,876,f,0,0,359,258772,1006910
38,18,female,Belg,2,64,guess,loss,10,left,1,guess_outcome,0,undefined,0,0,344,257213,1008469
38,18,female,Belg,2,64,ITC,loss,10,left,1,ITC_start,582,space,0,0,344,256628,1009054
38,18,female,Belg,2,64,ITC,loss,10,left,1,ITC_choice,1190,f,0,0,344,255435,1010247
38,18,female,Belg,2,64,ITC,loss,10,left,1,ITC_wait,0,undefined,0,0,344,245427,1020255
38,18,female,Belg,2,64,ITC,loss,10,left,1,ITC_collect,346,k,0,0,344,245078,1020604
38,18,female,Belg,2,64,ITC,loss,10,left,1,ITC_outcome,0,undefined,0,0,364,244072,1021610
38,18,female,Belg,2,65,guess,win,5,left,16,guess_start,475,space,0,0,364,243593,1022089
38,18,female,Belg,2,65,guess,win,5,left,16,guess_choice,513,j,0,0,364,243075,1022607
38,18,female,Belg,2,65,guess,win,5,left,16,guess_outcome,0,undefined,0,0,384,241519,1024163
38,18,female,Belg,2,65,ITC,win,5,left,16,ITC_start,667,space,0,0,384,240850,1024832
38,18,female,Belg,2,65,ITC,win,5,left,16,ITC_choice,1087,j,0,0,384,239760,1025922
38,18,female,Belg,2,65,ITC,win,5,left,16,ITC_wait,0,undefined,0,0,384,239756,1025926
38,18,female,Belg,2,65,ITC,win,5,left,16,ITC_collect,335,k,0,0,384,239420,1026262
38,18,female,Belg,2,65,ITC,win,5,left,16,ITC_outcome,0,undefined,0,0,400,238412,1027270
38,18,female,Belg,2,66,guess,win,10,right,1,guess_start,538,space,0,0,400,237871,1027811
38,18,female,Belg,2,66,guess,win,10,right,1,guess_choice,569,j,0,0,400,237297,1028385
38,18,female,Belg,2,66,guess,win,10,right,1,guess_outcome,0,undefined,0,0,420,235740,1029942
38,18,female,Belg,2,66,ITC,win,10,right,1,ITC_start,677,space,0,0,420,235060,1030622
38,18,female,Belg,2,66,ITC,win,10,right,1,ITC_choice,1882,j,0,0,420,233176,1032506
38,18,female,Belg,2,66,ITC,win,10,right,1,ITC_wait,0,undefined,0,0,420,223172,1042510
38,18,female,Belg,2,66,ITC,win,10,right,1,ITC_collect,333,k,0,0,420,222835,1042847
38,18,female,Belg,2,66,ITC,win,10,right,1,ITC_outcome,0,undefined,0,0,440,221827,1043855
38,18,female,Belg,2,67,guess,win,5,right,1,guess_start,372,space,0,0,440,221452,1044230
38,18,female,Belg,2,67,guess,win,5,right,1,guess_choice,849,f,0,0,440,220598,1045084
38,18,female,Belg,2,67,guess,win,5,right,1,guess_outcome,0,undefined,0,0,460,219041,1046641
38,18,female,Belg,2,67,ITC,win,5,right,1,ITC_start,675,space,0,0,460,218364,1047318
38,18,female,Belg,2,67,ITC,win,5,right,1,ITC_choice,1106,j,0,0,460,217253,1048429
38,18,female,Belg,2,67,ITC,win,5,right,1,ITC_wait,0,undefined,0,0,460,212246,1053436
38,18,female,Belg,2,67,ITC,win,5,right,1,ITC_collect,283,k,0,0,460,211960,1053722
38,18,female,Belg,2,67,ITC,win,5,right,1,ITC_outcome,0,undefined,0,0,480,210956,1054726
38,18,female,Belg,2,68,guess,win,5,right,7,guess_start,467,space,0,0,480,210486,1055196
38,18,female,Belg,2,68,guess,win,5,right,7,guess_choice,652,j,0,0,480,209829,1055853
38,18,female,Belg,2,68,guess,win,5,right,7,guess_outcome,0,undefined,0,0,500,208272,1057410
38,18,female,Belg,2,68,ITC,win,5,right,7,ITC_start,928,space,0,0,500,207342,1058340
38,18,female,Belg,2,68,ITC,win,5,right,7,ITC_choice,1524,j,0,0,500,205815,1059867
38,18,female,Belg,2,68,ITC,win,5,right,7,ITC_wait,0,undefined,0,0,500,200807,1064875
38,18,female,Belg,2,68,ITC,win,5,right,7,ITC_collect,1053,k,0,0,500,199751,1065931
38,18,female,Belg,2,68,ITC,win,5,right,7,ITC_outcome,0,undefined,0,0,520,198743,1066939
38,18,female,Belg,2,69,guess,neutral,10,right,3,guess_start,377,space,0,0,520,198362,1067320
38,18,female,Belg,2,69,guess,neutral,10,right,3,guess_choice,779,f,0,0,520,197579,1068103
38,18,female,Belg,2,69,guess,neutral,10,right,3,guess_outcome,0,undefined,0,0,520,196024,1069658
38,18,female,Belg,2,69,ITC,neutral,10,right,3,ITC_start,1370,space,0,0,520,194651,1071031
38,18,female,Belg,2,69,ITC,neutral,10,right,3,ITC_choice,1196,f,0,0,520,193452,1072230
38,18,female,Belg,2,69,ITC,neutral,10,right,3,ITC_wait,0,undefined,0,0,520,193448,1072234
38,18,female,Belg,2,69,ITC,neutral,10,right,3,ITC_collect,255,k,0,0,520,193192,1072490
38,18,female,Belg,2,69,ITC,neutral,10,right,3,ITC_outcome,0,undefined,0,0,523,192184,1073498
38,18,female,Belg,2,70,guess,neutral,5,right,3,guess_start,530,space,0,0,523,191650,1074032
38,18,female,Belg,2,70,guess,neutral,5,right,3,guess_choice,815,j,0,0,523,190830,1074852
38,18,female,Belg,2,70,guess,neutral,5,right,3,guess_outcome,0,undefined,0,0,523,189275,1076407
38,18,female,Belg,2,70,ITC,neutral,5,right,3,ITC_start,460,space,0,0,523,188812,1076870
38,18,female,Belg,2,70,ITC,neutral,5,right,3,ITC_choice,1098,f,0,0,523,187711,1077971
38,18,female,Belg,2,70,ITC,neutral,5,right,3,ITC_wait,0,undefined,0,0,523,187707,1077975
38,18,female,Belg,2,70,ITC,neutral,5,right,3,ITC_collect,369,k,0,0,523,187336,1078346
38,18,female,Belg,2,70,ITC,neutral,5,right,3,ITC_outcome,0,undefined,0,0,526,186328,1079354
38,18,female,Belg,2,71,guess,win,5,right,6,guess_start,522,space,0,0,526,185802,1079880
38,18,female,Belg,2,71,guess,win,5,right,6,guess_choice,508,j,0,0,526,185290,1080392
38,18,female,Belg,2,71,guess,win,5,right,6,guess_outcome,0,undefined,0,0,546,183730,1081952
38,18,female,Belg,2,71,ITC,win,5,right,6,ITC_start,713,space,0,0,546,183015,1082667
38,18,female,Belg,2,71,ITC,win,5,right,6,ITC_choice,777,j,0,0,546,182234,1083448
38,18,female,Belg,2,71,ITC,win,5,right,6,ITC_wait,0,undefined,0,0,546,177230,1088452
38,18,female,Belg,2,71,ITC,win,5,right,6,ITC_collect,334,k,0,0,546,176893,1088789
38,18,female,Belg,2,71,ITC,win,5,right,6,ITC_outcome,0,undefined,0,0,566,175885,1089797
38,18,female,Belg,2,72,guess,neutral,5,right,6,guess_start,336,space,0,0,566,175545,1090137
38,18,female,Belg,2,72,guess,neutral,5,right,6,guess_choice,766,j,0,0,566,174775,1090907
38,18,female,Belg,2,72,guess,neutral,5,right,6,guess_outcome,0,undefined,0,0,566,173217,1092465
38,18,female,Belg,2,72,ITC,neutral,5,right,6,ITC_start,517,space,0,0,566,172697,1092985
38,18,female,Belg,2,72,ITC,neutral,5,right,6,ITC_choice,628,j,0,0,566,172065,1093617
38,18,female,Belg,2,72,ITC,neutral,5,right,6,ITC_wait,0,undefined,0,0,566,167062,1098620
38,18,female,Belg,2,72,ITC,neutral,5,right,6,ITC_collect,340,k,0,0,566,166718,1098964
38,18,female,Belg,2,72,ITC,neutral,5,right,6,ITC_outcome,0,undefined,0,0,586,165710,1099972
38,18,female,Belg,2,73,guess,loss,10,right,2,guess_start,436,space,0,0,586,165271,1100411
38,18,female,Belg,2,73,guess,loss,10,right,2,guess_choice,497,f,0,0,586,164769,1100913
38,18,female,Belg,2,73,guess,loss,10,right,2,guess_outcome,0,undefined,0,0,571,163213,1102469
38,18,female,Belg,2,73,ITC,loss,10,right,2,ITC_start,527,space,0,0,571,162683,1102999
38,18,female,Belg,2,73,ITC,loss,10,right,2,ITC_choice,1278,f,0,0,571,161402,1104280
38,18,female,Belg,2,73,ITC,loss,10,right,2,ITC_wait,0,undefined,0,0,571,161399,1104283
38,18,female,Belg,2,73,ITC,loss,10,right,2,ITC_collect,256,k,0,0,571,161141,1104541
38,18,female,Belg,2,73,ITC,loss,10,right,2,ITC_outcome,0,undefined,0,0,573,160133,1105549
38,18,female,Belg,2,74,guess,loss,5,left,12,guess_start,466,space,0,0,573,159663,1106019
38,18,female,Belg,2,74,guess,loss,5,left,12,guess_choice,986,f,0,0,573,158672,1107010
38,18,female,Belg,2,74,guess,loss,5,left,12,guess_outcome,0,undefined,0,0,558,157112,1108570
38,18,female,Belg,2,74,ITC,loss,5,left,12,ITC_start,644,space,0,0,558,156465,1109217
38,18,female,Belg,2,74,ITC,loss,5,left,12,ITC_choice,1004,j,0,0,558,155458,1110224
38,18,female,Belg,2,74,ITC,loss,5,left,12,ITC_wait,0,undefined,0,0,558,155454,1110228
38,18,female,Belg,2,74,ITC,loss,5,left,12,ITC_collect,325,k,0,0,558,155128,1110554
38,18,female,Belg,2,74,ITC,loss,5,left,12,ITC_outcome,0,undefined,0,0,570,154118,1111564
38,18,female,Belg,2,75,guess,neutral,5,left,9,guess_start,412,space,0,0,570,153702,1111980
38,18,female,Belg,2,75,guess,neutral,5,left,9,guess_choice,644,j,0,0,570,153053,1112629
38,18,female,Belg,2,75,guess,neutral,5,left,9,guess_outcome,0,undefined,0,0,570,151498,1114184
38,18,female,Belg,2,75,ITC,neutral,5,left,9,ITC_start,403,space,0,0,570,151092,1114590
38,18,female,Belg,2,75,ITC,neutral,5,left,9,ITC_choice,793,j,0,0,570,150296,1115386
38,18,female,Belg,2,75,ITC,neutral,5,left,9,ITC_wait,0,undefined,0,0,570,150292,1115390
38,18,female,Belg,2,75,ITC,neutral,5,left,9,ITC_collect,263,k,0,0,570,150027,1115655
38,18,female,Belg,2,75,ITC,neutral,5,left,9,ITC_outcome,0,undefined,0,0,579,149022,1116660
38,18,female,Belg,2,76,guess,win,5,right,13,guess_start,367,space,0,0,579,148652,1117030
38,18,female,Belg,2,76,guess,win,5,right,13,guess_choice,693,f,0,0,579,147955,1117727
38,18,female,Belg,2,76,guess,win,5,right,13,guess_outcome,0,undefined,0,0,599,146396,1119286
38,18,female,Belg,2,76,ITC,win,5,right,13,ITC_start,531,space,0,0,599,145862,1119820
38,18,female,Belg,2,76,ITC,win,5,right,13,ITC_choice,1400,f,0,0,599,144459,1121223
38,18,female,Belg,2,76,ITC,win,5,right,13,ITC_wait,0,undefined,0,0,599,144455,1121227
38,18,female,Belg,2,76,ITC,win,5,right,13,ITC_collect,344,k,0,0,599,144110,1121572
38,18,female,Belg,2,76,ITC,win,5,right,13,ITC_outcome,0,undefined,0,0,612,143104,1122578
38,18,female,Belg,2,77,guess,neutral,5,left,11,guess_start,445,space,0,0,612,142656,1123026
38,18,female,Belg,2,77,guess,neutral,5,left,11,guess_choice,537,f,0,0,612,142114,1123568
38,18,female,Belg,2,77,guess,neutral,5,left,11,guess_outcome,0,undefined,0,0,612,140557,1125125
38,18,female,Belg,2,77,ITC,neutral,5,left,11,ITC_start,294,space,0,0,612,140261,1125421
38,18,female,Belg,2,77,ITC,neutral,5,left,11,ITC_wait,0,undefined,0,0,612,139424,1126258
38,18,female,Belg,2,77,ITC,neutral,5,left,11,ITC_choice,830,j,0,0,612,139428,1126254
38,18,female,Belg,2,77,ITC,neutral,5,left,11,ITC_collect,251,k,0,0,612,139171,1126511
38,18,female,Belg,2,77,ITC,neutral,5,left,11,ITC_outcome,0,undefined,0,0,623,138163,1127519
38,18,female,Belg,2,78,guess,neutral,5,left,15,guess_start,314,space,0,0,623,137846,1127836
38,18,female,Belg,2,78,guess,neutral,5,left,15,guess_choice,596,f,0,0,623,137246,1128436
38,18,female,Belg,2,78,guess,neutral,5,left,15,guess_outcome,0,undefined,0,0,623,135691,1129991
38,18,female,Belg,2,78,ITC,neutral,5,left,15,ITC_start,184,space,0,0,623,135504,1130178
38,18,female,Belg,2,78,ITC,neutral,5,left,15,ITC_choice,634,j,0,0,623,134866,1130816
38,18,female,Belg,2,78,ITC,neutral,5,left,15,ITC_wait,0,undefined,0,0,623,134863,1130819
38,18,female,Belg,2,78,ITC,neutral,5,left,15,ITC_collect,183,k,0,0,623,134678,1131004
38,18,female,Belg,2,78,ITC,neutral,5,left,15,ITC_outcome,0,undefined,0,0,638,133673,1132009
38,18,female,Belg,2,79,guess,loss,10,right,5,guess_start,368,space,0,0,638,133302,1132380
38,18,female,Belg,2,79,guess,loss,10,right,5,guess_choice,549,j,0,0,638,132748,1132934
38,18,female,Belg,2,79,guess,loss,10,right,5,guess_outcome,0,undefined,0,0,623,131189,1134493
38,18,female,Belg,2,79,ITC,loss,10,right,5,ITC_start,186,space,0,0,623,130999,1134683
38,18,female,Belg,2,79,ITC,loss,10,right,5,ITC_choice,1081,f,0,0,623,129915,1135767
38,18,female,Belg,2,79,ITC,loss,10,right,5,ITC_wait,0,undefined,0,0,623,129912,1135770
38,18,female,Belg,2,79,ITC,loss,10,right,5,ITC_collect,236,k,0,0,623,129674,1136008
38,18,female,Belg,2,79,ITC,loss,10,right,5,ITC_outcome,0,undefined,0,0,628,128669,1137013
38,18,female,Belg,2,80,guess,win,5,left,15,guess_start,448,space,0,0,628,128218,1137464
38,18,female,Belg,2,80,guess,win,5,left,15,guess_choice,696,f,0,0,628,127518,1138164
38,18,female,Belg,2,80,guess,win,5,left,15,guess_outcome,0,undefined,0,0,648,125958,1139724
38,18,female,Belg,2,80,ITC,win,5,left,15,ITC_start,87,space,0,0,648,125868,1139814
38,18,female,Belg,2,80,ITC,win,5,left,15,ITC_choice,1013,j,0,0,648,124852,1140830
38,18,female,Belg,2,80,ITC,win,5,left,15,ITC_wait,0,undefined,0,0,648,124848,1140834
38,18,female,Belg,2,80,ITC,win,5,left,15,ITC_collect,233,k,0,0,648,124614,1141068
38,18,female,Belg,2,80,ITC,win,5,left,15,ITC_outcome,0,undefined,0,0,663,123606,1142076
38,18,female,Belg,2,81,guess,loss,5,right,13,guess_start,275,space,0,0,663,123328,1142354
38,18,female,Belg,2,81,guess,loss,5,right,13,guess_choice,528,j,0,0,663,122795,1142887
38,18,female,Belg,2,81,guess,loss,5,right,13,guess_outcome,0,undefined,0,0,648,121238,1144444
38,18,female,Belg,2,81,ITC,loss,5,right,13,ITC_start,450,space,0,0,648,120785,1144897
38,18,female,Belg,2,81,ITC,loss,5,right,13,ITC_choice,1217,f,0,0,648,119565,1146117
38,18,female,Belg,2,81,ITC,loss,5,right,13,ITC_wait,0,undefined,0,0,648,119561,1146121
38,18,female,Belg,2,81,ITC,loss,5,right,13,ITC_collect,159,k,0,0,648,119401,1146281
38,18,female,Belg,2,81,ITC,loss,5,right,13,ITC_outcome,0,undefined,0,0,661,118393,1147289
38,18,female,Belg,2,82,guess,neutral,5,right,1,guess_start,308,space,0,0,661,118081,1147601
38,18,female,Belg,2,82,guess,neutral,5,right,1,guess_choice,728,f,0,0,661,117348,1148334
38,18,female,Belg,2,82,guess,neutral,5,right,1,guess_outcome,0,undefined,0,0,661,115789,1149893
38,18,female,Belg,2,82,ITC,neutral,5,right,1,ITC_start,241,space,0,0,661,115545,1150137
38,18,female,Belg,2,82,ITC,neutral,5,right,1,ITC_choice,932,f,0,0,661,114611,1151071
38,18,female,Belg,2,82,ITC,neutral,5,right,1,ITC_wait,0,undefined,0,0,661,114607,1151075
38,18,female,Belg,2,82,ITC,neutral,5,right,1,ITC_collect,195,k,0,0,661,114411,1151271
38,18,female,Belg,2,82,ITC,neutral,5,right,1,ITC_outcome,0,undefined,0,0,662,113407,1152275
38,18,female,Belg,2,83,guess,loss,5,left,11,guess_start,426,space,0,0,662,112977,1152705
38,18,female,Belg,2,83,guess,loss,5,left,11,guess_choice,834,j,0,0,662,112139,1153543
38,18,female,Belg,2,83,guess,loss,5,left,11,guess_outcome,0,undefined,0,0,647,110579,1155103
38,18,female,Belg,2,83,ITC,loss,5,left,11,ITC_start,352,space,0,0,647,110224,1155458
38,18,female,Belg,2,83,ITC,loss,5,left,11,ITC_choice,667,j,0,0,647,109554,1156128
38,18,female,Belg,2,83,ITC,loss,5,left,11,ITC_wait,0,undefined,0,0,647,109550,1156132
38,18,female,Belg,2,83,ITC,loss,5,left,11,ITC_collect,144,k,0,0,647,109404,1156278
38,18,female,Belg,2,83,ITC,loss,5,left,11,ITC_outcome,0,undefined,0,0,658,108396,1157286
38,18,female,Belg,2,84,guess,loss,10,left,6,guess_start,302,space,0,0,658,108091,1157591
38,18,female,Belg,2,84,guess,loss,10,left,6,guess_choice,660,j,0,0,658,107426,1158256
38,18,female,Belg,2,84,guess,loss,10,left,6,guess_outcome,0,undefined,0,0,643,105867,1159815
38,18,female,Belg,2,84,ITC,loss,10,left,6,ITC_start,483,space,0,0,643,105381,1160301
38,18,female,Belg,2,84,ITC,loss,10,left,6,ITC_choice,718,j,0,0,643,104660,1161022
38,18,female,Belg,2,84,ITC,loss,10,left,6,ITC_wait,0,undefined,0,0,643,104656,1161026
38,18,female,Belg,2,84,ITC,loss,10,left,6,ITC_collect,139,k,0,0,643,104516,1161166
38,18,female,Belg,2,84,ITC,loss,10,left,6,ITC_outcome,0,undefined,0,0,649,103511,1162171
38,18,female,Belg,2,85,guess,win,10,left,8,guess_start,286,space,0,0,649,103222,1162460
38,18,female,Belg,2,85,guess,win,10,left,8,guess_choice,513,f,0,0,649,102704,1162978
38,18,female,Belg,2,85,guess,win,10,left,8,guess_outcome,0,undefined,0,0,669,101144,1164538
38,18,female,Belg,2,85,ITC,win,10,left,8,ITC_start,315,space,0,0,669,100826,1164856
38,18,female,Belg,2,85,ITC,win,10,left,8,ITC_choice,519,j,0,0,669,100304,1165378
38,18,female,Belg,2,85,ITC,win,10,left,8,ITC_wait,0,undefined,0,0,669,100300,1165382
38,18,female,Belg,2,85,ITC,win,10,left,8,ITC_collect,155,k,0,0,669,100143,1165539
38,18,female,Belg,2,85,ITC,win,10,left,8,ITC_outcome,0,undefined,0,0,677,99135,1166547
38,18,female,Belg,2,86,guess,neutral,10,right,4,guess_start,310,space,0,0,677,98821,1166861
38,18,female,Belg,2,86,guess,neutral,10,right,4,guess_choice,943,f,0,0,677,97873,1167809
38,18,female,Belg,2,86,guess,neutral,10,right,4,guess_outcome,0,undefined,0,0,677,96316,1169366
38,18,female,Belg,2,86,ITC,neutral,10,right,4,ITC_start,389,space,0,0,677,95924,1169758
38,18,female,Belg,2,86,ITC,neutral,10,right,4,ITC_choice,1242,f,0,0,677,94679,1171003
38,18,female,Belg,2,86,ITC,neutral,10,right,4,ITC_wait,0,undefined,0,0,677,94675,1171007
38,18,female,Belg,2,86,ITC,neutral,10,right,4,ITC_collect,238,k,0,0,677,94436,1171246
38,18,female,Belg,2,86,ITC,neutral,10,right,4,ITC_outcome,0,undefined,0,0,681,93428,1172254
38,18,female,Belg,2,87,guess,neutral,10,right,1,guess_start,443,space,0,0,681,92981,1172701
38,18,female,Belg,2,87,guess,neutral,10,right,1,guess_choice,548,f,0,0,681,92429,1173253
38,18,female,Belg,2,87,guess,neutral,10,right,1,guess_outcome,0,undefined,0,0,681,90869,1174813
38,18,female,Belg,2,87,ITC,neutral,10,right,1,ITC_start,263,space,0,0,681,90602,1175080
38,18,female,Belg,2,87,ITC,neutral,10,right,1,ITC_choice,1746,j,0,0,681,88853,1176829
38,18,female,Belg,2,87,ITC,neutral,10,right,1,ITC_wait,0,undefined,0,0,681,78849,1186833
38,18,female,Belg,2,87,ITC,neutral,10,right,1,ITC_collect,333,k,0,0,681,78512,1187170
38,18,female,Belg,2,87,ITC,neutral,10,right,1,ITC_outcome,0,undefined,0,0,701,77503,1188179
38,18,female,Belg,2,88,guess,neutral,5,left,16,guess_start,639,space,0,0,701,76861,1188821
38,18,female,Belg,2,88,guess,neutral,5,left,16,guess_choice,580,f,0,0,701,76276,1189406
38,18,female,Belg,2,88,guess,neutral,5,left,16,guess_outcome,0,undefined,0,0,701,74719,1190963
38,18,female,Belg,2,88,ITC,neutral,5,left,16,ITC_start,328,space,0,0,701,74387,1191295
38,18,female,Belg,2,88,ITC,neutral,5,left,16,ITC_choice,747,j,0,0,701,73638,1192044
38,18,female,Belg,2,88,ITC,neutral,5,left,16,ITC_wait,0,undefined,0,0,701,73633,1192049
38,18,female,Belg,2,88,ITC,neutral,5,left,16,ITC_collect,233,k,0,0,701,73399,1192283
38,18,female,Belg,2,88,ITC,neutral,5,left,16,ITC_outcome,0,undefined,0,0,717,72392,1193290
38,18,female,Belg,2,89,guess,win,5,right,12,guess_start,596,space,0,0,717,71792,1193890
38,18,female,Belg,2,89,guess,win,5,right,12,guess_choice,489,j,0,0,717,71298,1194384
38,18,female,Belg,2,89,guess,win,5,right,12,guess_outcome,0,undefined,0,0,737,69738,1195944
38,18,female,Belg,2,89,ITC,win,5,right,12,ITC_start,377,space,0,0,737,69358,1196324
38,18,female,Belg,2,89,ITC,win,5,right,12,ITC_choice,1151,f,0,0,737,68205,1197477
38,18,female,Belg,2,89,ITC,win,5,right,12,ITC_wait,0,undefined,0,0,737,68201,1197481
38,18,female,Belg,2,89,ITC,win,5,right,12,ITC_collect,210,k,0,0,737,67989,1197693
38,18,female,Belg,2,89,ITC,win,5,right,12,ITC_outcome,0,undefined,0,0,749,66984,1198698
38,18,female,Belg,2,90,guess,win,10,left,3,guess_start,275,space,0,0,749,66706,1198976
38,18,female,Belg,2,90,guess,win,10,left,3,guess_choice,506,j,0,0,749,66196,1199486
38,18,female,Belg,2,90,guess,win,10,left,3,guess_outcome,0,undefined,0,0,769,64636,1201046
38,18,female,Belg,2,90,ITC,win,10,left,3,ITC_start,385,space,0,0,769,64247,1201435
38,18,female,Belg,2,90,ITC,win,10,left,3,ITC_choice,1092,j,0,0,769,63152,1202530
38,18,female,Belg,2,90,ITC,win,10,left,3,ITC_wait,0,undefined,0,0,769,63147,1202535
38,18,female,Belg,2,90,ITC,win,10,left,3,ITC_collect,139,k,0,0,769,63007,1202675
38,18,female,Belg,2,90,ITC,win,10,left,3,ITC_outcome,0,undefined,0,0,772,61999,1203683
38,18,female,Belg,2,91,guess,loss,10,left,4,guess_start,300,space,0,0,772,61695,1203987
38,18,female,Belg,2,91,guess,loss,10,left,4,guess_choice,505,f,0,0,772,61185,1204497
38,18,female,Belg,2,91,guess,loss,10,left,4,guess_outcome,0,undefined,0,0,757,59625,1206057
38,18,female,Belg,2,91,ITC,loss,10,left,4,ITC_start,374,space,0,0,757,59248,1206434
38,18,female,Belg,2,91,ITC,loss,10,left,4,ITC_choice,496,j,0,0,757,58750,1206932
38,18,female,Belg,2,91,ITC,loss,10,left,4,ITC_wait,0,undefined,0,0,757,58746,1206936
38,18,female,Belg,2,91,ITC,loss,10,left,4,ITC_collect,113,k,0,0,757,58632,1207050
38,18,female,Belg,2,91,ITC,loss,10,left,4,ITC_outcome,0,undefined,0,0,761,57625,1208057
38,18,female,Belg,2,92,guess,loss,5,left,2,guess_start,294,space,0,0,761,57328,1208354
38,18,female,Belg,2,92,guess,loss,5,left,2,guess_choice,590,j,0,0,761,56733,1208949
38,18,female,Belg,2,92,guess,loss,5,left,2,guess_outcome,0,undefined,0,0,746,55178,1210504
38,18,female,Belg,2,92,ITC,loss,5,left,2,ITC_start,325,space,0,0,746,54851,1210831
38,18,female,Belg,2,92,ITC,loss,5,left,2,ITC_wait,0,undefined,0,0,746,54159,1211523
38,18,female,Belg,2,92,ITC,loss,5,left,2,ITC_choice,684,j,0,0,746,54164,1211518
38,18,female,Belg,2,92,ITC,loss,5,left,2,ITC_collect,132,k,0,0,746,54026,1211656
38,18,female,Belg,2,92,ITC,loss,5,left,2,ITC_outcome,0,undefined,0,0,748,53018,1212664
38,18,female,Belg,2,93,guess,win,10,left,7,guess_start,321,space,0,0,748,52694,1212988
38,18,female,Belg,2,93,guess,win,10,left,7,guess_choice,660,f,0,0,748,52029,1213653
38,18,female,Belg,2,93,guess,win,10,left,7,guess_outcome,0,undefined,0,0,768,50471,1215211
38,18,female,Belg,2,93,ITC,win,10,left,7,ITC_start,269,space,0,0,768,50200,1215482
38,18,female,Belg,2,93,ITC,win,10,left,7,ITC_choice,495,j,0,0,768,49702,1215980
38,18,female,Belg,2,93,ITC,win,10,left,7,ITC_wait,0,undefined,0,0,768,49698,1215984
38,18,female,Belg,2,93,ITC,win,10,left,7,ITC_collect,126,k,0,0,768,49571,1216111
38,18,female,Belg,2,93,ITC,win,10,left,7,ITC_outcome,0,undefined,0,0,775,48563,1217119
38,18,female,Belg,2,94,guess,neutral,10,right,7,guess_start,320,space,0,0,775,48240,1217442
38,18,female,Belg,2,94,guess,neutral,10,right,7,guess_choice,660,j,0,0,775,47576,1218106
38,18,female,Belg,2,94,guess,neutral,10,right,7,guess_outcome,0,undefined,0,0,775,46016,1219666
38,18,female,Belg,2,94,ITC,neutral,10,right,7,ITC_start,172,space,0,0,775,45841,1219841
38,18,female,Belg,2,94,ITC,neutral,10,right,7,ITC_choice,972,f,0,0,775,44867,1220815
38,18,female,Belg,2,94,ITC,neutral,10,right,7,ITC_wait,0,undefined,0,0,775,44863,1220819
38,18,female,Belg,2,94,ITC,neutral,10,right,7,ITC_collect,234,k,0,0,775,44628,1221054
38,18,female,Belg,2,94,ITC,neutral,10,right,7,ITC_outcome,0,undefined,0,0,782,43618,1222064
38,18,female,Belg,2,95,guess,neutral,10,right,3,guess_start,316,space,0,0,782,43299,1222383
38,18,female,Belg,2,95,guess,neutral,10,right,3,guess_choice,676,f,0,0,782,42618,1223064
38,18,female,Belg,2,95,guess,neutral,10,right,3,guess_outcome,0,undefined,0,0,782,41061,1224621
38,18,female,Belg,2,95,ITC,neutral,10,right,3,ITC_start,286,space,0,0,782,40772,1224910
38,18,female,Belg,2,95,ITC,neutral,10,right,3,ITC_choice,875,f,0,0,782,39894,1225788
38,18,female,Belg,2,95,ITC,neutral,10,right,3,ITC_wait,0,undefined,0,0,782,39890,1225792
38,18,female,Belg,2,95,ITC,neutral,10,right,3,ITC_collect,237,k,0,0,782,39651,1226031
38,18,female,Belg,2,95,ITC,neutral,10,right,3,ITC_outcome,0,undefined,0,0,785,38647,1227035
38,18,female,Belg,2,96,guess,win,10,right,2,guess_start,276,space,0,0,785,38368,1227314
38,18,female,Belg,2,96,guess,win,10,right,2,guess_choice,647,f,0,0,785,37717,1227965
38,18,female,Belg,2,96,guess,win,10,right,2,guess_outcome,0,undefined,0,0,805,36157,1229525
38,18,female,Belg,2,96,ITC,win,10,right,2,ITC_start,275,space,0,0,805,35878,1229804
38,18,female,Belg,2,96,ITC,win,10,right,2,ITC_choice,477,j,0,0,805,35398,1230284
38,18,female,Belg,2,96,ITC,win,10,right,2,ITC_wait,0,undefined,0,0,805,25390,1240292
38,18,female,Belg,2,96,ITC,win,10,right,2,ITC_collect,1007,k,0,0,805,24379,1241303
38,18,female,Belg,2,96,ITC,win,10,right,2,ITC_outcome,0,undefined,0,0,825,23374,1242308
38,18,female,Belg,2,97,guess,neutral,10,left,5,guess_start,421,space,0,0,825,22950,1242732
38,18,female,Belg,2,97,guess,neutral,10,left,5,guess_choice,658,j,0,0,825,22287,1243395
38,18,female,Belg,2,97,guess,neutral,10,left,5,guess_outcome,0,undefined,0,0,825,20729,1244953
38,18,female,Belg,2,97,ITC,neutral,10,left,5,ITC_start,425,space,0,0,825,20301,1245381
38,18,female,Belg,2,97,ITC,neutral,10,left,5,ITC_choice,854,j,0,0,825,19445,1246237
38,18,female,Belg,2,97,ITC,neutral,10,left,5,ITC_wait,0,undefined,0,0,825,19441,1246241
38,18,female,Belg,2,97,ITC,neutral,10,left,5,ITC_collect,168,k,0,0,825,19271,1246411
38,18,female,Belg,2,97,ITC,neutral,10,left,5,ITC_outcome,0,undefined,0,0,830,18263,1247419
38,18,female,Belg,2,98,guess,loss,10,right,7,guess_start,188,space,0,0,830,18071,1247611
38,18,female,Belg,2,98,guess,loss,10,right,7,guess_choice,620,f,0,0,830,17446,1248236
38,18,female,Belg,2,98,guess,loss,10,right,7,guess_outcome,0,undefined,0,0,815,15891,1249791
38,18,female,Belg,2,98,ITC,loss,10,right,7,ITC_start,981,space,0,0,815,14907,1250775
38,18,female,Belg,2,98,ITC,loss,10,right,7,ITC_choice,778,f,0,0,815,14126,1251556
38,18,female,Belg,2,98,ITC,loss,10,right,7,ITC_wait,0,undefined,0,0,815,14122,1251560
38,18,female,Belg,2,98,ITC,loss,10,right,7,ITC_collect,164,k,0,0,815,13957,1251725
38,18,female,Belg,2,98,ITC,loss,10,right,7,ITC_outcome,0,undefined,0,0,822,12950,1252732
38,18,female,Belg,2,99,guess,loss,5,left,10,guess_start,461,space,0,0,822,12485,1253197
38,18,female,Belg,2,99,guess,loss,5,left,10,guess_choice,703,j,0,0,822,11777,1253905
38,18,female,Belg,2,99,guess,loss,5,left,10,guess_outcome,0,undefined,0,0,807,10217,1255465
38,18,female,Belg,2,99,ITC,loss,5,left,10,ITC_start,495,space,0,0,807,9720,1255962
38,18,female,Belg,2,99,ITC,loss,5,left,10,ITC_choice,735,j,0,0,807,8982,1256700
38,18,female,Belg,2,99,ITC,loss,5,left,10,ITC_wait,0,undefined,0,0,807,8978,1256704
38,18,female,Belg,2,99,ITC,loss,5,left,10,ITC_collect,113,k,0,0,807,8863,1256819
38,18,female,Belg,2,99,ITC,loss,5,left,10,ITC_outcome,0,undefined,0,0,817,7855,1257827
38,18,female,Belg,2,100,guess,loss,5,left,16,guess_start,437,space,0,0,817,7414,1258268
38,18,female,Belg,2,100,guess,loss,5,left,16,guess_choice,487,f,0,0,817,6922,1258760
38,18,female,Belg,2,100,guess,loss,5,left,16,guess_outcome,0,undefined,0,0,802,5366,1260316
38,18,female,Belg,2,100,ITC,loss,5,left,16,ITC_start,238,space,0,0,802,5125,1260557
38,18,female,Belg,2,100,ITC,loss,5,left,16,ITC_choice,511,j,0,0,802,4611,1261071
38,18,female,Belg,2,100,ITC,loss,5,left,16,ITC_wait,0,undefined,0,0,802,4608,1261074
38,18,female,Belg,2,100,ITC,loss,5,left,16,ITC_collect,162,k,0,0,802,4444,1261238
38,18,female,Belg,2,100,ITC,loss,5,left,16,ITC_outcome,0,undefined,0,0,818,3437,1262245
38,18,female,Belg,2,101,guess,neutral,5,left,2,guess_start,276,space,0,0,818,3157,1262525
38,18,female,Belg,2,101,guess,neutral,5,left,2,guess_choice,517,f,0,0,818,2635,1263047
38,18,female,Belg,2,101,guess,neutral,5,left,2,guess_outcome,0,undefined,0,0,818,1078,1264604
38,18,female,Belg,2,101,ITC,neutral,5,left,2,ITC_start,174,space,0,0,818,902,1264780
38,18,female,Belg,2,101,ITC,neutral,5,left,2,ITC_choice,0,undefined,0,0,818,-7,1265689
38,18,female,Belg,3,102,guess,win,5,right,2,guess_start,491,space,0,0,0,479507,1273042
38,18,female,Belg,3,102,guess,win,5,right,2,guess_choice,598,j,0,0,0,478904,1273645
38,18,female,Belg,3,102,guess,win,5,right,2,guess_outcome,0,undefined,0,0,20,477344,1275205
38,18,female,Belg,3,102,ITC,win,5,right,2,ITC_start,330,space,0,0,20,477012,1275537
38,18,female,Belg,3,102,ITC,win,5,right,2,ITC_choice,819,j,0,0,20,476190,1276359
38,18,female,Belg,3,102,ITC,win,5,right,2,ITC_wait,0,undefined,0,0,20,471183,1281366
38,18,female,Belg,3,102,ITC,win,5,right,2,ITC_collect,316,k,0,0,20,470864,1281685
38,18,female,Belg,3,102,ITC,win,5,right,2,ITC_outcome,0,undefined,0,0,40,469857,1282692
38,18,female,Belg,3,103,guess,win,5,right,3,guess_start,301,space,0,0,40,469551,1282998
38,18,female,Belg,3,103,guess,win,5,right,3,guess_choice,651,f,0,0,40,468895,1283654
38,18,female,Belg,3,103,guess,win,5,right,3,guess_outcome,0,undefined,0,0,60,467336,1285213
38,18,female,Belg,3,103,ITC,win,5,right,3,ITC_start,510,space,0,0,60,466823,1285726
38,18,female,Belg,3,103,ITC,win,5,right,3,ITC_choice,860,j,0,0,60,465960,1286589
38,18,female,Belg,3,103,ITC,win,5,right,3,ITC_wait,0,undefined,0,0,60,460952,1291597
38,18,female,Belg,3,103,ITC,win,5,right,3,ITC_collect,347,k,0,0,60,460602,1291947
38,18,female,Belg,3,103,ITC,win,5,right,3,ITC_outcome,0,undefined,0,0,80,459594,1292955
38,18,female,Belg,3,104,guess,neutral,5,right,14,guess_start,320,space,0,0,80,459270,1293279
38,18,female,Belg,3,104,guess,neutral,5,right,14,guess_choice,595,j,0,0,80,458670,1293879
38,18,female,Belg,3,104,guess,neutral,5,right,14,guess_outcome,0,undefined,0,0,80,457110,1295439
38,18,female,Belg,3,104,ITC,neutral,5,right,14,ITC_start,378,space,0,0,80,456729,1295820
38,18,female,Belg,3,104,ITC,neutral,5,right,14,ITC_choice,709,j,0,0,80,456017,1296532
38,18,female,Belg,3,104,ITC,neutral,5,right,14,ITC_wait,0,undefined,0,0,80,451011,1301538
38,18,female,Belg,3,104,ITC,neutral,5,right,14,ITC_collect,381,k,0,0,80,450626,1301923
38,18,female,Belg,3,104,ITC,neutral,5,right,14,ITC_outcome,0,undefined,0,0,100,449618,1302931
38,18,female,Belg,3,105,guess,neutral,5,right,3,guess_start,348,space,0,0,100,449267,1303282
38,18,female,Belg,3,105,guess,neutral,5,right,3,guess_choice,561,j,0,0,100,448701,1303848
38,18,female,Belg,3,105,guess,neutral,5,right,3,guess_outcome,0,undefined,0,0,100,447143,1305406
38,18,female,Belg,3,105,ITC,neutral,5,right,3,ITC_start,461,space,0,0,100,446679,1305870
38,18,female,Belg,3,105,ITC,neutral,5,right,3,ITC_choice,748,j,0,0,100,445928,1306621
38,18,female,Belg,3,105,ITC,neutral,5,right,3,ITC_wait,0,undefined,0,0,100,440923,1311626
38,18,female,Belg,3,105,ITC,neutral,5,right,3,ITC_collect,429,k,0,0,100,440490,1312059
38,18,female,Belg,3,105,ITC,neutral,5,right,3,ITC_outcome,0,undefined,0,0,120,439481,1313068
38,18,female,Belg,3,106,guess,neutral,5,left,7,guess_start,312,space,0,0,120,439165,1313384
38,18,female,Belg,3,106,guess,neutral,5,left,7,guess_choice,569,f,0,0,120,438592,1313957
38,18,female,Belg,3,106,guess,neutral,5,left,7,guess_outcome,0,undefined,0,0,120,437032,1315517
38,18,female,Belg,3,106,ITC,neutral,5,left,7,ITC_start,304,space,0,0,120,436725,1315824
38,18,female,Belg,3,106,ITC,neutral,5,left,7,ITC_choice,936,f,0,0,120,435786,1316763
38,18,female,Belg,3,106,ITC,neutral,5,left,7,ITC_wait,0,undefined,0,0,120,430782,1321767
38,18,female,Belg,3,106,ITC,neutral,5,left,7,ITC_collect,372,k,0,0,120,430406,1322143
38,18,female,Belg,3,106,ITC,neutral,5,left,7,ITC_outcome,0,undefined,0,0,140,429397,1323152
38,18,female,Belg,3,107,guess,win,5,right,6,guess_start,399,space,0,0,140,428994,1323555
38,18,female,Belg,3,107,guess,win,5,right,6,guess_choice,446,j,0,0,140,428543,1324006
38,18,female,Belg,3,107,guess,win,5,right,6,guess_outcome,0,undefined,0,0,160,426984,1325565
38,18,female,Belg,3,107,ITC,win,5,right,6,ITC_start,456,space,0,0,160,426525,1326024
38,18,female,Belg,3,107,ITC,win,5,right,6,ITC_choice,761,j,0,0,160,425761,1326788
38,18,female,Belg,3,107,ITC,win,5,right,6,ITC_wait,0,undefined,0,0,160,420755,1331794
38,18,female,Belg,3,107,ITC,win,5,right,6,ITC_collect,358,k,0,0,160,420394,1332155
38,18,female,Belg,3,107,ITC,win,5,right,6,ITC_outcome,0,undefined,0,0,180,419390,1333159
38,18,female,Belg,3,108,guess,neutral,5,right,6,guess_start,358,space,0,0,180,419028,1333521
38,18,female,Belg,3,108,guess,neutral,5,right,6,guess_choice,556,j,0,0,180,418468,1334081
38,18,female,Belg,3,108,guess,neutral,5,right,6,guess_outcome,0,undefined,0,0,180,416908,1335641
38,18,female,Belg,3,108,ITC,neutral,5,right,6,ITC_start,321,space,0,0,180,416584,1335965
38,18,female,Belg,3,108,ITC,neutral,5,right,6,ITC_choice,701,j,0,0,180,415879,1336670
38,18,female,Belg,3,108,ITC,neutral,5,right,6,ITC_wait,0,undefined,0,0,180,410872,1341677
38,18,female,Belg,3,108,ITC,neutral,5,right,6,ITC_collect,385,k,0,0,180,410483,1342066
38,18,female,Belg,3,108,ITC,neutral,5,right,6,ITC_outcome,0,undefined,0,0,200,409475,1343074
38,18,female,Belg,3,109,guess,win,5,left,7,guess_start,376,space,0,0,200,409095,1343454
38,18,female,Belg,3,109,guess,win,5,left,7,guess_choice,459,j,0,0,200,408632,1343917
38,18,female,Belg,3,109,guess,win,5,left,7,guess_outcome,0,undefined,0,0,220,407075,1345474
38,18,female,Belg,3,109,ITC,win,5,left,7,ITC_start,384,space,0,0,220,406688,1345861
38,18,female,Belg,3,109,ITC,win,5,left,7,ITC_choice,1099,f,0,0,220,405586,1346963
38,18,female,Belg,3,109,ITC,win,5,left,7,ITC_wait,0,undefined,0,0,220,400579,1351970
38,18,female,Belg,3,109,ITC,win,5,left,7,ITC_collect,403,k,0,0,220,400173,1352376
38,18,female,Belg,3,109,ITC,win,5,left,7,ITC_outcome,0,undefined,0,0,240,399164,1353385
38,18,female,Belg,3,110,guess,loss,5,left,9,guess_start,397,space,0,0,240,398764,1353785
38,18,female,Belg,3,110,guess,loss,5,left,9,guess_choice,567,j,0,0,240,398192,1354357
38,18,female,Belg,3,110,guess,loss,5,left,9,guess_outcome,0,undefined,0,0,225,396633,1355916
38,18,female,Belg,3,110,ITC,loss,5,left,9,ITC_start,333,space,0,0,225,396297,1356252
38,18,female,Belg,3,110,ITC,loss,5,left,9,ITC_choice,1482,j,0,0,225,394812,1357737
38,18,female,Belg,3,110,ITC,loss,5,left,9,ITC_wait,0,undefined,0,0,225,394808,1357741
38,18,female,Belg,3,110,ITC,loss,5,left,9,ITC_collect,510,k,0,0,225,394296,1358253
38,18,female,Belg,3,110,ITC,loss,5,left,9,ITC_outcome,0,undefined,0,0,234,393292,1359257
38,18,female,Belg,3,111,guess,win,10,left,4,guess_start,575,space,0,0,234,392713,1359836
38,18,female,Belg,3,111,guess,win,10,left,4,guess_choice,386,j,0,0,234,392323,1360226
38,18,female,Belg,3,111,guess,win,10,left,4,guess_outcome,0,undefined,0,0,254,390766,1361783
38,18,female,Belg,3,111,ITC,win,10,left,4,ITC_start,435,space,0,0,254,390328,1362221
38,18,female,Belg,3,111,ITC,win,10,left,4,ITC_choice,831,f,0,0,254,389494,1363055
38,18,female,Belg,3,111,ITC,win,10,left,4,ITC_wait,0,undefined,0,0,254,379486,1373063
38,18,female,Belg,3,111,ITC,win,10,left,4,ITC_collect,429,k,0,0,254,379053,1373496
38,18,female,Belg,3,111,ITC,win,10,left,4,ITC_outcome,0,undefined,0,0,274,378045,1374504
38,18,female,Belg,3,112,guess,win,10,left,5,guess_start,274,space,0,0,274,377767,1374782
38,18,female,Belg,3,112,guess,win,10,left,5,guess_choice,837,f,0,0,274,376926,1375623
38,18,female,Belg,3,112,guess,win,10,left,5,guess_outcome,0,undefined,0,0,294,375371,1377178
38,18,female,Belg,3,112,ITC,win,10,left,5,ITC_start,317,space,0,0,294,375051,1377498
38,18,female,Belg,3,112,ITC,win,10,left,5,ITC_choice,569,j,0,0,294,374479,1378070
38,18,female,Belg,3,112,ITC,win,10,left,5,ITC_wait,0,undefined,0,0,294,374475,1378074
38,18,female,Belg,3,112,ITC,win,10,left,5,ITC_collect,292,k,0,0,294,374181,1378368
38,18,female,Belg,3,112,ITC,win,10,left,5,ITC_outcome,0,undefined,0,0,299,373177,1379372
38,18,female,Belg,3,113,guess,win,5,right,8,guess_start,457,space,0,0,299,372716,1379833
38,18,female,Belg,3,113,guess,win,5,right,8,guess_choice,498,f,0,0,299,372214,1380335
38,18,female,Belg,3,113,guess,win,5,right,8,guess_outcome,0,undefined,0,0,319,370657,1381892
38,18,female,Belg,3,113,ITC,win,5,right,8,ITC_start,250,space,0,0,319,370404,1382145
38,18,female,Belg,3,113,ITC,win,5,right,8,ITC_choice,615,j,0,0,319,369785,1382764
38,18,female,Belg,3,113,ITC,win,5,right,8,ITC_wait,0,undefined,0,0,319,364776,1387773
38,18,female,Belg,3,113,ITC,win,5,right,8,ITC_collect,484,k,0,0,319,364289,1388260
38,18,female,Belg,3,113,ITC,win,5,right,8,ITC_outcome,0,undefined,0,0,339,363281,1389268
38,18,female,Belg,3,114,guess,loss,5,left,1,guess_start,190,space,0,0,339,363088,1389461
38,18,female,Belg,3,114,guess,loss,5,left,1,guess_choice,570,f,0,0,339,362513,1390036
38,18,female,Belg,3,114,guess,loss,5,left,1,guess_outcome,0,undefined,0,0,324,360956,1391593
38,18,female,Belg,3,114,ITC,loss,5,left,1,ITC_start,484,space,0,0,324,360469,1392080
38,18,female,Belg,3,114,ITC,loss,5,left,1,ITC_choice,822,j,0,0,324,359644,1392905
38,18,female,Belg,3,114,ITC,loss,5,left,1,ITC_wait,0,undefined,0,0,324,359640,1392909
38,18,female,Belg,3,114,ITC,loss,5,left,1,ITC_collect,133,k,0,0,324,359506,1393043
38,18,female,Belg,3,114,ITC,loss,5,left,1,ITC_outcome,0,undefined,0,0,325,358498,1394051
38,18,female,Belg,3,115,guess,neutral,5,left,5,guess_start,64,space,0,0,325,358430,1394119
38,18,female,Belg,3,115,guess,neutral,5,left,5,guess_choice,530,j,0,0,325,357895,1394654
38,18,female,Belg,3,115,guess,neutral,5,left,5,guess_outcome,0,undefined,0,0,325,356335,1396214
38,18,female,Belg,3,115,ITC,neutral,5,left,5,ITC_start,259,space,0,0,325,356074,1396475
38,18,female,Belg,3,115,ITC,neutral,5,left,5,ITC_choice,865,j,0,0,325,355205,1397344
38,18,female,Belg,3,115,ITC,neutral,5,left,5,ITC_wait,0,undefined,0,0,325,355200,1397349
38,18,female,Belg,3,115,ITC,neutral,5,left,5,ITC_collect,111,k,0,0,325,355087,1397462
38,18,female,Belg,3,115,ITC,neutral,5,left,5,ITC_outcome,0,undefined,0,0,330,354083,1398466
38,18,female,Belg,3,116,guess,neutral,5,left,4,guess_start,419,space,0,0,330,353660,1398889
38,18,female,Belg,3,116,guess,neutral,5,left,4,guess_choice,702,j,0,0,330,352953,1399596
38,18,female,Belg,3,116,guess,neutral,5,left,4,guess_outcome,0,undefined,0,0,330,351394,1401155
38,18,female,Belg,3,116,ITC,neutral,5,left,4,ITC_start,111,space,0,0,330,351279,1401270
38,18,female,Belg,3,116,ITC,neutral,5,left,4,ITC_choice,790,j,0,0,330,350487,1402062
38,18,female,Belg,3,116,ITC,neutral,5,left,4,ITC_wait,0,undefined,0,0,330,350483,1402066
38,18,female,Belg,3,116,ITC,neutral,5,left,4,ITC_collect,127,k,0,0,330,350354,1402195
38,18,female,Belg,3,116,ITC,neutral,5,left,4,ITC_outcome,0,undefined,0,0,334,349345,1403204
38,18,female,Belg,3,117,guess,win,5,left,9,guess_start,92,space,0,0,334,349250,1403299
38,18,female,Belg,3,117,guess,win,5,left,9,guess_choice,778,f,0,0,334,348466,1404083
38,18,female,Belg,3,117,guess,win,5,left,9,guess_outcome,0,undefined,0,0,354,346907,1405642
38,18,female,Belg,3,117,ITC,win,5,left,9,ITC_start,473,space,0,0,354,346430,1406119
38,18,female,Belg,3,117,ITC,win,5,left,9,ITC_wait,0,undefined,0,0,354,345684,1406865
38,18,female,Belg,3,117,ITC,win,5,left,9,ITC_choice,739,j,0,0,354,345689,1406860
38,18,female,Belg,3,117,ITC,win,5,left,9,ITC_collect,131,k,0,0,354,345551,1406998
38,18,female,Belg,3,117,ITC,win,5,left,9,ITC_outcome,0,undefined,0,0,363,344543,1408006
38,18,female,Belg,3,118,guess,loss,5,left,3,guess_start,316,space,0,0,363,344224,1408325
38,18,female,Belg,3,118,guess,loss,5,left,3,guess_choice,646,f,0,0,363,343573,1408976
38,18,female,Belg,3,118,guess,loss,5,left,3,guess_outcome,0,undefined,0,0,348,342014,1410535
38,18,female,Belg,3,118,ITC,loss,5,left,3,ITC_start,365,space,0,0,348,341646,1410903
38,18,female,Belg,3,118,ITC,loss,5,left,3,ITC_choice,602,f,0,0,348,341041,1411508
38,18,female,Belg,3,118,ITC,loss,5,left,3,ITC_wait,0,undefined,0,0,348,336033,1416516
38,18,female,Belg,3,118,ITC,loss,5,left,3,ITC_collect,1080,k,0,0,348,334949,1417600
38,18,female,Belg,3,118,ITC,loss,5,left,3,ITC_outcome,0,undefined,0,0,368,333944,1418605
38,18,female,Belg,3,119,guess,neutral,5,right,10,guess_start,33,space,0,0,368,333907,1418642
38,18,female,Belg,3,119,guess,neutral,5,right,10,guess_choice,610,j,0,0,368,333293,1419256
38,18,female,Belg,3,119,guess,neutral,5,right,10,guess_outcome,0,undefined,0,0,368,331734,1420815
38,18,female,Belg,3,119,ITC,neutral,5,right,10,ITC_start,1025,space,0,0,368,330706,1421843
38,18,female,Belg,3,119,ITC,neutral,5,right,10,ITC_choice,677,j,0,0,368,330026,1422523
38,18,female,Belg,3,119,ITC,neutral,5,right,10,ITC_wait,0,undefined,0,0,368,325017,1427532
38,18,female,Belg,3,119,ITC,neutral,5,right,10,ITC_collect,453,k,0,0,368,324561,1427988
38,18,female,Belg,3,119,ITC,neutral,5,right,10,ITC_outcome,0,undefined,0,0,388,323553,1428996
38,18,female,Belg,3,120,guess,loss,5,right,14,guess_start,392,space,0,0,388,323157,1429392
38,18,female,Belg,3,120,guess,loss,5,right,14,guess_choice,428,j,0,0,388,322725,1429824
38,18,female,Belg,3,120,guess,loss,5,right,14,guess_outcome,0,undefined,0,0,373,321167,1431382
38,18,female,Belg,3,120,ITC,loss,5,right,14,ITC_start,456,space,0,0,373,320707,1431842
38,18,female,Belg,3,120,ITC,loss,5,right,14,ITC_choice,1258,f,0,0,373,319446,1433103
38,18,female,Belg,3,120,ITC,loss,5,right,14,ITC_wait,0,undefined,0,0,373,319442,1433107
38,18,female,Belg,3,120,ITC,loss,5,right,14,ITC_collect,258,k,0,0,373,319183,1433366
38,18,female,Belg,3,120,ITC,loss,5,right,14,ITC_outcome,0,undefined,0,0,387,318175,1434374
38,18,female,Belg,3,121,guess,loss,5,right,4,guess_start,341,space,0,0,387,317830,1434719
38,18,female,Belg,3,121,guess,loss,5,right,4,guess_choice,473,j,0,0,387,317353,1435196
38,18,female,Belg,3,121,guess,loss,5,right,4,guess_outcome,0,undefined,0,0,372,315795,1436754
38,18,female,Belg,3,121,ITC,loss,5,right,4,ITC_start,455,space,0,0,372,315337,1437212
38,18,female,Belg,3,121,ITC,loss,5,right,4,ITC_choice,695,f,0,0,372,314639,1437910
38,18,female,Belg,3,121,ITC,loss,5,right,4,ITC_wait,0,undefined,0,0,372,314635,1437914
38,18,female,Belg,3,121,ITC,loss,5,right,4,ITC_collect,207,k,0,0,372,314426,1438123
38,18,female,Belg,3,121,ITC,loss,5,right,4,ITC_outcome,0,undefined,0,0,376,313419,1439130
38,18,female,Belg,3,122,guess,win,5,left,5,guess_start,67,space,0,0,376,313348,1439201
38,18,female,Belg,3,122,guess,win,5,left,5,guess_choice,621,f,0,0,376,312723,1439826
38,18,female,Belg,3,122,guess,win,5,left,5,guess_outcome,0,undefined,0,0,396,311168,1441381
38,18,female,Belg,3,122,ITC,win,5,left,5,ITC_start,366,space,0,0,396,310799,1441750
38,18,female,Belg,3,122,ITC,win,5,left,5,ITC_choice,843,j,0,0,396,309952,1442597
38,18,female,Belg,3,122,ITC,win,5,left,5,ITC_wait,0,undefined,0,0,396,309948,1442601
38,18,female,Belg,3,122,ITC,win,5,left,5,ITC_collect,230,k,0,0,396,309717,1442832
38,18,female,Belg,3,122,ITC,win,5,left,5,ITC_outcome,0,undefined,0,0,401,308711,1443838
38,18,female,Belg,3,123,guess,win,5,left,14,guess_start,152,space,0,0,401,308555,1443994
38,18,female,Belg,3,123,guess,win,5,left,14,guess_choice,543,f,0,0,401,308008,1444541
38,18,female,Belg,3,123,guess,win,5,left,14,guess_outcome,0,undefined,0,0,421,306449,1446100
38,18,female,Belg,3,123,ITC,win,5,left,14,ITC_start,343,space,0,0,421,306103,1446446
38,18,female,Belg,3,123,ITC,win,5,left,14,ITC_choice,691,j,0,0,421,305409,1447140
38,18,female,Belg,3,123,ITC,win,5,left,14,ITC_wait,0,undefined,0,0,421,305404,1447145
38,18,female,Belg,3,123,ITC,win,5,left,14,ITC_collect,154,k,0,0,421,305248,1447301
38,18,female,Belg,3,123,ITC,win,5,left,14,ITC_outcome,0,undefined,0,0,435,304240,1448309
38,18,female,Belg,3,124,guess,neutral,10,right,8,guess_start,285,space,0,0,435,303952,1448597
38,18,female,Belg,3,124,guess,neutral,10,right,8,guess_choice,763,j,0,0,435,303186,1449363
38,18,female,Belg,3,124,guess,neutral,10,right,8,guess_outcome,0,undefined,0,0,435,301627,1450922
38,18,female,Belg,3,124,ITC,neutral,10,right,8,ITC_start,337,space,0,0,435,301287,1451262
38,18,female,Belg,3,124,ITC,neutral,10,right,8,ITC_choice,902,f,0,0,435,300382,1452167
38,18,female,Belg,3,124,ITC,neutral,10,right,8,ITC_wait,0,undefined,0,0,435,300378,1452171
38,18,female,Belg,3,124,ITC,neutral,10,right,8,ITC_collect,314,k,0,0,435,300062,1452487
38,18,female,Belg,3,124,ITC,neutral,10,right,8,ITC_outcome,0,undefined,0,0,443,299054,1453495
38,18,female,Belg,3,125,guess,loss,10,right,8,guess_start,388,space,0,0,443,298662,1453887
38,18,female,Belg,3,125,guess,loss,10,right,8,guess_choice,395,j,0,0,443,298262,1454287
38,18,female,Belg,3,125,guess,loss,10,right,8,guess_outcome,0,undefined,0,0,428,296703,1455846
38,18,female,Belg,3,125,ITC,loss,10,right,8,ITC_start,363,space,0,0,428,296337,1456212
38,18,female,Belg,3,125,ITC,loss,10,right,8,ITC_choice,660,f,0,0,428,295675,1456874
38,18,female,Belg,3,125,ITC,loss,10,right,8,ITC_wait,0,undefined,0,0,428,295671,1456878
38,18,female,Belg,3,125,ITC,loss,10,right,8,ITC_collect,172,k,0,0,428,295498,1457051
38,18,female,Belg,3,125,ITC,loss,10,right,8,ITC_outcome,0,undefined,0,0,436,294493,1458056
38,18,female,Belg,3,126,guess,neutral,5,right,12,guess_start,405,space,0,0,436,294086,1458463
38,18,female,Belg,3,126,guess,neutral,5,right,12,guess_choice,496,j,0,0,436,293585,1458964
38,18,female,Belg,3,126,guess,neutral,5,right,12,guess_outcome,0,undefined,0,0,436,292026,1460523
38,18,female,Belg,3,126,ITC,neutral,5,right,12,ITC_start,324,space,0,0,436,291699,1460850
38,18,female,Belg,3,126,ITC,neutral,5,right,12,ITC_wait,0,undefined,0,0,436,290941,1461608
38,18,female,Belg,3,126,ITC,neutral,5,right,12,ITC_choice,751,f,0,0,436,290945,1461604
38,18,female,Belg,3,126,ITC,neutral,5,right,12,ITC_collect,210,k,0,0,436,290729,1461820
38,18,female,Belg,3,126,ITC,neutral,5,right,12,ITC_outcome,0,undefined,0,0,448,289723,1462826
38,18,female,Belg,3,127,guess,loss,10,right,1,guess_start,306,space,0,0,448,289414,1463135
38,18,female,Belg,3,127,guess,loss,10,right,1,guess_choice,423,j,0,0,448,288987,1463562
38,18,female,Belg,3,127,guess,loss,10,right,1,guess_outcome,0,undefined,0,0,433,287427,1465122
38,18,female,Belg,3,127,ITC,loss,10,right,1,ITC_start,443,space,0,0,433,286981,1465568
38,18,female,Belg,3,127,ITC,loss,10,right,1,ITC_wait,0,undefined,0,0,433,286278,1466271
38,18,female,Belg,3,127,ITC,loss,10,right,1,ITC_choice,696,f,0,0,433,286282,1466267
38,18,female,Belg,3,127,ITC,loss,10,right,1,ITC_collect,150,k,0,0,433,286127,1466422
38,18,female,Belg,3,127,ITC,loss,10,right,1,ITC_outcome,0,undefined,0,0,434,285122,1467427
38,18,female,Belg,3,128,guess,loss,5,right,15,guess_start,118,space,0,0,434,285000,1467549
38,18,female,Belg,3,128,guess,loss,5,right,15,guess_choice,513,j,0,0,434,284483,1468066
38,18,female,Belg,3,128,guess,loss,5,right,15,guess_outcome,0,undefined,0,0,419,282925,1469624
38,18,female,Belg,3,128,ITC,loss,5,right,15,ITC_start,46,space,0,0,419,282875,1469674
38,18,female,Belg,3,128,ITC,loss,5,right,15,ITC_wait,0,undefined,0,0,419,281947,1470602
38,18,female,Belg,3,128,ITC,loss,5,right,15,ITC_choice,923,f,0,0,419,281950,1470599
38,18,female,Belg,3,128,ITC,loss,5,right,15,ITC_collect,175,k,0,0,419,281770,1470779
38,18,female,Belg,3,128,ITC,loss,5,right,15,ITC_outcome,0,undefined,0,0,434,280762,1471787
38,18,female,Belg,3,129,guess,win,10,right,1,guess_start,392,space,0,0,434,280366,1472183
38,18,female,Belg,3,129,guess,win,10,right,1,guess_choice,764,f,0,0,434,279597,1472952
38,18,female,Belg,3,129,guess,win,10,right,1,guess_outcome,0,undefined,0,0,454,278042,1474507
38,18,female,Belg,3,129,ITC,win,10,right,1,ITC_start,484,space,0,0,454,277555,1474994
38,18,female,Belg,3,129,ITC,win,10,right,1,ITC_choice,713,f,0,0,454,276839,1475710
38,18,female,Belg,3,129,ITC,win,10,right,1,ITC_wait,0,undefined,0,0,454,276836,1475713
38,18,female,Belg,3,129,ITC,win,10,right,1,ITC_collect,161,k,0,0,454,276674,1475875
38,18,female,Belg,3,129,ITC,win,10,right,1,ITC_outcome,0,undefined,0,0,455,275667,1476882
38,18,female,Belg,3,130,guess,win,5,right,16,guess_start,258,space,0,0,455,275405,1477144
38,18,female,Belg,3,130,guess,win,5,right,16,guess_choice,560,j,0,0,455,274840,1477709
38,18,female,Belg,3,130,guess,win,5,right,16,guess_outcome,0,undefined,0,0,475,273282,1479267
38,18,female,Belg,3,130,ITC,win,5,right,16,ITC_start,390,space,0,0,475,272889,1479660
38,18,female,Belg,3,130,ITC,win,5,right,16,ITC_wait,0,undefined,0,0,475,271983,1480566
38,18,female,Belg,3,130,ITC,win,5,right,16,ITC_choice,898,f,0,0,475,271989,1480560
38,18,female,Belg,3,130,ITC,win,5,right,16,ITC_collect,157,k,0,0,475,271825,1480724
38,18,female,Belg,3,130,ITC,win,5,right,16,ITC_outcome,0,undefined,0,0,491,270820,1481729
38,18,female,Belg,3,131,guess,win,5,left,1,guess_start,2,space,0,0,491,270814,1481735
38,18,female,Belg,3,131,guess,win,5,left,1,guess_choice,609,j,0,0,491,270201,1482348
38,18,female,Belg,3,131,guess,win,5,left,1,guess_outcome,0,undefined,0,0,511,268646,1483903
38,18,female,Belg,3,131,ITC,win,5,left,1,ITC_start,430,space,0,0,511,268212,1484337
38,18,female,Belg,3,131,ITC,win,5,left,1,ITC_choice,1030,f,0,0,511,267180,1485369
38,18,female,Belg,3,131,ITC,win,5,left,1,ITC_wait,0,undefined,0,0,511,262171,1490378
38,18,female,Belg,3,131,ITC,win,5,left,1,ITC_collect,376,k,0,0,511,261792,1490757
38,18,female,Belg,3,131,ITC,win,5,left,1,ITC_outcome,0,undefined,0,0,531,260783,1491766
38,18,female,Belg,3,132,guess,loss,5,left,5,guess_start,105,space,0,0,531,260674,1491875
38,18,female,Belg,3,132,guess,loss,5,left,5,guess_choice,453,j,0,0,531,260217,1492332
38,18,female,Belg,3,132,guess,loss,5,left,5,guess_outcome,0,undefined,0,0,516,258658,1493891
38,18,female,Belg,3,132,ITC,loss,5,left,5,ITC_start,469,space,0,0,516,258186,1494363
38,18,female,Belg,3,132,ITC,loss,5,left,5,ITC_choice,722,j,0,0,516,257461,1495088
38,18,female,Belg,3,132,ITC,loss,5,left,5,ITC_wait,0,undefined,0,0,516,257456,1495093
38,18,female,Belg,3,132,ITC,loss,5,left,5,ITC_collect,142,k,0,0,516,257313,1495236
38,18,female,Belg,3,132,ITC,loss,5,left,5,ITC_outcome,0,undefined,0,0,521,256305,1496244
38,18,female,Belg,3,133,guess,win,5,right,10,guess_start,297,space,0,0,521,256005,1496544
38,18,female,Belg,3,133,guess,win,5,right,10,guess_choice,568,j,0,0,521,255432,1497117
38,18,female,Belg,3,133,guess,win,5,right,10,guess_outcome,0,undefined,0,0,541,253875,1498674
38,18,female,Belg,3,133,ITC,win,5,right,10,ITC_start,271,space,0,0,541,253601,1498948
38,18,female,Belg,3,133,ITC,win,5,right,10,ITC_wait,0,undefined,0,0,541,252910,1499639
38,18,female,Belg,3,133,ITC,win,5,right,10,ITC_choice,683,f,0,0,541,252915,1499634
38,18,female,Belg,3,133,ITC,win,5,right,10,ITC_collect,157,k,0,0,541,252751,1499798
38,18,female,Belg,3,133,ITC,win,5,right,10,ITC_outcome,0,undefined,0,0,551,251746,1500803
38,18,female,Belg,3,134,guess,loss,5,left,6,guess_start,245,space,0,0,551,251497,1501052
38,18,female,Belg,3,134,guess,loss,5,left,6,guess_choice,456,j,0,0,551,251036,1501513
38,18,female,Belg,3,134,guess,loss,5,left,6,guess_outcome,0,undefined,0,0,536,249476,1503073
38,18,female,Belg,3,134,ITC,loss,5,left,6,ITC_start,204,space,0,0,536,249268,1503281
38,18,female,Belg,3,134,ITC,loss,5,left,6,ITC_wait,0,undefined,0,0,536,248653,1503896
38,18,female,Belg,3,134,ITC,loss,5,left,6,ITC_choice,608,j,0,0,536,248657,1503892
38,18,female,Belg,3,134,ITC,loss,5,left,6,ITC_collect,153,k,0,0,536,248498,1504051
38,18,female,Belg,3,134,ITC,loss,5,left,6,ITC_outcome,0,undefined,0,0,542,247491,1505058
38,18,female,Belg,3,135,guess,loss,5,right,8,guess_start,173,space,0,0,542,247314,1505235
38,18,female,Belg,3,135,guess,loss,5,right,8,guess_choice,547,f,0,0,542,246763,1505786
38,18,female,Belg,3,135,guess,loss,5,right,8,guess_outcome,0,undefined,0,0,527,245203,1507346
38,18,female,Belg,3,135,ITC,loss,5,right,8,ITC_start,377,space,0,0,527,244823,1507726
38,18,female,Belg,3,135,ITC,loss,5,right,8,ITC_choice,628,f,0,0,527,244192,1508357
38,18,female,Belg,3,135,ITC,loss,5,right,8,ITC_wait,0,undefined,0,0,527,244188,1508361
38,18,female,Belg,3,135,ITC,loss,5,right,8,ITC_collect,122,k,0,0,527,244064,1508485
38,18,female,Belg,3,135,ITC,loss,5,right,8,ITC_outcome,0,undefined,0,0,535,243056,1509493
38,18,female,Belg,3,136,guess,win,10,right,6,guess_start,259,space,0,0,535,242793,1509756
38,18,female,Belg,3,136,guess,win,10,right,6,guess_choice,592,f,0,0,535,242197,1510352
38,18,female,Belg,3,136,guess,win,10,right,6,guess_outcome,0,undefined,0,0,555,240642,1511907
38,18,female,Belg,3,136,ITC,win,10,right,6,ITC_start,895,space,0,0,555,239744,1512805
38,18,female,Belg,3,136,ITC,win,10,right,6,ITC_choice,734,f,0,0,555,239007,1513542
38,18,female,Belg,3,136,ITC,win,10,right,6,ITC_wait,0,undefined,0,0,555,239003,1513546
38,18,female,Belg,3,136,ITC,win,10,right,6,ITC_collect,154,k,0,0,555,238847,1513702
38,18,female,Belg,3,136,ITC,win,10,right,6,ITC_outcome,0,undefined,0,0,561,237839,1514710
38,18,female,Belg,3,137,guess,neutral,5,left,13,guess_start,78,space,0,0,561,237758,1514791
38,18,female,Belg,3,137,guess,neutral,5,left,13,guess_choice,872,f,0,0,561,236881,1515668
38,18,female,Belg,3,137,guess,neutral,5,left,13,guess_outcome,0,undefined,0,0,561,235325,1517224
38,18,female,Belg,3,137,ITC,neutral,5,left,13,ITC_start,494,space,0,0,561,234828,1517721
38,18,female,Belg,3,137,ITC,neutral,5,left,13,ITC_wait,0,undefined,0,0,561,234187,1518362
38,18,female,Belg,3,137,ITC,neutral,5,left,13,ITC_choice,634,j,0,0,561,234191,1518358
38,18,female,Belg,3,137,ITC,neutral,5,left,13,ITC_collect,147,k,0,0,561,234038,1518511
38,18,female,Belg,3,137,ITC,neutral,5,left,13,ITC_outcome,0,undefined,0,0,574,233033,1519516
38,18,female,Belg,3,138,guess,loss,10,left,3,guess_start,450,space,0,0,574,232578,1519971
38,18,female,Belg,3,138,guess,loss,10,left,3,guess_choice,576,j,0,0,574,231999,1520550
38,18,female,Belg,3,138,guess,loss,10,left,3,guess_outcome,0,undefined,0,0,559,230439,1522110
38,18,female,Belg,3,138,ITC,loss,10,left,3,ITC_start,342,space,0,0,559,230094,1522455
38,18,female,Belg,3,138,ITC,loss,10,left,3,ITC_wait,0,undefined,0,0,559,229539,1523010
38,18,female,Belg,3,138,ITC,loss,10,left,3,ITC_choice,548,j,0,0,559,229543,1523006
38,18,female,Belg,3,138,ITC,loss,10,left,3,ITC_collect,128,k,0,0,559,229409,1523140
38,18,female,Belg,3,138,ITC,loss,10,left,3,ITC_outcome,0,undefined,0,0,562,228404,1524145
38,18,female,Belg,3,139,guess,neutral,5,left,8,guess_start,389,space,0,0,562,228012,1524537
38,18,female,Belg,3,139,guess,neutral,5,left,8,guess_choice,833,j,0,0,562,227175,1525374
38,18,female,Belg,3,139,guess,neutral,5,left,8,guess_outcome,0,undefined,0,0,562,225618,1526931
38,18,female,Belg,3,139,ITC,neutral,5,left,8,ITC_start,368,space,0,0,562,225247,1527302
38,18,female,Belg,3,139,ITC,neutral,5,left,8,ITC_wait,0,undefined,0,0,562,224718,1527831
38,18,female,Belg,3,139,ITC,neutral,5,left,8,ITC_choice,521,j,0,0,562,224722,1527827
38,18,female,Belg,3,139,ITC,neutral,5,left,8,ITC_collect,277,k,0,0,562,224439,1528110
38,18,female,Belg,3,139,ITC,neutral,5,left,8,ITC_outcome,0,undefined,0,0,570,223430,1529119
38,18,female,Belg,3,140,guess,neutral,10,right,2,guess_start,241,space,0,0,570,223185,1529364
38,18,female,Belg,3,140,guess,neutral,10,right,2,guess_choice,605,f,0,0,570,222576,1529973
38,18,female,Belg,3,140,guess,neutral,10,right,2,guess_outcome,0,undefined,0,0,570,221020,1531529
38,18,female,Belg,3,140,ITC,neutral,10,right,2,ITC_start,80,space,0,0,570,220937,1531612
38,18,female,Belg,3,140,ITC,neutral,10,right,2,ITC_choice,780,j,0,0,570,220155,1532394
38,18,female,Belg,3,140,ITC,neutral,10,right,2,ITC_wait,0,undefined,0,0,570,210147,1542402
38,18,female,Belg,3,140,ITC,neutral,10,right,2,ITC_collect,360,k,0,0,570,209784,1542765
38,18,female,Belg,3,140,ITC,neutral,10,right,2,ITC_outcome,0,undefined,0,0,590,208778,1543771
38,18,female,Belg,3,141,guess,loss,5,left,7,guess_start,739,space,0,0,590,208035,1544514
38,18,female,Belg,3,141,guess,loss,5,left,7,guess_choice,575,f,0,0,590,207456,1545093
38,18,female,Belg,3,141,guess,loss,5,left,7,guess_outcome,0,undefined,0,0,575,205898,1546651
38,18,female,Belg,3,141,ITC,loss,5,left,7,ITC_start,535,space,0,0,575,205359,1547190
38,18,female,Belg,3,141,ITC,loss,5,left,7,ITC_choice,1116,j,0,0,575,204240,1548309
38,18,female,Belg,3,141,ITC,loss,5,left,7,ITC_wait,0,undefined,0,0,575,204235,1548314
38,18,female,Belg,3,141,ITC,loss,5,left,7,ITC_collect,958,k,0,0,575,203275,1549274
38,18,female,Belg,3,141,ITC,loss,5,left,7,ITC_outcome,0,undefined,0,0,582,202270,1550279
38,18,female,Belg,3,142,guess,neutral,10,right,6,guess_start,346,space,0,0,582,201921,1550628
38,18,female,Belg,3,142,guess,neutral,10,right,6,guess_choice,557,j,0,0,582,201359,1551190
38,18,female,Belg,3,142,guess,neutral,10,right,6,guess_outcome,0,undefined,0,0,582,199801,1552748
38,18,female,Belg,3,142,ITC,neutral,10,right,6,ITC_start,618,space,0,0,582,199180,1553369
38,18,female,Belg,3,142,ITC,neutral,10,right,6,ITC_choice,634,f,0,0,582,198543,1554006
38,18,female,Belg,3,142,ITC,neutral,10,right,6,ITC_wait,0,undefined,0,0,582,198539,1554010
38,18,female,Belg,3,142,ITC,neutral,10,right,6,ITC_collect,243,k,0,0,582,198295,1554254
38,18,female,Belg,3,142,ITC,neutral,10,right,6,ITC_outcome,0,undefined,0,0,588,197287,1555262
38,18,female,Belg,3,143,guess,win,5,left,4,guess_start,296,space,0,0,588,196987,1555562
38,18,female,Belg,3,143,guess,win,5,left,4,guess_choice,851,j,0,0,588,196132,1556417
38,18,female,Belg,3,143,guess,win,5,left,4,guess_outcome,0,undefined,0,0,608,194576,1557973
38,18,female,Belg,3,143,ITC,win,5,left,4,ITC_start,603,space,0,0,608,193969,1558580
38,18,female,Belg,3,143,ITC,win,5,left,4,ITC_wait,0,undefined,0,0,608,193333,1559216
38,18,female,Belg,3,143,ITC,win,5,left,4,ITC_choice,629,j,0,0,608,193337,1559212
38,18,female,Belg,3,143,ITC,win,5,left,4,ITC_collect,213,k,0,0,608,193118,1559431
38,18,female,Belg,3,143,ITC,win,5,left,4,ITC_outcome,0,undefined,0,0,612,192114,1560435
38,18,female,Belg,3,144,guess,win,5,right,11,guess_start,207,space,0,0,612,191904,1560645
38,18,female,Belg,3,144,guess,win,5,right,11,guess_choice,722,f,0,0,612,191177,1561372
38,18,female,Belg,3,144,guess,win,5,right,11,guess_outcome,0,undefined,0,0,632,189622,1562927
38,18,female,Belg,3,144,ITC,win,5,right,11,ITC_start,455,space,0,0,632,189163,1563386
38,18,female,Belg,3,144,ITC,win,5,right,11,ITC_choice,924,f,0,0,632,188236,1564313
38,18,female,Belg,3,144,ITC,win,5,right,11,ITC_wait,0,undefined,0,0,632,188232,1564317
38,18,female,Belg,3,144,ITC,win,5,right,11,ITC_collect,164,k,0,0,632,188067,1564482
