subjectID,age,gender,nationality,block_number,trial_number,trial_type,guess_outcome,delay_time,delay_pos,immediate_amount,stage,respRT,respKey,blur_count,focus_count,total_points,remaining_duration,time_elapsed
25,24,female,Netherlands,1,1,guess,neutral,10,right,2,guess_start,2998,space,0,0,0,477000,298569
25,24,female,Netherlands,1,1,guess,neutral,10,right,2,guess_choice,1497,j,0,0,0,475497,300072
25,24,female,Netherlands,1,1,guess,neutral,10,right,2,guess_outcome,0,undefined,0,0,0,473938,301631
25,24,female,Netherlands,1,1,ITC,neutral,10,right,2,ITC_start,1591,space,0,0,0,472345,303224
25,24,female,Netherlands,1,1,ITC,neutral,10,right,2,ITC_choice,1575,j,0,0,0,470767,304802
25,24,female,Netherlands,1,1,ITC,neutral,10,right,2,ITC_wait,0,undefined,0,0,0,460760,314809
25,24,female,Netherlands,1,1,ITC,neutral,10,right,2,ITC_collect,1966,k,0,0,0,458791,316778
25,24,female,Netherlands,1,1,ITC,neutral,10,right,2,ITC_outcome,0,undefined,0,0,20,457786,317783
25,24,female,Netherlands,1,2,guess,neutral,5,right,12,guess_start,2473,space,0,0,20,455309,320260
25,24,female,Netherlands,1,2,guess,neutral,5,right,12,guess_choice,923,f,0,0,20,454381,321188
25,24,female,Netherlands,1,2,guess,neutral,5,right,12,guess_outcome,0,undefined,0,0,20,452825,322744
25,24,female,Netherlands,1,2,ITC,neutral,5,right,12,ITC_start,2306,space,0,0,20,450517,325052
25,24,female,Netherlands,1,2,ITC,neutral,5,right,12,ITC_choice,3013,j,0,0,20,447502,328067
25,24,female,Netherlands,1,2,ITC,neutral,5,right,12,ITC_wait,0,undefined,0,0,20,442500,333069
25,24,female,Netherlands,1,2,ITC,neutral,5,right,12,ITC_collect,1747,k,0,0,20,440751,334818
25,24,female,Netherlands,1,2,ITC,neutral,5,right,12,ITC_outcome,0,undefined,0,0,40,439746,335823
25,24,female,Netherlands,1,3,guess,win,5,left,7,guess_start,1638,space,0,0,40,438106,337463
25,24,female,Netherlands,1,3,guess,win,5,left,7,guess_choice,1409,j,0,0,40,436691,338878
25,24,female,Netherlands,1,3,guess,win,5,left,7,guess_outcome,0,undefined,0,0,60,435133,340436
25,24,female,Netherlands,1,3,ITC,win,5,left,7,ITC_start,1512,space,0,0,60,433618,341951
25,24,female,Netherlands,1,3,ITC,win,5,left,7,ITC_choice,2863,f,0,0,60,430753,344816
25,24,female,Netherlands,1,3,ITC,win,5,left,7,ITC_wait,0,undefined,0,0,60,425751,349818
25,24,female,Netherlands,1,3,ITC,win,5,left,7,ITC_collect,1705,k,0,0,60,424044,351525
25,24,female,Netherlands,1,3,ITC,win,5,left,7,ITC_outcome,0,undefined,0,0,80,423039,352530
25,24,female,Netherlands,1,4,guess,neutral,10,left,7,guess_start,1609,space,0,0,80,421427,354142
25,24,female,Netherlands,1,4,guess,neutral,10,left,7,guess_choice,1172,j,0,0,80,420251,355318
25,24,female,Netherlands,1,4,guess,neutral,10,left,7,guess_outcome,0,undefined,0,0,80,418695,356874
25,24,female,Netherlands,1,4,ITC,neutral,10,left,7,ITC_start,1115,space,0,0,80,417579,357990
25,24,female,Netherlands,1,4,ITC,neutral,10,left,7,ITC_choice,1221,f,0,0,80,416355,359214
25,24,female,Netherlands,1,4,ITC,neutral,10,left,7,ITC_wait,0,undefined,0,0,80,406348,369221
25,24,female,Netherlands,1,4,ITC,neutral,10,left,7,ITC_collect,1780,k,0,0,80,404565,371004
25,24,female,Netherlands,1,4,ITC,neutral,10,left,7,ITC_outcome,0,undefined,0,0,100,403559,372010
25,24,female,Netherlands,1,5,guess,loss,10,left,8,guess_start,1929,space,0,0,100,401628,373941
25,24,female,Netherlands,1,5,guess,loss,10,left,8,guess_choice,1439,f,0,0,100,400185,375384
25,24,female,Netherlands,1,5,guess,loss,10,left,8,guess_outcome,0,undefined,0,0,85,398629,376940
25,24,female,Netherlands,1,5,ITC,loss,10,left,8,ITC_start,1794,space,0,0,85,396833,378736
25,24,female,Netherlands,1,5,ITC,loss,10,left,8,ITC_choice,1185,f,0,0,85,395646,379923
25,24,female,Netherlands,1,5,ITC,loss,10,left,8,ITC_wait,0,undefined,0,0,85,385642,389927
25,24,female,Netherlands,1,5,ITC,loss,10,left,8,ITC_collect,1465,k,0,0,85,384175,391394
25,24,female,Netherlands,1,5,ITC,loss,10,left,8,ITC_outcome,0,undefined,0,0,105,383064,392505
25,24,female,Netherlands,1,6,guess,win,10,left,3,guess_start,2060,space,0,0,105,381002,394567
25,24,female,Netherlands,1,6,guess,win,10,left,3,guess_choice,782,j,0,0,105,380216,395353
25,24,female,Netherlands,1,6,guess,win,10,left,3,guess_outcome,0,undefined,0,0,125,378658,396911
25,24,female,Netherlands,1,6,ITC,win,10,left,3,ITC_start,1450,space,0,0,125,377205,398364
25,24,female,Netherlands,1,6,ITC,win,10,left,3,ITC_choice,1004,f,0,0,125,376199,399370
25,24,female,Netherlands,1,6,ITC,win,10,left,3,ITC_wait,0,undefined,0,0,125,366194,409375
25,24,female,Netherlands,1,6,ITC,win,10,left,3,ITC_collect,1427,k,0,0,125,364765,410804
25,24,female,Netherlands,1,6,ITC,win,10,left,3,ITC_outcome,0,undefined,0,0,145,363758,411811
25,24,female,Netherlands,1,7,guess,neutral,5,left,2,guess_start,1218,space,0,0,145,362538,413031
25,24,female,Netherlands,1,7,guess,neutral,5,left,2,guess_choice,1343,j,0,0,145,361191,414378
25,24,female,Netherlands,1,7,guess,neutral,5,left,2,guess_outcome,0,undefined,0,0,145,359634,415935
25,24,female,Netherlands,1,7,ITC,neutral,5,left,2,ITC_start,2590,space,0,0,145,357041,418528
25,24,female,Netherlands,1,7,ITC,neutral,5,left,2,ITC_choice,903,f,0,0,145,356137,419432
25,24,female,Netherlands,1,7,ITC,neutral,5,left,2,ITC_wait,0,undefined,0,0,145,351134,424435
25,24,female,Netherlands,1,7,ITC,neutral,5,left,2,ITC_collect,1216,k,0,0,145,349916,425653
25,24,female,Netherlands,1,7,ITC,neutral,5,left,2,ITC_outcome,0,undefined,0,0,165,348909,426660
25,24,female,Netherlands,1,8,guess,win,5,left,4,guess_start,1036,space,0,0,165,347871,427698
25,24,female,Netherlands,1,8,guess,win,5,left,4,guess_choice,2162,f,0,0,165,345706,429863
25,24,female,Netherlands,1,8,guess,win,5,left,4,guess_outcome,0,undefined,0,0,185,344152,431417
25,24,female,Netherlands,1,8,ITC,win,5,left,4,ITC_start,2021,space,0,0,185,342129,433440
25,24,female,Netherlands,1,8,ITC,win,5,left,4,ITC_choice,1583,f,0,0,185,340544,435025
25,24,female,Netherlands,1,8,ITC,win,5,left,4,ITC_wait,0,undefined,0,0,185,335539,440030
25,24,female,Netherlands,1,8,ITC,win,5,left,4,ITC_collect,1539,k,0,0,185,333998,441571
25,24,female,Netherlands,1,8,ITC,win,5,left,4,ITC_outcome,0,undefined,0,0,205,332991,442578
25,24,female,Netherlands,1,9,guess,neutral,10,right,6,guess_start,1101,space,0,0,205,331888,443681
25,24,female,Netherlands,1,9,guess,neutral,10,right,6,guess_choice,1683,j,0,0,205,330202,445367
25,24,female,Netherlands,1,9,guess,neutral,10,right,6,guess_outcome,0,undefined,0,0,205,328648,446921
25,24,female,Netherlands,1,9,ITC,neutral,10,right,6,ITC_start,923,space,0,0,205,327723,447846
25,24,female,Netherlands,1,9,ITC,neutral,10,right,6,ITC_choice,1291,j,0,0,205,326428,449141
25,24,female,Netherlands,1,9,ITC,neutral,10,right,6,ITC_wait,0,undefined,0,0,205,316426,459143
25,24,female,Netherlands,1,9,ITC,neutral,10,right,6,ITC_collect,1097,k,0,0,205,315327,460242
25,24,female,Netherlands,1,9,ITC,neutral,10,right,6,ITC_outcome,0,undefined,0,0,225,314324,461245
25,24,female,Netherlands,1,10,guess,win,5,right,1,guess_start,1190,space,0,0,225,313132,462437
25,24,female,Netherlands,1,10,guess,win,5,right,1,guess_choice,2122,j,0,0,225,311006,464563
25,24,female,Netherlands,1,10,guess,win,5,right,1,guess_outcome,0,undefined,0,0,245,309452,466117
25,24,female,Netherlands,1,10,ITC,win,5,right,1,ITC_start,967,space,0,0,245,308483,467086
25,24,female,Netherlands,1,10,ITC,win,5,right,1,ITC_choice,836,j,0,0,245,307645,467924
25,24,female,Netherlands,1,10,ITC,win,5,right,1,ITC_wait,0,undefined,0,0,245,302640,472929
25,24,female,Netherlands,1,10,ITC,win,5,right,1,ITC_collect,1077,k,0,0,245,301561,474008
25,24,female,Netherlands,1,10,ITC,win,5,right,1,ITC_outcome,0,undefined,0,0,265,300556,475013
25,24,female,Netherlands,1,11,guess,win,5,left,12,guess_start,1459,space,0,0,265,299094,476475
25,24,female,Netherlands,1,11,guess,win,5,left,12,guess_choice,1556,j,0,0,265,297535,478034
25,24,female,Netherlands,1,11,guess,win,5,left,12,guess_outcome,0,undefined,0,0,285,295980,479589
25,24,female,Netherlands,1,11,ITC,win,5,left,12,ITC_start,959,space,0,0,285,295019,480550
25,24,female,Netherlands,1,11,ITC,win,5,left,12,ITC_choice,913,f,0,0,285,294104,481465
25,24,female,Netherlands,1,11,ITC,win,5,left,12,ITC_wait,0,undefined,0,0,285,289102,486467
25,24,female,Netherlands,1,11,ITC,win,5,left,12,ITC_collect,1162,k,0,0,285,287938,487631
25,24,female,Netherlands,1,11,ITC,win,5,left,12,ITC_outcome,0,undefined,0,0,305,286931,488638
25,24,female,Netherlands,1,12,guess,loss,5,left,16,guess_start,897,space,0,0,305,286032,489537
25,24,female,Netherlands,1,12,guess,loss,5,left,16,guess_choice,1280,f,0,0,305,284748,490821
25,24,female,Netherlands,1,12,guess,loss,5,left,16,guess_outcome,0,undefined,0,0,290,283189,492380
25,24,female,Netherlands,1,12,ITC,loss,5,left,16,ITC_start,1679,space,0,0,290,281508,494061
25,24,female,Netherlands,1,12,ITC,loss,5,left,16,ITC_choice,965,f,0,0,290,280541,495028
25,24,female,Netherlands,1,12,ITC,loss,5,left,16,ITC_wait,0,undefined,0,0,290,275532,500037
25,24,female,Netherlands,1,12,ITC,loss,5,left,16,ITC_collect,1078,k,0,0,290,274453,501116
25,24,female,Netherlands,1,12,ITC,loss,5,left,16,ITC_outcome,0,undefined,0,0,310,273448,502121
25,24,female,Netherlands,1,13,guess,win,5,right,9,guess_start,1580,space,0,0,310,271866,503703
25,24,female,Netherlands,1,13,guess,win,5,right,9,guess_choice,2819,f,0,0,310,269043,506526
25,24,female,Netherlands,1,13,guess,win,5,right,9,guess_outcome,0,undefined,0,0,330,267484,508085
25,24,female,Netherlands,1,13,ITC,win,5,right,9,ITC_start,1741,space,0,0,330,265741,509828
25,24,female,Netherlands,1,13,ITC,win,5,right,9,ITC_choice,1154,j,0,0,330,264586,510983
25,24,female,Netherlands,1,13,ITC,win,5,right,9,ITC_wait,0,undefined,0,0,330,259583,515986
25,24,female,Netherlands,1,13,ITC,win,5,right,9,ITC_collect,1093,k,0,0,330,258487,517082
25,24,female,Netherlands,1,13,ITC,win,5,right,9,ITC_outcome,0,undefined,0,0,350,257482,518087
25,24,female,Netherlands,1,14,guess,loss,5,left,8,guess_start,1002,space,0,0,350,256478,519091
25,24,female,Netherlands,1,14,guess,loss,5,left,8,guess_choice,4510,j,0,0,350,251965,523604
25,24,female,Netherlands,1,14,guess,loss,5,left,8,guess_outcome,0,undefined,0,0,335,250406,525163
25,24,female,Netherlands,1,14,ITC,loss,5,left,8,ITC_start,1277,space,0,0,335,249126,526443
25,24,female,Netherlands,1,14,ITC,loss,5,left,8,ITC_choice,834,f,0,0,335,248291,527278
25,24,female,Netherlands,1,14,ITC,loss,5,left,8,ITC_wait,0,undefined,0,0,335,243288,532281
25,24,female,Netherlands,1,14,ITC,loss,5,left,8,ITC_collect,830,k,0,0,335,242456,533113
25,24,female,Netherlands,1,14,ITC,loss,5,left,8,ITC_outcome,0,undefined,0,0,355,241449,534120
25,24,female,Netherlands,1,15,guess,win,5,left,10,guess_start,1072,space,0,0,355,240375,535194
25,24,female,Netherlands,1,15,guess,win,5,left,10,guess_choice,1525,f,0,0,355,238846,536723
25,24,female,Netherlands,1,15,guess,win,5,left,10,guess_outcome,0,undefined,0,0,375,237290,538279
25,24,female,Netherlands,1,15,ITC,win,5,left,10,ITC_start,1503,space,0,0,375,235784,539785
25,24,female,Netherlands,1,15,ITC,win,5,left,10,ITC_choice,1055,f,0,0,375,234728,540841
25,24,female,Netherlands,1,15,ITC,win,5,left,10,ITC_wait,0,undefined,0,0,375,229721,545848
25,24,female,Netherlands,1,15,ITC,win,5,left,10,ITC_collect,1248,k,0,0,375,228471,547098
25,24,female,Netherlands,1,15,ITC,win,5,left,10,ITC_outcome,0,undefined,0,0,395,227466,548103
25,24,female,Netherlands,1,16,guess,neutral,5,right,7,guess_start,975,space,0,0,395,226489,549080
25,24,female,Netherlands,1,16,guess,neutral,5,right,7,guess_choice,1020,j,0,0,395,225464,550105
25,24,female,Netherlands,1,16,guess,neutral,5,right,7,guess_outcome,0,undefined,0,0,395,223905,551664
25,24,female,Netherlands,1,16,ITC,neutral,5,right,7,ITC_start,844,space,0,0,395,223058,552511
25,24,female,Netherlands,1,16,ITC,neutral,5,right,7,ITC_choice,1061,j,0,0,395,221996,553573
25,24,female,Netherlands,1,16,ITC,neutral,5,right,7,ITC_wait,0,undefined,0,0,395,216991,558578
25,24,female,Netherlands,1,16,ITC,neutral,5,right,7,ITC_collect,684,k,0,0,395,216305,559264
25,24,female,Netherlands,1,16,ITC,neutral,5,right,7,ITC_outcome,0,undefined,0,0,415,215298,560271
25,24,female,Netherlands,1,17,guess,win,10,left,7,guess_start,726,space,0,0,415,214570,560999
25,24,female,Netherlands,1,17,guess,win,10,left,7,guess_choice,1193,f,0,0,415,213373,562196
25,24,female,Netherlands,1,17,guess,win,10,left,7,guess_outcome,0,undefined,0,0,435,211818,563751
25,24,female,Netherlands,1,17,ITC,win,10,left,7,ITC_start,1943,space,0,0,435,209874,565695
25,24,female,Netherlands,1,17,ITC,win,10,left,7,ITC_choice,1046,f,0,0,435,208826,566743
25,24,female,Netherlands,1,17,ITC,win,10,left,7,ITC_wait,0,undefined,0,0,435,198820,576749
25,24,female,Netherlands,1,17,ITC,win,10,left,7,ITC_collect,1099,k,0,0,435,197718,577851
25,24,female,Netherlands,1,17,ITC,win,10,left,7,ITC_outcome,0,undefined,0,0,455,196711,578858
25,24,female,Netherlands,1,18,guess,loss,5,left,12,guess_start,972,space,0,0,455,195737,579832
25,24,female,Netherlands,1,18,guess,loss,5,left,12,guess_choice,1245,f,0,0,455,194488,581081
25,24,female,Netherlands,1,18,guess,loss,5,left,12,guess_outcome,0,undefined,0,0,440,192929,582640
25,24,female,Netherlands,1,18,ITC,loss,5,left,12,ITC_start,2055,space,0,0,440,190872,584697
25,24,female,Netherlands,1,18,ITC,loss,5,left,12,ITC_choice,2582,f,0,0,440,188288,587281
25,24,female,Netherlands,1,18,ITC,loss,5,left,12,ITC_wait,0,undefined,0,0,440,183282,592287
25,24,female,Netherlands,1,18,ITC,loss,5,left,12,ITC_collect,1386,k,0,0,440,181894,593675
25,24,female,Netherlands,1,18,ITC,loss,5,left,12,ITC_outcome,0,undefined,0,0,460,180889,594680
25,24,female,Netherlands,1,19,guess,loss,5,right,4,guess_start,972,space,0,0,460,179915,595654
25,24,female,Netherlands,1,19,guess,loss,5,right,4,guess_choice,1252,j,0,0,460,178658,596911
25,24,female,Netherlands,1,19,guess,loss,5,right,4,guess_outcome,0,undefined,0,0,445,177103,598466
25,24,female,Netherlands,1,19,ITC,loss,5,right,4,ITC_start,593,space,0,0,445,176508,599061
25,24,female,Netherlands,1,19,ITC,loss,5,right,4,ITC_choice,1173,j,0,0,445,175332,600237
25,24,female,Netherlands,1,19,ITC,loss,5,right,4,ITC_wait,0,undefined,0,0,445,170326,605243
25,24,female,Netherlands,1,19,ITC,loss,5,right,4,ITC_collect,975,k,0,0,445,169349,606220
25,24,female,Netherlands,1,19,ITC,loss,5,right,4,ITC_outcome,0,undefined,0,0,465,168342,607227
25,24,female,Netherlands,1,20,guess,loss,5,right,7,guess_start,1175,space,0,0,465,167164,608405
25,24,female,Netherlands,1,20,guess,loss,5,right,7,guess_choice,968,f,0,0,465,166192,609377
25,24,female,Netherlands,1,20,guess,loss,5,right,7,guess_outcome,0,undefined,0,0,450,164635,610934
25,24,female,Netherlands,1,20,ITC,loss,5,right,7,ITC_start,1342,space,0,0,450,163291,612278
25,24,female,Netherlands,1,20,ITC,loss,5,right,7,ITC_choice,921,j,0,0,450,162368,613201
25,24,female,Netherlands,1,20,ITC,loss,5,right,7,ITC_wait,0,undefined,0,0,450,157361,618208
25,24,female,Netherlands,1,20,ITC,loss,5,right,7,ITC_collect,1167,k,0,0,450,156192,619377
25,24,female,Netherlands,1,20,ITC,loss,5,right,7,ITC_outcome,0,undefined,0,0,470,155185,620384
25,24,female,Netherlands,1,21,guess,win,5,right,11,guess_start,922,space,0,0,470,154261,621308
25,24,female,Netherlands,1,21,guess,win,5,right,11,guess_choice,947,j,0,0,470,153310,622259
25,24,female,Netherlands,1,21,guess,win,5,right,11,guess_outcome,0,undefined,0,0,490,151753,623816
25,24,female,Netherlands,1,21,ITC,win,5,right,11,ITC_start,933,space,0,0,490,150817,624752
25,24,female,Netherlands,1,21,ITC,win,5,right,11,ITC_choice,1048,j,0,0,490,149768,625801
25,24,female,Netherlands,1,21,ITC,win,5,right,11,ITC_wait,0,undefined,0,0,490,144765,630804
25,24,female,Netherlands,1,21,ITC,win,5,right,11,ITC_collect,952,k,0,0,490,143811,631758
25,24,female,Netherlands,1,21,ITC,win,5,right,11,ITC_outcome,0,undefined,0,0,510,142804,632765
25,24,female,Netherlands,1,22,guess,neutral,10,left,5,guess_start,995,space,0,0,510,141807,633762
25,24,female,Netherlands,1,22,guess,neutral,10,left,5,guess_choice,912,f,0,0,510,140892,634677
25,24,female,Netherlands,1,22,guess,neutral,10,left,5,guess_outcome,0,undefined,0,0,510,139338,636231
25,24,female,Netherlands,1,22,ITC,neutral,10,left,5,ITC_start,1080,space,0,0,510,138256,637313
25,24,female,Netherlands,1,22,ITC,neutral,10,left,5,ITC_choice,877,f,0,0,510,137377,638192
25,24,female,Netherlands,1,22,ITC,neutral,10,left,5,ITC_wait,0,undefined,0,0,510,127370,648199
25,24,female,Netherlands,1,22,ITC,neutral,10,left,5,ITC_collect,1383,k,0,0,510,125985,649584
25,24,female,Netherlands,1,22,ITC,neutral,10,left,5,ITC_outcome,0,undefined,0,0,530,124981,650588
25,24,female,Netherlands,1,23,guess,loss,5,left,11,guess_start,1012,space,0,0,530,123967,651602
25,24,female,Netherlands,1,23,guess,loss,5,left,11,guess_choice,1178,f,0,0,530,122785,652784
25,24,female,Netherlands,1,23,guess,loss,5,left,11,guess_outcome,0,undefined,0,0,515,121230,654339
25,24,female,Netherlands,1,23,ITC,loss,5,left,11,ITC_start,976,space,0,0,515,120252,655317
25,24,female,Netherlands,1,23,ITC,loss,5,left,11,ITC_choice,969,f,0,0,515,119281,656288
25,24,female,Netherlands,1,23,ITC,loss,5,left,11,ITC_wait,0,undefined,0,0,515,114277,661292
25,24,female,Netherlands,1,23,ITC,loss,5,left,11,ITC_collect,981,k,0,0,515,113294,662275
25,24,female,Netherlands,1,23,ITC,loss,5,left,11,ITC_outcome,0,undefined,0,0,535,112289,663280
25,24,female,Netherlands,1,24,guess,win,5,right,14,guess_start,962,space,0,0,535,111324,664245
25,24,female,Netherlands,1,24,guess,win,5,right,14,guess_choice,943,f,0,0,535,110378,665191
25,24,female,Netherlands,1,24,guess,win,5,right,14,guess_outcome,0,undefined,0,0,555,108820,666749
25,24,female,Netherlands,1,24,ITC,win,5,right,14,ITC_start,839,space,0,0,555,107979,667590
25,24,female,Netherlands,1,24,ITC,win,5,right,14,ITC_choice,818,j,0,0,555,107159,668410
25,24,female,Netherlands,1,24,ITC,win,5,right,14,ITC_wait,0,undefined,0,0,555,102157,673412
25,24,female,Netherlands,1,24,ITC,win,5,right,14,ITC_collect,1126,k,0,0,555,101029,674540
25,24,female,Netherlands,1,24,ITC,win,5,right,14,ITC_outcome,0,undefined,0,0,575,100023,675546
25,24,female,Netherlands,1,25,guess,win,10,right,2,guess_start,732,space,0,0,575,99289,676280
25,24,female,Netherlands,1,25,guess,win,10,right,2,guess_choice,785,f,0,0,575,98499,677070
25,24,female,Netherlands,1,25,guess,win,10,right,2,guess_outcome,0,undefined,0,0,595,96941,678628
25,24,female,Netherlands,1,25,ITC,win,10,right,2,ITC_start,822,space,0,0,595,96117,679452
25,24,female,Netherlands,1,25,ITC,win,10,right,2,ITC_choice,801,j,0,0,595,95314,680255
25,24,female,Netherlands,1,25,ITC,win,10,right,2,ITC_wait,0,undefined,0,0,595,85309,690260
25,24,female,Netherlands,1,25,ITC,win,10,right,2,ITC_collect,1321,k,0,0,595,83987,691582
25,24,female,Netherlands,1,25,ITC,win,10,right,2,ITC_outcome,0,undefined,0,0,615,82980,692589
25,24,female,Netherlands,1,26,guess,neutral,5,left,3,guess_start,927,space,0,0,615,82051,693518
25,24,female,Netherlands,1,26,guess,neutral,5,left,3,guess_choice,834,f,0,0,615,81214,694355
25,24,female,Netherlands,1,26,guess,neutral,5,left,3,guess_outcome,0,undefined,0,0,615,79656,695913
25,24,female,Netherlands,1,26,ITC,neutral,5,left,3,ITC_start,1033,space,0,0,615,78621,696948
25,24,female,Netherlands,1,26,ITC,neutral,5,left,3,ITC_choice,1102,f,0,0,615,77518,698051
25,24,female,Netherlands,1,26,ITC,neutral,5,left,3,ITC_wait,0,undefined,0,0,615,72516,703053
25,24,female,Netherlands,1,26,ITC,neutral,5,left,3,ITC_collect,1351,k,0,0,615,71163,704406
25,24,female,Netherlands,1,26,ITC,neutral,5,left,3,ITC_outcome,0,undefined,0,0,635,70160,705409
25,24,female,Netherlands,1,27,guess,neutral,5,right,1,guess_start,743,space,0,0,635,69415,706154
25,24,female,Netherlands,1,27,guess,neutral,5,right,1,guess_choice,1201,j,0,0,635,68211,707358
25,24,female,Netherlands,1,27,guess,neutral,5,right,1,guess_outcome,0,undefined,0,0,635,66653,708916
25,24,female,Netherlands,1,27,ITC,neutral,5,right,1,ITC_start,857,space,0,0,635,65794,709775
25,24,female,Netherlands,1,27,ITC,neutral,5,right,1,ITC_choice,1034,j,0,0,635,64759,710810
25,24,female,Netherlands,1,27,ITC,neutral,5,right,1,ITC_wait,0,undefined,0,0,635,59757,715812
25,24,female,Netherlands,1,27,ITC,neutral,5,right,1,ITC_collect,1127,k,0,0,635,58628,716941
25,24,female,Netherlands,1,27,ITC,neutral,5,right,1,ITC_outcome,0,undefined,0,0,655,57621,717948
25,24,female,Netherlands,1,28,guess,neutral,5,right,13,guess_start,1382,space,0,0,655,56236,719333
25,24,female,Netherlands,1,28,guess,neutral,5,right,13,guess_choice,1081,j,0,0,655,55151,720418
25,24,female,Netherlands,1,28,guess,neutral,5,right,13,guess_outcome,0,undefined,0,0,655,53594,721975
25,24,female,Netherlands,1,28,ITC,neutral,5,right,13,ITC_start,783,space,0,0,655,52808,722761
25,24,female,Netherlands,1,28,ITC,neutral,5,right,13,ITC_choice,2379,j,0,0,655,50427,725142
25,24,female,Netherlands,1,28,ITC,neutral,5,right,13,ITC_wait,0,undefined,0,0,655,45424,730145
25,24,female,Netherlands,1,28,ITC,neutral,5,right,13,ITC_collect,1939,k,0,0,655,43483,732086
25,24,female,Netherlands,1,28,ITC,neutral,5,right,13,ITC_outcome,0,undefined,0,0,675,42480,733089
25,24,female,Netherlands,1,29,guess,neutral,5,right,6,guess_start,1096,space,0,0,675,41382,734187
25,24,female,Netherlands,1,29,guess,neutral,5,right,6,guess_choice,730,f,0,0,675,40649,734920
25,24,female,Netherlands,1,29,guess,neutral,5,right,6,guess_outcome,0,undefined,0,0,675,39090,736479
25,24,female,Netherlands,1,29,ITC,neutral,5,right,6,ITC_start,2144,space,0,0,675,36944,738625
25,24,female,Netherlands,1,29,ITC,neutral,5,right,6,ITC_choice,897,j,0,0,675,36045,739524
25,24,female,Netherlands,1,29,ITC,neutral,5,right,6,ITC_wait,0,undefined,0,0,675,31040,744529
25,24,female,Netherlands,1,29,ITC,neutral,5,right,6,ITC_collect,1768,k,0,0,675,29270,746299
25,24,female,Netherlands,1,29,ITC,neutral,5,right,6,ITC_outcome,0,undefined,0,0,695,28263,747306
25,24,female,Netherlands,1,30,guess,win,10,right,4,guess_start,1066,space,0,0,695,27194,748375
25,24,female,Netherlands,1,30,guess,win,10,right,4,guess_choice,932,j,0,0,695,26259,749310
25,24,female,Netherlands,1,30,guess,win,10,right,4,guess_outcome,0,undefined,0,0,715,24704,750865
25,24,female,Netherlands,1,30,ITC,win,10,right,4,ITC_start,1374,space,0,0,715,23329,752240
25,24,female,Netherlands,1,30,ITC,win,10,right,4,ITC_choice,1019,j,0,0,715,22308,753261
25,24,female,Netherlands,1,30,ITC,win,10,right,4,ITC_wait,0,undefined,0,0,715,12301,763268
25,24,female,Netherlands,1,30,ITC,win,10,right,4,ITC_collect,804,k,0,0,715,11495,764074
25,24,female,Netherlands,1,30,ITC,win,10,right,4,ITC_outcome,0,undefined,0,0,735,10492,765077
25,24,female,Netherlands,1,31,guess,win,5,right,3,guess_start,768,space,0,0,735,9721,765848
25,24,female,Netherlands,1,31,guess,win,5,right,3,guess_choice,838,j,0,0,735,8879,766690
25,24,female,Netherlands,1,31,guess,win,5,right,3,guess_outcome,0,undefined,0,0,755,7320,768249
25,24,female,Netherlands,1,31,ITC,win,5,right,3,ITC_start,862,space,0,0,755,6457,769112
25,24,female,Netherlands,1,31,ITC,win,5,right,3,ITC_choice,723,j,0,0,755,5731,769838
25,24,female,Netherlands,1,31,ITC,win,5,right,3,ITC_wait,0,undefined,0,0,755,728,774841
25,24,female,Netherlands,1,31,ITC,win,5,right,3,ITC_collect,0,undefined,0,0,755,-3,775572
25,24,female,Netherlands,2,32,guess,loss,10,right,3,guess_start,1121,space,0,0,0,478878,786612
25,24,female,Netherlands,2,32,guess,loss,10,right,3,guess_choice,1400,f,0,0,0,477474,788016
25,24,female,Netherlands,2,32,guess,loss,10,right,3,guess_outcome,0,undefined,0,0,-15,475919,789571
25,24,female,Netherlands,2,32,ITC,loss,10,right,3,ITC_start,842,space,0,0,-15,475076,790414
25,24,female,Netherlands,2,32,ITC,loss,10,right,3,ITC_choice,736,j,0,0,-15,474338,791152
25,24,female,Netherlands,2,32,ITC,loss,10,right,3,ITC_wait,0,undefined,0,0,-15,464331,801159
25,24,female,Netherlands,2,32,ITC,loss,10,right,3,ITC_collect,1070,k,0,0,-15,463259,802231
25,24,female,Netherlands,2,32,ITC,loss,10,right,3,ITC_outcome,0,undefined,0,0,5,462254,803236
25,24,female,Netherlands,2,33,guess,neutral,5,right,5,guess_start,1061,space,0,0,5,461191,804299
25,24,female,Netherlands,2,33,guess,neutral,5,right,5,guess_choice,687,f,0,0,5,460501,804989
25,24,female,Netherlands,2,33,guess,neutral,5,right,5,guess_outcome,0,undefined,0,0,5,458942,806548
25,24,female,Netherlands,2,33,ITC,neutral,5,right,5,ITC_start,977,space,0,0,5,457963,807527
25,24,female,Netherlands,2,33,ITC,neutral,5,right,5,ITC_choice,882,j,0,0,5,457079,808411
25,24,female,Netherlands,2,33,ITC,neutral,5,right,5,ITC_wait,0,undefined,0,0,5,452072,813418
25,24,female,Netherlands,2,33,ITC,neutral,5,right,5,ITC_collect,1021,k,0,0,5,451050,814440
25,24,female,Netherlands,2,33,ITC,neutral,5,right,5,ITC_outcome,0,undefined,0,0,25,450044,815446
25,24,female,Netherlands,2,34,guess,win,5,right,16,guess_start,1056,space,0,0,25,448984,816506
25,24,female,Netherlands,2,34,guess,win,5,right,16,guess_choice,1089,f,0,0,25,447891,817599
25,24,female,Netherlands,2,34,guess,win,5,right,16,guess_outcome,0,undefined,0,0,45,446337,819153
25,24,female,Netherlands,2,34,ITC,win,5,right,16,ITC_start,1519,space,0,0,45,444816,820674
25,24,female,Netherlands,2,34,ITC,win,5,right,16,ITC_choice,638,j,0,0,45,444176,821314
25,24,female,Netherlands,2,34,ITC,win,5,right,16,ITC_wait,0,undefined,0,0,45,439169,826321
25,24,female,Netherlands,2,34,ITC,win,5,right,16,ITC_collect,1048,k,0,0,45,438119,827371
25,24,female,Netherlands,2,34,ITC,win,5,right,16,ITC_outcome,0,undefined,0,0,65,437112,828378
25,24,female,Netherlands,2,35,guess,loss,5,right,14,guess_start,2568,space,0,0,65,434541,830949
25,24,female,Netherlands,2,35,guess,loss,5,right,14,guess_choice,1563,j,0,0,65,432975,832515
25,24,female,Netherlands,2,35,guess,loss,5,right,14,guess_outcome,0,undefined,0,0,50,431419,834071
25,24,female,Netherlands,2,35,ITC,loss,5,right,14,ITC_start,890,space,0,0,50,430527,834963
25,24,female,Netherlands,2,35,ITC,loss,5,right,14,ITC_choice,936,j,0,0,50,429589,835901
25,24,female,Netherlands,2,35,ITC,loss,5,right,14,ITC_wait,0,undefined,0,0,50,424582,840908
25,24,female,Netherlands,2,35,ITC,loss,5,right,14,ITC_collect,792,k,0,0,50,423788,841702
25,24,female,Netherlands,2,35,ITC,loss,5,right,14,ITC_outcome,0,undefined,0,0,70,422781,842709
25,24,female,Netherlands,2,36,guess,neutral,5,left,16,guess_start,755,space,0,0,70,422024,843466
25,24,female,Netherlands,2,36,guess,neutral,5,left,16,guess_choice,743,j,0,0,70,421277,844213
25,24,female,Netherlands,2,36,guess,neutral,5,left,16,guess_outcome,0,undefined,0,0,70,419723,845767
25,24,female,Netherlands,2,36,ITC,neutral,5,left,16,ITC_start,1063,space,0,0,70,418658,846832
25,24,female,Netherlands,2,36,ITC,neutral,5,left,16,ITC_choice,817,f,0,0,70,417839,847651
25,24,female,Netherlands,2,36,ITC,neutral,5,left,16,ITC_wait,0,undefined,0,0,70,412836,852654
25,24,female,Netherlands,2,36,ITC,neutral,5,left,16,ITC_collect,704,k,0,0,70,412130,853360
25,24,female,Netherlands,2,36,ITC,neutral,5,left,16,ITC_outcome,0,undefined,0,0,90,411127,854363
25,24,female,Netherlands,2,37,guess,loss,5,right,2,guess_start,647,space,0,0,90,410476,855014
25,24,female,Netherlands,2,37,guess,loss,5,right,2,guess_choice,1142,j,0,0,90,409331,856159
25,24,female,Netherlands,2,37,guess,loss,5,right,2,guess_outcome,0,undefined,0,0,75,407772,857718
25,24,female,Netherlands,2,37,ITC,loss,5,right,2,ITC_start,1012,space,0,0,75,406758,858732
25,24,female,Netherlands,2,37,ITC,loss,5,right,2,ITC_choice,809,j,0,0,75,405947,859543
25,24,female,Netherlands,2,37,ITC,loss,5,right,2,ITC_wait,0,undefined,0,0,75,400941,864549
25,24,female,Netherlands,2,37,ITC,loss,5,right,2,ITC_collect,665,k,0,0,75,400275,865215
25,24,female,Netherlands,2,37,ITC,loss,5,right,2,ITC_outcome,0,undefined,0,0,95,399269,866221
25,24,female,Netherlands,2,38,guess,win,10,right,6,guess_start,745,space,0,0,95,398522,866968
25,24,female,Netherlands,2,38,guess,win,10,right,6,guess_choice,836,f,0,0,95,397682,867808
25,24,female,Netherlands,2,38,guess,win,10,right,6,guess_outcome,0,undefined,0,0,115,396128,869362
25,24,female,Netherlands,2,38,ITC,win,10,right,6,ITC_start,938,space,0,0,115,395187,870303
25,24,female,Netherlands,2,38,ITC,win,10,right,6,ITC_choice,974,j,0,0,115,394212,871278
25,24,female,Netherlands,2,38,ITC,win,10,right,6,ITC_wait,0,undefined,0,0,115,384209,881281
25,24,female,Netherlands,2,38,ITC,win,10,right,6,ITC_collect,762,k,0,0,115,383444,882046
25,24,female,Netherlands,2,38,ITC,win,10,right,6,ITC_outcome,0,undefined,0,0,135,382438,883052
25,24,female,Netherlands,2,39,guess,loss,10,right,4,guess_start,686,space,0,0,135,381750,883740
25,24,female,Netherlands,2,39,guess,loss,10,right,4,guess_choice,758,f,0,0,135,380989,884501
25,24,female,Netherlands,2,39,guess,loss,10,right,4,guess_outcome,0,undefined,0,0,120,379430,886060
25,24,female,Netherlands,2,39,ITC,loss,10,right,4,ITC_start,716,space,0,0,120,378713,886777
25,24,female,Netherlands,2,39,ITC,loss,10,right,4,ITC_choice,739,j,0,0,120,377972,887518
25,24,female,Netherlands,2,39,ITC,loss,10,right,4,ITC_wait,0,undefined,0,0,120,367970,897520
25,24,female,Netherlands,2,39,ITC,loss,10,right,4,ITC_collect,838,k,0,0,120,367130,898360
25,24,female,Netherlands,2,39,ITC,loss,10,right,4,ITC_outcome,0,undefined,0,0,140,366123,899367
25,24,female,Netherlands,2,40,guess,loss,5,right,3,guess_start,655,space,0,0,140,365466,900024
25,24,female,Netherlands,2,40,guess,loss,5,right,3,guess_choice,786,j,0,0,140,364677,900813
25,24,female,Netherlands,2,40,guess,loss,5,right,3,guess_outcome,0,undefined,0,0,125,363122,902368
25,24,female,Netherlands,2,40,ITC,loss,5,right,3,ITC_start,686,space,0,0,125,362434,903056
25,24,female,Netherlands,2,40,ITC,loss,5,right,3,ITC_choice,697,j,0,0,125,361735,903755
25,24,female,Netherlands,2,40,ITC,loss,5,right,3,ITC_wait,0,undefined,0,0,125,356730,908760
25,24,female,Netherlands,2,40,ITC,loss,5,right,3,ITC_collect,1468,k,0,0,125,355260,910230
25,24,female,Netherlands,2,40,ITC,loss,5,right,3,ITC_outcome,0,undefined,0,0,145,354255,911235
25,24,female,Netherlands,2,41,guess,neutral,5,left,15,guess_start,692,space,0,0,145,353561,911929
25,24,female,Netherlands,2,41,guess,neutral,5,left,15,guess_choice,787,j,0,0,145,352771,912719
25,24,female,Netherlands,2,41,guess,neutral,5,left,15,guess_outcome,0,undefined,0,0,145,351218,914272
25,24,female,Netherlands,2,41,ITC,neutral,5,left,15,ITC_start,901,space,0,0,145,350315,915175
25,24,female,Netherlands,2,41,ITC,neutral,5,left,15,ITC_choice,793,f,0,0,145,349520,915970
25,24,female,Netherlands,2,41,ITC,neutral,5,left,15,ITC_wait,0,undefined,0,0,145,344515,920975
25,24,female,Netherlands,2,41,ITC,neutral,5,left,15,ITC_collect,738,k,0,0,145,343774,921716
25,24,female,Netherlands,2,41,ITC,neutral,5,left,15,ITC_outcome,0,undefined,0,0,165,342770,922720
25,24,female,Netherlands,2,42,guess,win,5,right,5,guess_start,798,space,0,0,165,341971,923519
25,24,female,Netherlands,2,42,guess,win,5,right,5,guess_choice,1078,f,0,0,165,340888,924602
25,24,female,Netherlands,2,42,guess,win,5,right,5,guess_outcome,0,undefined,0,0,185,339334,926156
25,24,female,Netherlands,2,42,ITC,win,5,right,5,ITC_start,675,space,0,0,185,338658,926832
25,24,female,Netherlands,2,42,ITC,win,5,right,5,ITC_choice,726,j,0,0,185,337929,927561
25,24,female,Netherlands,2,42,ITC,win,5,right,5,ITC_wait,0,undefined,0,0,185,332927,932563
25,24,female,Netherlands,2,42,ITC,win,5,right,5,ITC_collect,1016,k,0,0,185,331909,933581
25,24,female,Netherlands,2,42,ITC,win,5,right,5,ITC_outcome,0,undefined,0,0,205,330906,934584
25,24,female,Netherlands,2,43,guess,loss,5,right,13,guess_start,718,space,0,0,205,330185,935305
25,24,female,Netherlands,2,43,guess,loss,5,right,13,guess_choice,3544,f,0,0,205,326637,938853
25,24,female,Netherlands,2,43,guess,loss,5,right,13,guess_outcome,0,undefined,0,0,190,325084,940406
25,24,female,Netherlands,2,43,ITC,loss,5,right,13,ITC_start,441,space,0,0,190,324641,940849
25,24,female,Netherlands,2,43,ITC,loss,5,right,13,ITC_choice,605,j,0,0,190,324033,941457
25,24,female,Netherlands,2,43,ITC,loss,5,right,13,ITC_wait,0,undefined,0,0,190,319029,946461
25,24,female,Netherlands,2,43,ITC,loss,5,right,13,ITC_collect,911,k,0,0,190,318116,947374
25,24,female,Netherlands,2,43,ITC,loss,5,right,13,ITC_outcome,0,undefined,0,0,210,317110,948380
25,24,female,Netherlands,2,44,guess,loss,10,left,1,guess_start,619,space,0,0,210,316489,949001
25,24,female,Netherlands,2,44,guess,loss,10,left,1,guess_choice,755,j,0,0,210,315730,949760
25,24,female,Netherlands,2,44,guess,loss,10,left,1,guess_outcome,0,undefined,0,0,195,314174,951316
25,24,female,Netherlands,2,44,ITC,loss,10,left,1,ITC_start,1246,space,0,0,195,312926,952564
25,24,female,Netherlands,2,44,ITC,loss,10,left,1,ITC_choice,896,f,0,0,195,312028,953462
25,24,female,Netherlands,2,44,ITC,loss,10,left,1,ITC_wait,0,undefined,0,0,195,302022,963468
25,24,female,Netherlands,2,44,ITC,loss,10,left,1,ITC_collect,1092,k,0,0,195,300927,964563
25,24,female,Netherlands,2,44,ITC,loss,10,left,1,ITC_outcome,0,undefined,0,0,215,299923,965567
25,24,female,Netherlands,2,45,guess,loss,5,left,9,guess_start,729,space,0,0,215,299192,966298
25,24,female,Netherlands,2,45,guess,loss,5,left,9,guess_choice,623,j,0,0,215,298565,966925
25,24,female,Netherlands,2,45,guess,loss,5,left,9,guess_outcome,0,undefined,0,0,200,297011,968479
25,24,female,Netherlands,2,45,ITC,loss,5,left,9,ITC_start,690,space,0,0,200,296319,969171
25,24,female,Netherlands,2,45,ITC,loss,5,left,9,ITC_choice,564,f,0,0,200,295753,969737
25,24,female,Netherlands,2,45,ITC,loss,5,left,9,ITC_wait,0,undefined,0,0,200,290746,974744
25,24,female,Netherlands,2,45,ITC,loss,5,left,9,ITC_collect,755,k,0,0,200,289989,975501
25,24,female,Netherlands,2,45,ITC,loss,5,left,9,ITC_outcome,0,undefined,0,0,220,288982,976508
25,24,female,Netherlands,2,46,guess,win,10,right,1,guess_start,513,space,0,0,220,288467,977023
25,24,female,Netherlands,2,46,guess,win,10,right,1,guess_choice,736,j,0,0,220,287727,977763
25,24,female,Netherlands,2,46,guess,win,10,right,1,guess_outcome,0,undefined,0,0,240,286170,979320
25,24,female,Netherlands,2,46,ITC,win,10,right,1,ITC_start,611,space,0,0,240,285557,979933
25,24,female,Netherlands,2,46,ITC,win,10,right,1,ITC_choice,784,j,0,0,240,284771,980719
25,24,female,Netherlands,2,46,ITC,win,10,right,1,ITC_wait,0,undefined,0,0,240,274765,990725
25,24,female,Netherlands,2,46,ITC,win,10,right,1,ITC_collect,987,k,0,0,240,273776,991714
25,24,female,Netherlands,2,46,ITC,win,10,right,1,ITC_outcome,0,undefined,0,0,260,272769,992721
25,24,female,Netherlands,2,47,guess,neutral,10,left,8,guess_start,796,space,0,0,260,271971,993519
25,24,female,Netherlands,2,47,guess,neutral,10,left,8,guess_choice,574,f,0,0,260,271394,994096
25,24,female,Netherlands,2,47,guess,neutral,10,left,8,guess_outcome,0,undefined,0,0,260,269839,995651
25,24,female,Netherlands,2,47,ITC,neutral,10,left,8,ITC_start,909,space,0,0,260,268928,996562
25,24,female,Netherlands,2,47,ITC,neutral,10,left,8,ITC_choice,759,f,0,0,260,268166,997324
25,24,female,Netherlands,2,47,ITC,neutral,10,left,8,ITC_wait,0,undefined,0,0,260,258164,1007326
25,24,female,Netherlands,2,47,ITC,neutral,10,left,8,ITC_collect,1260,k,0,0,260,256902,1008588
25,24,female,Netherlands,2,47,ITC,neutral,10,left,8,ITC_outcome,0,undefined,0,0,280,255895,1009595
25,24,female,Netherlands,2,48,guess,loss,5,right,6,guess_start,845,space,0,0,280,255048,1010442
25,24,female,Netherlands,2,48,guess,loss,5,right,6,guess_choice,731,j,0,0,280,254313,1011177
25,24,female,Netherlands,2,48,guess,loss,5,right,6,guess_outcome,0,undefined,0,0,265,252758,1012732
25,24,female,Netherlands,2,48,ITC,loss,5,right,6,ITC_start,588,space,0,0,265,252168,1013322
25,24,female,Netherlands,2,48,ITC,loss,5,right,6,ITC_choice,657,j,0,0,265,251509,1013981
25,24,female,Netherlands,2,48,ITC,loss,5,right,6,ITC_wait,0,undefined,0,0,265,246504,1018986
25,24,female,Netherlands,2,48,ITC,loss,5,right,6,ITC_collect,572,k,0,0,265,245930,1019560
25,24,female,Netherlands,2,48,ITC,loss,5,right,6,ITC_outcome,0,undefined,0,0,285,244923,1020567
25,24,female,Netherlands,2,49,guess,win,5,left,13,guess_start,613,space,0,0,285,244308,1021182
25,24,female,Netherlands,2,49,guess,win,5,left,13,guess_choice,597,f,0,0,285,243707,1021783
25,24,female,Netherlands,2,49,guess,win,5,left,13,guess_outcome,0,undefined,0,0,305,242150,1023340
25,24,female,Netherlands,2,49,ITC,win,5,left,13,ITC_start,702,space,0,0,305,241445,1024045
25,24,female,Netherlands,2,49,ITC,win,5,left,13,ITC_choice,637,f,0,0,305,240806,1024684
25,24,female,Netherlands,2,49,ITC,win,5,left,13,ITC_wait,0,undefined,0,0,305,235802,1029688
25,24,female,Netherlands,2,49,ITC,win,5,left,13,ITC_collect,1470,k,0,0,305,234330,1031160
25,24,female,Netherlands,2,49,ITC,win,5,left,13,ITC_outcome,0,undefined,0,0,325,233323,1032167
25,24,female,Netherlands,2,50,guess,neutral,10,left,4,guess_start,3114,space,0,0,325,230208,1035282
25,24,female,Netherlands,2,50,guess,neutral,10,left,4,guess_choice,774,j,0,0,325,229430,1036060
25,24,female,Netherlands,2,50,guess,neutral,10,left,4,guess_outcome,0,undefined,0,0,325,227873,1037617
25,24,female,Netherlands,2,50,ITC,neutral,10,left,4,ITC_start,812,space,0,0,325,227059,1038431
25,24,female,Netherlands,2,50,ITC,neutral,10,left,4,ITC_choice,2346,f,0,0,325,224712,1040778
25,24,female,Netherlands,2,50,ITC,neutral,10,left,4,ITC_wait,0,undefined,0,0,325,214706,1050784
25,24,female,Netherlands,2,50,ITC,neutral,10,left,4,ITC_collect,1860,k,0,0,325,212844,1052646
25,24,female,Netherlands,2,50,ITC,neutral,10,left,4,ITC_outcome,0,undefined,0,0,345,211836,1053654
25,24,female,Netherlands,2,51,guess,neutral,5,left,14,guess_start,737,space,0,0,345,211097,1054393
25,24,female,Netherlands,2,51,guess,neutral,5,left,14,guess_choice,652,f,0,0,345,210441,1055049
25,24,female,Netherlands,2,51,guess,neutral,5,left,14,guess_outcome,0,undefined,0,0,345,208886,1056604
25,24,female,Netherlands,2,51,ITC,neutral,5,left,14,ITC_start,964,space,0,0,345,207920,1057570
25,24,female,Netherlands,2,51,ITC,neutral,5,left,14,ITC_choice,681,f,0,0,345,207237,1058253
25,24,female,Netherlands,2,51,ITC,neutral,5,left,14,ITC_wait,0,undefined,0,0,345,202235,1063255
25,24,female,Netherlands,2,51,ITC,neutral,5,left,14,ITC_collect,1127,k,0,0,345,201106,1064384
25,24,female,Netherlands,2,51,ITC,neutral,5,left,14,ITC_outcome,0,undefined,0,0,365,200099,1065391
25,24,female,Netherlands,2,52,guess,loss,5,right,1,guess_start,972,space,0,0,365,199124,1066366
25,24,female,Netherlands,2,52,guess,loss,5,right,1,guess_choice,971,j,0,0,365,198147,1067343
25,24,female,Netherlands,2,52,guess,loss,5,right,1,guess_outcome,0,undefined,0,0,350,196589,1068901
25,24,female,Netherlands,2,52,ITC,loss,5,right,1,ITC_start,548,space,0,0,350,196038,1069452
25,24,female,Netherlands,2,52,ITC,loss,5,right,1,ITC_choice,600,j,0,0,350,195436,1070054
25,24,female,Netherlands,2,52,ITC,loss,5,right,1,ITC_wait,0,undefined,0,0,350,190429,1075061
25,24,female,Netherlands,2,52,ITC,loss,5,right,1,ITC_collect,725,k,0,0,350,189702,1075788
25,24,female,Netherlands,2,52,ITC,loss,5,right,1,ITC_outcome,0,undefined,0,0,370,188695,1076795
25,24,female,Netherlands,2,53,guess,loss,5,left,15,guess_start,581,space,0,0,370,188112,1077378
25,24,female,Netherlands,2,53,guess,loss,5,left,15,guess_choice,720,j,0,0,370,187387,1078103
25,24,female,Netherlands,2,53,guess,loss,5,left,15,guess_outcome,0,undefined,0,0,355,185828,1079662
25,24,female,Netherlands,2,53,ITC,loss,5,left,15,ITC_start,926,space,0,0,355,184900,1080590
25,24,female,Netherlands,2,53,ITC,loss,5,left,15,ITC_choice,713,f,0,0,355,184184,1081306
25,24,female,Netherlands,2,53,ITC,loss,5,left,15,ITC_wait,0,undefined,0,0,355,179182,1086308
25,24,female,Netherlands,2,53,ITC,loss,5,left,15,ITC_collect,1796,k,0,0,355,177384,1088106
25,24,female,Netherlands,2,53,ITC,loss,5,left,15,ITC_outcome,0,undefined,0,0,375,176380,1089110
25,24,female,Netherlands,2,54,guess,neutral,5,right,8,guess_start,787,space,0,0,375,175591,1089899
25,24,female,Netherlands,2,54,guess,neutral,5,right,8,guess_choice,685,j,0,0,375,174901,1090589
25,24,female,Netherlands,2,54,guess,neutral,5,right,8,guess_outcome,0,undefined,0,0,375,173342,1092148
25,24,female,Netherlands,2,54,ITC,neutral,5,right,8,ITC_start,906,space,0,0,375,172434,1093056
25,24,female,Netherlands,2,54,ITC,neutral,5,right,8,ITC_choice,673,j,0,0,375,171759,1093731
25,24,female,Netherlands,2,54,ITC,neutral,5,right,8,ITC_wait,0,undefined,0,0,375,166752,1098738
25,24,female,Netherlands,2,54,ITC,neutral,5,right,8,ITC_collect,693,k,0,0,375,166058,1099432
25,24,female,Netherlands,2,54,ITC,neutral,5,right,8,ITC_outcome,0,undefined,0,0,395,165052,1100438
25,24,female,Netherlands,2,55,guess,win,5,right,2,guess_start,598,space,0,0,395,164452,1101038
25,24,female,Netherlands,2,55,guess,win,5,right,2,guess_choice,733,f,0,0,395,163715,1101775
25,24,female,Netherlands,2,55,guess,win,5,right,2,guess_outcome,0,undefined,0,0,415,162156,1103334
25,24,female,Netherlands,2,55,ITC,win,5,right,2,ITC_start,558,space,0,0,415,161596,1103894
25,24,female,Netherlands,2,55,ITC,win,5,right,2,ITC_choice,704,j,0,0,415,160890,1104600
25,24,female,Netherlands,2,55,ITC,win,5,right,2,ITC_wait,0,undefined,0,0,415,155887,1109603
25,24,female,Netherlands,2,55,ITC,win,5,right,2,ITC_collect,836,k,0,0,415,155049,1110441
25,24,female,Netherlands,2,55,ITC,win,5,right,2,ITC_outcome,0,undefined,0,0,435,154041,1111449
25,24,female,Netherlands,2,56,guess,win,5,right,6,guess_start,593,space,0,0,435,153445,1112045
25,24,female,Netherlands,2,56,guess,win,5,right,6,guess_choice,667,f,0,0,435,152775,1112715
25,24,female,Netherlands,2,56,guess,win,5,right,6,guess_outcome,0,undefined,0,0,455,151221,1114269
25,24,female,Netherlands,2,56,ITC,win,5,right,6,ITC_start,648,space,0,0,455,150571,1114919
25,24,female,Netherlands,2,56,ITC,win,5,right,6,ITC_choice,1209,j,0,0,455,149360,1116130
25,24,female,Netherlands,2,56,ITC,win,5,right,6,ITC_wait,0,undefined,0,0,455,144355,1121135
25,24,female,Netherlands,2,56,ITC,win,5,right,6,ITC_collect,818,k,0,0,455,143535,1121955
25,24,female,Netherlands,2,56,ITC,win,5,right,6,ITC_outcome,0,undefined,0,0,475,142529,1122961
25,24,female,Netherlands,2,57,guess,loss,10,right,5,guess_start,864,space,0,0,475,141663,1123827
25,24,female,Netherlands,2,57,guess,loss,10,right,5,guess_choice,642,f,0,0,475,141018,1124472
25,24,female,Netherlands,2,57,guess,loss,10,right,5,guess_outcome,0,undefined,0,0,460,139460,1126030
25,24,female,Netherlands,2,57,ITC,loss,10,right,5,ITC_start,697,space,0,0,460,138761,1126729
25,24,female,Netherlands,2,57,ITC,loss,10,right,5,ITC_choice,654,j,0,0,460,138105,1127385
25,24,female,Netherlands,2,57,ITC,loss,10,right,5,ITC_wait,0,undefined,0,0,460,128098,1137392
25,24,female,Netherlands,2,57,ITC,loss,10,right,5,ITC_collect,1063,k,0,0,460,127033,1138457
25,24,female,Netherlands,2,57,ITC,loss,10,right,5,ITC_outcome,0,undefined,0,0,480,126026,1139464
25,24,female,Netherlands,2,58,guess,neutral,5,left,9,guess_start,654,space,0,0,480,125370,1140120
25,24,female,Netherlands,2,58,guess,neutral,5,left,9,guess_choice,615,j,0,0,480,124752,1140738
25,24,female,Netherlands,2,58,guess,neutral,5,left,9,guess_outcome,0,undefined,0,0,480,123198,1142292
25,24,female,Netherlands,2,58,ITC,neutral,5,left,9,ITC_start,684,space,0,0,480,122512,1142978
25,24,female,Netherlands,2,58,ITC,neutral,5,left,9,ITC_choice,843,f,0,0,480,121667,1143823
25,24,female,Netherlands,2,58,ITC,neutral,5,left,9,ITC_wait,0,undefined,0,0,480,116660,1148830
25,24,female,Netherlands,2,58,ITC,neutral,5,left,9,ITC_collect,655,k,0,0,480,116004,1149486
25,24,female,Netherlands,2,58,ITC,neutral,5,left,9,ITC_outcome,0,undefined,0,0,500,114997,1150493
25,24,female,Netherlands,2,59,guess,loss,5,right,10,guess_start,654,space,0,0,500,114341,1151149
25,24,female,Netherlands,2,59,guess,loss,5,right,10,guess_choice,545,f,0,0,500,113792,1151698
25,24,female,Netherlands,2,59,guess,loss,5,right,10,guess_outcome,0,undefined,0,0,485,112236,1153254
25,24,female,Netherlands,2,59,ITC,loss,5,right,10,ITC_start,789,space,0,0,485,111446,1154044
25,24,female,Netherlands,2,59,ITC,loss,5,right,10,ITC_choice,771,j,0,0,485,110673,1154817
25,24,female,Netherlands,2,59,ITC,loss,5,right,10,ITC_wait,0,undefined,0,0,485,105667,1159823
25,24,female,Netherlands,2,59,ITC,loss,5,right,10,ITC_collect,5182,k,1,1,485,100480,1165010
25,24,female,Netherlands,2,59,ITC,loss,5,right,10,ITC_outcome,0,undefined,0,0,505,99475,1166015
25,24,female,Netherlands,2,60,guess,neutral,5,right,11,guess_start,721,space,0,0,505,98751,1166739
25,24,female,Netherlands,2,60,guess,neutral,5,right,11,guess_choice,927,j,0,0,505,97820,1167670
25,24,female,Netherlands,2,60,guess,neutral,5,right,11,guess_outcome,0,undefined,0,0,505,96263,1169227
25,24,female,Netherlands,2,60,ITC,neutral,5,right,11,ITC_start,711,space,0,0,505,95549,1169941
25,24,female,Netherlands,2,60,ITC,neutral,5,right,11,ITC_choice,666,j,0,0,505,94881,1170609
25,24,female,Netherlands,2,60,ITC,neutral,5,right,11,ITC_wait,0,undefined,0,0,505,89879,1175611
25,24,female,Netherlands,2,60,ITC,neutral,5,right,11,ITC_collect,742,k,0,0,505,89135,1176355
25,24,female,Netherlands,2,60,ITC,neutral,5,right,11,ITC_outcome,0,undefined,0,0,525,88130,1177360
25,24,female,Netherlands,2,61,guess,neutral,10,right,1,guess_start,739,space,0,0,525,87389,1178101
25,24,female,Netherlands,2,61,guess,neutral,10,right,1,guess_choice,864,f,0,0,525,86521,1178969
25,24,female,Netherlands,2,61,guess,neutral,10,right,1,guess_outcome,0,undefined,0,0,525,84965,1180525
25,24,female,Netherlands,2,61,ITC,neutral,10,right,1,ITC_start,746,space,0,0,525,84217,1181273
25,24,female,Netherlands,2,61,ITC,neutral,10,right,1,ITC_choice,865,j,0,0,525,83350,1182140
25,24,female,Netherlands,2,61,ITC,neutral,10,right,1,ITC_wait,0,undefined,0,0,525,73343,1192147
25,24,female,Netherlands,2,61,ITC,neutral,10,right,1,ITC_collect,703,k,0,0,525,72639,1192851
25,24,female,Netherlands,2,61,ITC,neutral,10,right,1,ITC_outcome,0,undefined,0,0,545,71633,1193857
25,24,female,Netherlands,2,62,guess,neutral,10,left,3,guess_start,474,space,0,0,545,71157,1194333
25,24,female,Netherlands,2,62,guess,neutral,10,left,3,guess_choice,718,f,0,0,545,70435,1195055
25,24,female,Netherlands,2,62,guess,neutral,10,left,3,guess_outcome,0,undefined,0,0,545,68878,1196612
25,24,female,Netherlands,2,62,ITC,neutral,10,left,3,ITC_start,1403,space,0,0,545,67473,1198017
25,24,female,Netherlands,2,62,ITC,neutral,10,left,3,ITC_choice,830,f,0,0,545,66641,1198849
25,24,female,Netherlands,2,62,ITC,neutral,10,left,3,ITC_wait,0,undefined,0,0,545,56639,1208851
25,24,female,Netherlands,2,62,ITC,neutral,10,left,3,ITC_collect,669,k,0,0,545,55968,1209522
25,24,female,Netherlands,2,62,ITC,neutral,10,left,3,ITC_outcome,0,undefined,0,0,565,54966,1210524
25,24,female,Netherlands,2,63,guess,win,10,right,8,guess_start,608,space,0,0,565,54356,1211134
25,24,female,Netherlands,2,63,guess,win,10,right,8,guess_choice,691,j,0,0,565,53662,1211828
25,24,female,Netherlands,2,63,guess,win,10,right,8,guess_outcome,0,undefined,0,0,585,52105,1213385
25,24,female,Netherlands,2,63,ITC,win,10,right,8,ITC_start,569,space,0,0,585,51534,1213956
25,24,female,Netherlands,2,63,ITC,win,10,right,8,ITC_choice,587,j,0,0,585,50945,1214545
25,24,female,Netherlands,2,63,ITC,win,10,right,8,ITC_wait,0,undefined,0,0,585,40943,1224547
25,24,female,Netherlands,2,63,ITC,win,10,right,8,ITC_collect,775,k,0,0,585,40167,1225323
25,24,female,Netherlands,2,63,ITC,win,10,right,8,ITC_outcome,0,undefined,0,0,605,39160,1226330
25,24,female,Netherlands,2,64,guess,neutral,5,right,10,guess_start,630,space,0,0,605,38528,1226962
25,24,female,Netherlands,2,64,guess,neutral,5,right,10,guess_choice,642,f,0,0,605,37882,1227608
25,24,female,Netherlands,2,64,guess,neutral,5,right,10,guess_outcome,0,undefined,0,0,605,36326,1229164
25,24,female,Netherlands,2,64,ITC,neutral,5,right,10,ITC_start,787,space,0,0,605,35537,1229953
25,24,female,Netherlands,2,64,ITC,neutral,5,right,10,ITC_choice,654,j,0,0,605,34880,1230610
25,24,female,Netherlands,2,64,ITC,neutral,5,right,10,ITC_wait,0,undefined,0,0,605,29878,1235612
25,24,female,Netherlands,2,64,ITC,neutral,5,right,10,ITC_collect,1131,k,0,0,605,28745,1236745
25,24,female,Netherlands,2,64,ITC,neutral,5,right,10,ITC_outcome,0,undefined,0,0,625,27738,1237752
25,24,female,Netherlands,2,65,guess,win,5,right,15,guess_start,762,space,0,0,625,26974,1238516
25,24,female,Netherlands,2,65,guess,win,5,right,15,guess_choice,1661,j,0,0,625,25309,1240181
25,24,female,Netherlands,2,65,guess,win,5,right,15,guess_outcome,0,undefined,0,0,645,23753,1241737
25,24,female,Netherlands,2,65,ITC,win,5,right,15,ITC_start,564,space,0,0,645,23186,1242304
25,24,female,Netherlands,2,65,ITC,win,5,right,15,ITC_choice,587,j,0,0,645,22598,1242892
25,24,female,Netherlands,2,65,ITC,win,5,right,15,ITC_wait,0,undefined,0,0,645,17592,1247898
25,24,female,Netherlands,2,65,ITC,win,5,right,15,ITC_collect,706,k,0,0,645,16885,1248605
25,24,female,Netherlands,2,65,ITC,win,5,right,15,ITC_outcome,0,undefined,0,0,665,15877,1249613
25,24,female,Netherlands,2,66,guess,win,10,right,5,guess_start,1237,space,0,0,665,14638,1250852
25,24,female,Netherlands,2,66,guess,win,10,right,5,guess_choice,679,j,0,0,665,13954,1251536
25,24,female,Netherlands,2,66,guess,win,10,right,5,guess_outcome,0,undefined,0,0,685,12398,1253092
25,24,female,Netherlands,2,66,ITC,win,10,right,5,ITC_start,705,space,0,0,685,11691,1253799
25,24,female,Netherlands,2,66,ITC,win,10,right,5,ITC_choice,607,j,0,0,685,11083,1254407
25,24,female,Netherlands,2,66,ITC,win,10,right,5,ITC_wait,0,undefined,0,0,685,1076,1264414
25,24,female,Netherlands,2,66,ITC,win,10,right,5,ITC_collect,714,k,0,0,685,360,1265130
25,24,female,Netherlands,2,66,ITC,win,10,right,5,ITC_outcome,0,undefined,0,0,705,-5,1265495
25,24,female,Netherlands,3,67,guess,loss,10,left,6,guess_start,1840,space,0,0,0,478159,1274017
25,24,female,Netherlands,3,67,guess,loss,10,left,6,guess_choice,2419,j,0,0,0,475736,1276440
25,24,female,Netherlands,3,67,guess,loss,10,left,6,guess_outcome,0,undefined,0,0,-15,474179,1277997
25,24,female,Netherlands,3,67,ITC,loss,10,left,6,ITC_start,852,space,0,0,-15,473325,1278851
25,24,female,Netherlands,3,67,ITC,loss,10,left,6,ITC_choice,1852,f,0,0,-15,471471,1280705
25,24,female,Netherlands,3,67,ITC,loss,10,left,6,ITC_wait,0,undefined,0,0,-15,461464,1290712
25,24,female,Netherlands,3,67,ITC,loss,10,left,6,ITC_collect,748,k,0,0,-15,460714,1291462
25,24,female,Netherlands,3,67,ITC,loss,10,left,6,ITC_outcome,0,undefined,0,0,5,459707,1292469
25,24,female,Netherlands,3,68,guess,neutral,5,right,4,guess_start,871,space,0,0,5,458833,1293343
25,24,female,Netherlands,3,68,guess,neutral,5,right,4,guess_choice,660,j,0,0,5,458169,1294007
25,24,female,Netherlands,3,68,guess,neutral,5,right,4,guess_outcome,0,undefined,0,0,5,456614,1295562
25,24,female,Netherlands,3,68,ITC,neutral,5,right,4,ITC_start,950,space,0,0,5,455662,1296514
25,24,female,Netherlands,3,68,ITC,neutral,5,right,4,ITC_choice,610,j,0,0,5,455051,1297125
25,24,female,Netherlands,3,68,ITC,neutral,5,right,4,ITC_wait,0,undefined,0,0,5,450045,1302131
25,24,female,Netherlands,3,68,ITC,neutral,5,right,4,ITC_collect,716,k,0,0,5,449327,1302849
25,24,female,Netherlands,3,68,ITC,neutral,5,right,4,ITC_outcome,0,undefined,0,0,25,448319,1303857
25,24,female,Netherlands,3,69,guess,win,5,right,8,guess_start,629,space,0,0,25,447688,1304488
25,24,female,Netherlands,3,69,guess,win,5,right,8,guess_choice,807,j,0,0,25,446877,1305299
25,24,female,Netherlands,3,69,guess,win,5,right,8,guess_outcome,0,undefined,0,0,45,445320,1306856
25,24,female,Netherlands,3,69,ITC,win,5,right,8,ITC_start,1540,space,0,0,45,443778,1308398
25,24,female,Netherlands,3,69,ITC,win,5,right,8,ITC_choice,1423,j,0,0,45,442353,1309823
25,24,female,Netherlands,3,69,ITC,win,5,right,8,ITC_wait,0,undefined,0,0,45,437347,1314829
25,24,female,Netherlands,3,69,ITC,win,5,right,8,ITC_collect,823,k,0,0,45,436522,1315654
25,24,female,Netherlands,3,69,ITC,win,5,right,8,ITC_outcome,0,undefined,0,0,65,435515,1316661
25,24,female,Netherlands,3,70,guess,loss,5,right,5,guess_start,1617,space,0,0,65,433896,1318280
25,24,female,Netherlands,3,70,guess,loss,5,right,5,guess_choice,755,j,0,0,65,433137,1319039
25,24,female,Netherlands,3,70,guess,loss,5,right,5,guess_outcome,0,undefined,0,0,50,431578,1320598
25,24,female,Netherlands,3,70,ITC,loss,5,right,5,ITC_start,892,space,0,0,50,430684,1321492
25,24,female,Netherlands,3,70,ITC,loss,5,right,5,ITC_choice,797,j,0,0,50,429884,1322292
25,24,female,Netherlands,3,70,ITC,loss,5,right,5,ITC_wait,0,undefined,0,0,50,424881,1327295
25,24,female,Netherlands,3,70,ITC,loss,5,right,5,ITC_collect,1026,k,0,0,50,423854,1328322
25,24,female,Netherlands,3,70,ITC,loss,5,right,5,ITC_outcome,0,undefined,0,0,70,422851,1329325
25,24,female,Netherlands,3,71,guess,loss,10,left,7,guess_start,613,space,0,0,70,422235,1329941
25,24,female,Netherlands,3,71,guess,loss,10,left,7,guess_choice,668,f,0,0,70,421564,1330612
25,24,female,Netherlands,3,71,guess,loss,10,left,7,guess_outcome,0,undefined,0,0,55,420010,1332166
25,24,female,Netherlands,3,71,ITC,loss,10,left,7,ITC_start,565,space,0,0,55,419443,1332733
25,24,female,Netherlands,3,71,ITC,loss,10,left,7,ITC_choice,711,f,0,0,55,418730,1333446
25,24,female,Netherlands,3,71,ITC,loss,10,left,7,ITC_wait,0,undefined,0,0,55,408723,1343453
25,24,female,Netherlands,3,71,ITC,loss,10,left,7,ITC_collect,879,k,0,0,55,407842,1344334
25,24,female,Netherlands,3,71,ITC,loss,10,left,7,ITC_outcome,0,undefined,0,0,75,406835,1345341
25,24,female,Netherlands,3,72,guess,loss,10,right,2,guess_start,470,space,0,0,75,406362,1345814
25,24,female,Netherlands,3,72,guess,loss,10,right,2,guess_choice,699,f,0,0,75,405660,1346516
25,24,female,Netherlands,3,72,guess,loss,10,right,2,guess_outcome,0,undefined,0,0,60,404105,1348071
25,24,female,Netherlands,3,72,ITC,loss,10,right,2,ITC_start,688,space,0,0,60,403415,1348761
25,24,female,Netherlands,3,72,ITC,loss,10,right,2,ITC_choice,614,j,0,0,60,402799,1349377
25,24,female,Netherlands,3,72,ITC,loss,10,right,2,ITC_wait,0,undefined,0,0,60,392792,1359384
25,24,female,Netherlands,3,72,ITC,loss,10,right,2,ITC_collect,410,k,0,0,60,392380,1359796
25,24,female,Netherlands,3,72,ITC,loss,10,right,2,ITC_outcome,0,undefined,0,0,80,391375,1360801
25,24,female,Netherlands,3,73,guess,win,10,left,8,guess_start,895,space,0,0,80,390478,1361698
25,24,female,Netherlands,3,73,guess,win,10,left,8,guess_choice,520,j,0,0,80,389954,1362222
25,24,female,Netherlands,3,73,guess,win,10,left,8,guess_outcome,0,undefined,0,0,100,388399,1363777
25,24,female,Netherlands,3,73,ITC,win,10,left,8,ITC_start,779,space,0,0,100,387619,1364557
25,24,female,Netherlands,3,73,ITC,win,10,left,8,ITC_choice,555,f,0,0,100,387062,1365114
25,24,female,Netherlands,3,73,ITC,win,10,left,8,ITC_wait,0,undefined,0,0,100,377059,1375117
25,24,female,Netherlands,3,73,ITC,win,10,left,8,ITC_collect,1610,k,0,0,100,375447,1376729
25,24,female,Netherlands,3,73,ITC,win,10,left,8,ITC_outcome,0,undefined,0,0,120,374443,1377733
25,24,female,Netherlands,3,74,guess,loss,5,left,6,guess_start,704,space,0,0,120,373737,1378439
25,24,female,Netherlands,3,74,guess,loss,5,left,6,guess_choice,936,j,0,0,120,372797,1379379
25,24,female,Netherlands,3,74,guess,loss,5,left,6,guess_outcome,0,undefined,0,0,105,371239,1380937
25,24,female,Netherlands,3,74,ITC,loss,5,left,6,ITC_start,899,space,0,0,105,370338,1381838
25,24,female,Netherlands,3,74,ITC,loss,5,left,6,ITC_choice,647,f,0,0,105,369689,1382487
25,24,female,Netherlands,3,74,ITC,loss,5,left,6,ITC_wait,0,undefined,0,0,105,364684,1387492
25,24,female,Netherlands,3,74,ITC,loss,5,left,6,ITC_collect,1184,k,0,0,105,363498,1388678
25,24,female,Netherlands,3,74,ITC,loss,5,left,6,ITC_outcome,0,undefined,0,0,125,362493,1389683
25,24,female,Netherlands,3,75,guess,neutral,5,left,1,guess_start,894,space,0,0,125,361597,1390579
25,24,female,Netherlands,3,75,guess,neutral,5,left,1,guess_choice,1049,f,0,0,125,360545,1391631
25,24,female,Netherlands,3,75,guess,neutral,5,left,1,guess_outcome,0,undefined,0,0,125,358990,1393186
25,24,female,Netherlands,3,75,ITC,neutral,5,left,1,ITC_start,731,space,0,0,125,358258,1393918
25,24,female,Netherlands,3,75,ITC,neutral,5,left,1,ITC_choice,798,f,0,0,125,357456,1394720
25,24,female,Netherlands,3,75,ITC,neutral,5,left,1,ITC_wait,0,undefined,0,0,125,352452,1399724
25,24,female,Netherlands,3,75,ITC,neutral,5,left,1,ITC_collect,594,k,0,0,125,351856,1400320
25,24,female,Netherlands,3,75,ITC,neutral,5,left,1,ITC_outcome,0,undefined,0,0,145,350852,1401324
25,24,female,Netherlands,3,76,guess,win,10,left,2,guess_start,889,space,0,0,145,349961,1402215
25,24,female,Netherlands,3,76,guess,win,10,left,2,guess_choice,405,f,0,0,145,349552,1402624
25,24,female,Netherlands,3,76,guess,win,10,left,2,guess_outcome,0,undefined,0,0,165,347997,1404179
25,24,female,Netherlands,3,76,ITC,win,10,left,2,ITC_start,865,space,0,0,165,347130,1405046
25,24,female,Netherlands,3,76,ITC,win,10,left,2,ITC_choice,589,f,0,0,165,346539,1405637
25,24,female,Netherlands,3,76,ITC,win,10,left,2,ITC_wait,0,undefined,0,0,165,336532,1415644
25,24,female,Netherlands,3,76,ITC,win,10,left,2,ITC_collect,1045,k,0,0,165,335486,1416690
25,24,female,Netherlands,3,76,ITC,win,10,left,2,ITC_outcome,0,undefined,0,0,185,334478,1417698
25,24,female,Netherlands,3,77,guess,win,10,right,1,guess_start,621,space,0,0,185,333855,1418321
25,24,female,Netherlands,3,77,guess,win,10,right,1,guess_choice,801,f,0,0,185,333049,1419127
25,24,female,Netherlands,3,77,guess,win,10,right,1,guess_outcome,0,undefined,0,0,205,331492,1420684
25,24,female,Netherlands,3,77,ITC,win,10,right,1,ITC_start,709,space,0,0,205,330782,1421394
25,24,female,Netherlands,3,77,ITC,win,10,right,1,ITC_choice,711,j,0,0,205,330069,1422107
25,24,female,Netherlands,3,77,ITC,win,10,right,1,ITC_wait,0,undefined,0,0,205,320067,1432109
25,24,female,Netherlands,3,77,ITC,win,10,right,1,ITC_collect,1848,k,0,0,205,318217,1433959
25,24,female,Netherlands,3,77,ITC,win,10,right,1,ITC_outcome,0,undefined,0,0,225,317208,1434968
25,24,female,Netherlands,3,78,guess,loss,5,left,16,guess_start,701,space,0,0,225,316505,1435671
25,24,female,Netherlands,3,78,guess,loss,5,left,16,guess_choice,1589,f,0,0,225,314912,1437264
25,24,female,Netherlands,3,78,guess,loss,5,left,16,guess_outcome,0,undefined,0,0,210,313358,1438818
25,24,female,Netherlands,3,78,ITC,loss,5,left,16,ITC_start,659,space,0,0,210,312697,1439479
25,24,female,Netherlands,3,78,ITC,loss,5,left,16,ITC_choice,687,f,0,0,210,312008,1440168
25,24,female,Netherlands,3,78,ITC,loss,5,left,16,ITC_wait,0,undefined,0,0,210,307001,1445175
25,24,female,Netherlands,3,78,ITC,loss,5,left,16,ITC_collect,761,k,0,0,210,306239,1445937
25,24,female,Netherlands,3,78,ITC,loss,5,left,16,ITC_outcome,0,undefined,0,0,230,305232,1446944
25,24,female,Netherlands,3,79,guess,neutral,5,left,9,guess_start,485,space,0,0,230,304744,1447432
25,24,female,Netherlands,3,79,guess,neutral,5,left,9,guess_choice,752,j,0,0,230,303988,1448188
25,24,female,Netherlands,3,79,guess,neutral,5,left,9,guess_outcome,0,undefined,0,0,230,302431,1449745
25,24,female,Netherlands,3,79,ITC,neutral,5,left,9,ITC_start,699,space,0,0,230,301731,1450445
25,24,female,Netherlands,3,79,ITC,neutral,5,left,9,ITC_choice,835,f,0,0,230,300894,1451282
25,24,female,Netherlands,3,79,ITC,neutral,5,left,9,ITC_wait,0,undefined,0,0,230,295887,1456289
25,24,female,Netherlands,3,79,ITC,neutral,5,left,9,ITC_collect,1103,k,0,0,230,294782,1457394
25,24,female,Netherlands,3,79,ITC,neutral,5,left,9,ITC_outcome,0,undefined,0,0,250,293778,1458398
25,24,female,Netherlands,3,80,guess,win,5,right,6,guess_start,619,space,0,0,250,293157,1459019
25,24,female,Netherlands,3,80,guess,win,5,right,6,guess_choice,623,f,0,0,250,292531,1459645
25,24,female,Netherlands,3,80,guess,win,5,right,6,guess_outcome,0,undefined,0,0,270,290972,1461204
25,24,female,Netherlands,3,80,ITC,win,5,right,6,ITC_start,606,space,0,0,270,290364,1461812
25,24,female,Netherlands,3,80,ITC,win,5,right,6,ITC_choice,633,j,0,0,270,289728,1462448
25,24,female,Netherlands,3,80,ITC,win,5,right,6,ITC_wait,0,undefined,0,0,270,284726,1467450
25,24,female,Netherlands,3,80,ITC,win,5,right,6,ITC_collect,665,k,0,0,270,284058,1468118
25,24,female,Netherlands,3,80,ITC,win,5,right,6,ITC_outcome,0,undefined,0,0,290,283053,1469123
25,24,female,Netherlands,3,81,guess,win,5,right,2,guess_start,916,space,0,0,290,282134,1470042
25,24,female,Netherlands,3,81,guess,win,5,right,2,guess_choice,570,f,0,0,290,281561,1470615
25,24,female,Netherlands,3,81,guess,win,5,right,2,guess_outcome,0,undefined,0,0,310,280006,1472170
25,24,female,Netherlands,3,81,ITC,win,5,right,2,ITC_start,821,space,0,0,310,279183,1472993
25,24,female,Netherlands,3,81,ITC,win,5,right,2,ITC_choice,638,j,0,0,310,278543,1473633
25,24,female,Netherlands,3,81,ITC,win,5,right,2,ITC_wait,0,undefined,0,0,310,273539,1478637
25,24,female,Netherlands,3,81,ITC,win,5,right,2,ITC_collect,640,k,0,0,310,272897,1479279
25,24,female,Netherlands,3,81,ITC,win,5,right,2,ITC_outcome,0,undefined,0,0,330,271890,1480286
25,24,female,Netherlands,3,82,guess,win,5,left,12,guess_start,768,space,0,0,330,271121,1481055
25,24,female,Netherlands,3,82,guess,win,5,left,12,guess_choice,569,j,0,0,330,270548,1481628
25,24,female,Netherlands,3,82,guess,win,5,left,12,guess_outcome,0,undefined,0,0,350,268993,1483183
25,24,female,Netherlands,3,82,ITC,win,5,left,12,ITC_start,766,space,0,0,350,268225,1483951
25,24,female,Netherlands,3,82,ITC,win,5,left,12,ITC_choice,842,f,0,0,350,267381,1484795
25,24,female,Netherlands,3,82,ITC,win,5,left,12,ITC_wait,0,undefined,0,0,350,262373,1489803
25,24,female,Netherlands,3,82,ITC,win,5,left,12,ITC_collect,1078,k,0,0,350,261293,1490883
25,24,female,Netherlands,3,82,ITC,win,5,left,12,ITC_outcome,0,undefined,0,0,370,260290,1491886
25,24,female,Netherlands,3,83,guess,neutral,5,right,14,guess_start,764,space,0,0,370,259523,1492653
25,24,female,Netherlands,3,83,guess,neutral,5,right,14,guess_choice,693,j,0,0,370,258826,1493350
25,24,female,Netherlands,3,83,guess,neutral,5,right,14,guess_outcome,0,undefined,0,0,370,257271,1494905
25,24,female,Netherlands,3,83,ITC,neutral,5,right,14,ITC_start,547,space,0,0,370,256722,1495454
25,24,female,Netherlands,3,83,ITC,neutral,5,right,14,ITC_choice,671,j,0,0,370,256049,1496127
25,24,female,Netherlands,3,83,ITC,neutral,5,right,14,ITC_wait,0,undefined,0,0,370,251042,1501134
25,24,female,Netherlands,3,83,ITC,neutral,5,right,14,ITC_collect,934,k,0,0,370,250105,1502071
25,24,female,Netherlands,3,83,ITC,neutral,5,right,14,ITC_outcome,0,undefined,0,0,390,249098,1503078
25,24,female,Netherlands,3,84,guess,win,5,right,4,guess_start,640,space,0,0,390,248456,1503720
25,24,female,Netherlands,3,84,guess,win,5,right,4,guess_choice,585,f,0,0,390,247867,1504309
25,24,female,Netherlands,3,84,guess,win,5,right,4,guess_outcome,0,undefined,0,0,410,246312,1505864
25,24,female,Netherlands,3,84,ITC,win,5,right,4,ITC_start,745,space,0,0,410,245565,1506611
25,24,female,Netherlands,3,84,ITC,win,5,right,4,ITC_choice,1126,j,0,0,410,244438,1507738
25,24,female,Netherlands,3,84,ITC,win,5,right,4,ITC_wait,0,undefined,0,0,410,239434,1512742
25,24,female,Netherlands,3,84,ITC,win,5,right,4,ITC_collect,640,k,0,0,410,238791,1513385
25,24,female,Netherlands,3,84,ITC,win,5,right,4,ITC_outcome,0,undefined,0,0,430,237783,1514393
25,24,female,Netherlands,3,85,guess,loss,10,left,6,guess_start,669,space,0,0,430,237112,1515064
25,24,female,Netherlands,3,85,guess,loss,10,left,6,guess_choice,744,j,0,0,430,236364,1515812
25,24,female,Netherlands,3,85,guess,loss,10,left,6,guess_outcome,0,undefined,0,0,415,234805,1517371
25,24,female,Netherlands,3,85,ITC,loss,10,left,6,ITC_start,824,space,0,0,415,233980,1518196
25,24,female,Netherlands,3,85,ITC,loss,10,left,6,ITC_choice,739,f,0,0,415,233239,1518937
25,24,female,Netherlands,3,85,ITC,loss,10,left,6,ITC_wait,0,undefined,0,0,415,223232,1528944
25,24,female,Netherlands,3,85,ITC,loss,10,left,6,ITC_collect,860,k,0,0,415,222370,1529806
25,24,female,Netherlands,3,85,ITC,loss,10,left,6,ITC_outcome,0,undefined,0,0,435,221366,1530810
25,24,female,Netherlands,3,86,guess,win,5,right,15,guess_start,967,space,0,0,435,220397,1531779
25,24,female,Netherlands,3,86,guess,win,5,right,15,guess_choice,1206,j,0,0,435,219187,1532989
25,24,female,Netherlands,3,86,guess,win,5,right,15,guess_outcome,0,undefined,0,0,455,217632,1534544
25,24,female,Netherlands,3,86,ITC,win,5,right,15,ITC_start,651,space,0,0,455,216979,1535197
25,24,female,Netherlands,3,86,ITC,win,5,right,15,ITC_choice,839,j,0,0,455,216138,1536038
25,24,female,Netherlands,3,86,ITC,win,5,right,15,ITC_wait,0,undefined,0,0,455,211135,1541041
25,24,female,Netherlands,3,86,ITC,win,5,right,15,ITC_collect,702,k,0,0,455,210431,1541745
25,24,female,Netherlands,3,86,ITC,win,5,right,15,ITC_outcome,0,undefined,0,0,475,209424,1542752
25,24,female,Netherlands,3,87,guess,win,5,right,16,guess_start,611,space,0,0,475,208811,1543365
25,24,female,Netherlands,3,87,guess,win,5,right,16,guess_choice,595,f,0,0,475,208212,1543964
25,24,female,Netherlands,3,87,guess,win,5,right,16,guess_outcome,0,undefined,0,0,495,206654,1545522
25,24,female,Netherlands,3,87,ITC,win,5,right,16,ITC_start,857,space,0,0,495,205795,1546381
25,24,female,Netherlands,3,87,ITC,win,5,right,16,ITC_choice,859,j,0,0,495,204934,1547242
25,24,female,Netherlands,3,87,ITC,win,5,right,16,ITC_wait,0,undefined,0,0,495,199930,1552246
25,24,female,Netherlands,3,87,ITC,win,5,right,16,ITC_collect,753,k,0,0,495,199175,1553001
25,24,female,Netherlands,3,87,ITC,win,5,right,16,ITC_outcome,0,undefined,0,0,515,198170,1554006
25,24,female,Netherlands,3,88,guess,win,5,left,14,guess_start,629,space,0,0,515,197539,1554637
25,24,female,Netherlands,3,88,guess,win,5,left,14,guess_choice,651,j,0,0,515,196884,1555292
25,24,female,Netherlands,3,88,guess,win,5,left,14,guess_outcome,0,undefined,0,0,535,195328,1556848
25,24,female,Netherlands,3,88,ITC,win,5,left,14,ITC_start,715,space,0,0,535,194612,1557564
25,24,female,Netherlands,3,88,ITC,win,5,left,14,ITC_choice,706,f,0,0,535,193904,1558272
25,24,female,Netherlands,3,88,ITC,win,5,left,14,ITC_wait,0,undefined,0,0,535,188899,1563277
25,24,female,Netherlands,3,88,ITC,win,5,left,14,ITC_collect,1025,k,0,0,535,187872,1564304
25,24,female,Netherlands,3,88,ITC,win,5,left,14,ITC_outcome,0,undefined,0,0,555,186867,1565309
25,24,female,Netherlands,3,89,guess,neutral,5,right,11,guess_start,1209,space,0,0,555,185656,1566520
25,24,female,Netherlands,3,89,guess,neutral,5,right,11,guess_choice,832,j,0,0,555,184820,1567356
25,24,female,Netherlands,3,89,guess,neutral,5,right,11,guess_outcome,0,undefined,0,0,555,183265,1568911
25,24,female,Netherlands,3,89,ITC,neutral,5,right,11,ITC_start,2923,space,0,0,555,180340,1571836
25,24,female,Netherlands,3,89,ITC,neutral,5,right,11,ITC_choice,6056,j,0,0,555,174282,1577894
25,24,female,Netherlands,3,89,ITC,neutral,5,right,11,ITC_wait,0,undefined,0,0,555,169280,1582896
25,24,female,Netherlands,3,89,ITC,neutral,5,right,11,ITC_collect,909,k,0,0,555,168369,1583807
25,24,female,Netherlands,3,89,ITC,neutral,5,right,11,ITC_outcome,0,undefined,0,0,575,167365,1584811
25,24,female,Netherlands,3,90,guess,loss,5,right,9,guess_start,619,space,0,0,575,166744,1585432
25,24,female,Netherlands,3,90,guess,loss,5,right,9,guess_choice,706,f,0,0,575,166034,1586142
25,24,female,Netherlands,3,90,guess,loss,5,right,9,guess_outcome,0,undefined,0,0,560,164480,1587696
25,24,female,Netherlands,3,90,ITC,loss,5,right,9,ITC_start,5981,space,0,0,560,158498,1593678
25,24,female,Netherlands,3,90,ITC,loss,5,right,9,ITC_choice,788,j,0,0,560,157707,1594469
25,24,female,Netherlands,3,90,ITC,loss,5,right,9,ITC_wait,0,undefined,0,0,560,152705,1599471
25,24,female,Netherlands,3,90,ITC,loss,5,right,9,ITC_collect,1184,k,0,0,560,151519,1600657
25,24,female,Netherlands,3,90,ITC,loss,5,right,9,ITC_outcome,0,undefined,0,0,580,150516,1601660
25,24,female,Netherlands,3,91,guess,win,5,left,11,guess_start,421,space,0,0,580,150094,1602082
25,24,female,Netherlands,3,91,guess,win,5,left,11,guess_choice,666,j,0,0,580,149424,1602752
25,24,female,Netherlands,3,91,guess,win,5,left,11,guess_outcome,0,undefined,0,0,600,147864,1604312
25,24,female,Netherlands,3,91,ITC,win,5,left,11,ITC_start,650,space,0,0,600,147212,1604964
25,24,female,Netherlands,3,91,ITC,win,5,left,11,ITC_choice,748,f,0,0,600,146462,1605714
25,24,female,Netherlands,3,91,ITC,win,5,left,11,ITC_wait,0,undefined,0,0,600,141460,1610716
25,24,female,Netherlands,3,91,ITC,win,5,left,11,ITC_collect,733,k,0,0,600,140725,1611451
25,24,female,Netherlands,3,91,ITC,win,5,left,11,ITC_outcome,0,undefined,0,0,620,139718,1612458
25,24,female,Netherlands,3,92,guess,loss,10,right,3,guess_start,514,space,0,0,620,139202,1612974
25,24,female,Netherlands,3,92,guess,loss,10,right,3,guess_choice,621,f,0,0,620,138578,1613598
25,24,female,Netherlands,3,92,guess,loss,10,right,3,guess_outcome,0,undefined,0,0,605,137023,1615153
25,24,female,Netherlands,3,92,ITC,loss,10,right,3,ITC_start,768,space,0,0,605,136253,1615923
25,24,female,Netherlands,3,92,ITC,loss,10,right,3,ITC_choice,641,j,0,0,605,135610,1616566
25,24,female,Netherlands,3,92,ITC,loss,10,right,3,ITC_wait,0,undefined,0,0,605,125608,1626568
25,24,female,Netherlands,3,92,ITC,loss,10,right,3,ITC_collect,526,k,0,0,605,125080,1627096
25,24,female,Netherlands,3,92,ITC,loss,10,right,3,ITC_outcome,0,undefined,0,0,625,124074,1628102
25,24,female,Netherlands,3,93,guess,loss,5,left,1,guess_start,601,space,0,0,625,123471,1628705
25,24,female,Netherlands,3,93,guess,loss,5,left,1,guess_choice,580,j,0,0,625,122887,1629289
25,24,female,Netherlands,3,93,guess,loss,5,left,1,guess_outcome,0,undefined,0,0,610,121331,1630845
25,24,female,Netherlands,3,93,ITC,loss,5,left,1,ITC_start,575,space,0,0,610,120754,1631422
25,24,female,Netherlands,3,93,ITC,loss,5,left,1,ITC_choice,540,f,0,0,610,120212,1631964
25,24,female,Netherlands,3,93,ITC,loss,5,left,1,ITC_wait,0,undefined,0,0,610,115205,1636971
25,24,female,Netherlands,3,93,ITC,loss,5,left,1,ITC_collect,678,k,0,0,610,114525,1637651
25,24,female,Netherlands,3,93,ITC,loss,5,left,1,ITC_outcome,0,undefined,0,0,630,113520,1638656
25,24,female,Netherlands,3,94,guess,win,10,right,6,guess_start,491,space,0,0,630,113026,1639150
25,24,female,Netherlands,3,94,guess,win,10,right,6,guess_choice,612,j,0,0,630,112411,1639765
25,24,female,Netherlands,3,94,guess,win,10,right,6,guess_outcome,0,undefined,0,0,650,110853,1641323
25,24,female,Netherlands,3,94,ITC,win,10,right,6,ITC_start,430,space,0,0,650,110422,1641754
25,24,female,Netherlands,3,94,ITC,win,10,right,6,ITC_choice,986,j,0,0,650,109434,1642742
25,24,female,Netherlands,3,94,ITC,win,10,right,6,ITC_wait,0,undefined,0,0,650,99431,1652745
25,24,female,Netherlands,3,94,ITC,win,10,right,6,ITC_collect,612,k,0,0,650,98817,1653359
25,24,female,Netherlands,3,94,ITC,win,10,right,6,ITC_outcome,0,undefined,0,0,670,97810,1654366
25,24,female,Netherlands,3,95,guess,loss,5,left,2,guess_start,620,space,0,0,670,97187,1654989
25,24,female,Netherlands,3,95,guess,loss,5,left,2,guess_choice,527,f,0,0,670,96656,1655520
25,24,female,Netherlands,3,95,guess,loss,5,left,2,guess_outcome,0,undefined,0,0,655,95101,1657075
25,24,female,Netherlands,3,95,ITC,loss,5,left,2,ITC_start,654,space,0,0,655,94445,1657731
25,24,female,Netherlands,3,95,ITC,loss,5,left,2,ITC_choice,771,f,0,0,655,93672,1658504
25,24,female,Netherlands,3,95,ITC,loss,5,left,2,ITC_wait,0,undefined,0,0,655,88668,1663508
25,24,female,Netherlands,3,95,ITC,loss,5,left,2,ITC_collect,614,k,0,0,655,88052,1664124
25,24,female,Netherlands,3,95,ITC,loss,5,left,2,ITC_outcome,0,undefined,0,0,675,87045,1665131
25,24,female,Netherlands,3,96,guess,neutral,5,right,12,guess_start,517,space,0,0,675,86526,1665650
25,24,female,Netherlands,3,96,guess,neutral,5,right,12,guess_choice,774,j,0,0,675,85749,1666427
25,24,female,Netherlands,3,96,guess,neutral,5,right,12,guess_outcome,0,undefined,0,0,675,84190,1667986
25,24,female,Netherlands,3,96,ITC,neutral,5,right,12,ITC_start,536,space,0,0,675,83652,1668524
25,24,female,Netherlands,3,96,ITC,neutral,5,right,12,ITC_choice,669,j,0,0,675,82981,1669195
25,24,female,Netherlands,3,96,ITC,neutral,5,right,12,ITC_wait,0,undefined,0,0,675,77974,1674202
25,24,female,Netherlands,3,96,ITC,neutral,5,right,12,ITC_collect,695,k,0,0,675,77277,1674899
25,24,female,Netherlands,3,96,ITC,neutral,5,right,12,ITC_outcome,0,undefined,0,0,695,76274,1675902
25,24,female,Netherlands,3,97,guess,neutral,5,left,2,guess_start,436,space,0,0,695,75835,1676341
25,24,female,Netherlands,3,97,guess,neutral,5,left,2,guess_choice,712,j,0,0,695,75120,1677056
25,24,female,Netherlands,3,97,guess,neutral,5,left,2,guess_outcome,0,undefined,0,0,695,73561,1678615
25,24,female,Netherlands,3,97,ITC,neutral,5,left,2,ITC_start,602,space,0,0,695,72957,1679219
25,24,female,Netherlands,3,97,ITC,neutral,5,left,2,ITC_choice,633,f,0,0,695,72322,1679854
25,24,female,Netherlands,3,97,ITC,neutral,5,left,2,ITC_wait,0,undefined,0,0,695,67320,1684856
25,24,female,Netherlands,3,97,ITC,neutral,5,left,2,ITC_collect,413,k,0,0,695,66904,1685272
25,24,female,Netherlands,3,97,ITC,neutral,5,left,2,ITC_outcome,0,undefined,0,0,715,65898,1686278
25,24,female,Netherlands,3,98,guess,win,5,left,5,guess_start,1051,space,0,0,715,64845,1687331
25,24,female,Netherlands,3,98,guess,win,5,left,5,guess_choice,1988,f,0,0,715,62853,1689323
25,24,female,Netherlands,3,98,guess,win,5,left,5,guess_outcome,0,undefined,0,0,735,61298,1690878
25,24,female,Netherlands,3,98,ITC,win,5,left,5,ITC_start,515,space,0,0,735,60782,1691394
25,24,female,Netherlands,3,98,ITC,win,5,left,5,ITC_choice,872,f,0,0,735,59908,1692268
25,24,female,Netherlands,3,98,ITC,win,5,left,5,ITC_wait,0,undefined,0,0,735,54901,1697275
25,24,female,Netherlands,3,98,ITC,win,5,left,5,ITC_collect,470,k,0,0,735,54428,1697748
25,24,female,Netherlands,3,98,ITC,win,5,left,5,ITC_outcome,0,undefined,0,0,755,53421,1698755
25,24,female,Netherlands,3,99,guess,neutral,5,left,8,guess_start,811,space,0,0,755,52608,1699568
25,24,female,Netherlands,3,99,guess,neutral,5,left,8,guess_choice,760,j,0,0,755,51844,1700332
25,24,female,Netherlands,3,99,guess,neutral,5,left,8,guess_outcome,0,undefined,0,0,755,50289,1701887
25,24,female,Netherlands,3,99,ITC,neutral,5,left,8,ITC_start,785,space,0,0,755,49501,1702675
25,24,female,Netherlands,3,99,ITC,neutral,5,left,8,ITC_choice,812,f,0,0,755,48687,1703489
25,24,female,Netherlands,3,99,ITC,neutral,5,left,8,ITC_wait,0,undefined,0,0,755,43682,1708494
25,24,female,Netherlands,3,99,ITC,neutral,5,left,8,ITC_collect,635,k,0,0,755,43044,1709132
25,24,female,Netherlands,3,99,ITC,neutral,5,left,8,ITC_outcome,0,undefined,0,0,775,42038,1710138
25,24,female,Netherlands,3,100,guess,neutral,10,left,8,guess_start,602,space,0,0,775,41434,1710742
25,24,female,Netherlands,3,100,guess,neutral,10,left,8,guess_choice,584,j,0,0,775,40846,1711330
25,24,female,Netherlands,3,100,guess,neutral,10,left,8,guess_outcome,0,undefined,0,0,775,39291,1712885
25,24,female,Netherlands,3,100,ITC,neutral,10,left,8,ITC_start,495,space,0,0,775,38793,1713383
25,24,female,Netherlands,3,100,ITC,neutral,10,left,8,ITC_choice,539,f,0,0,775,38252,1713924
25,24,female,Netherlands,3,100,ITC,neutral,10,left,8,ITC_wait,0,undefined,0,0,775,28245,1723931
25,24,female,Netherlands,3,100,ITC,neutral,10,left,8,ITC_collect,507,k,0,0,775,27736,1724440
25,24,female,Netherlands,3,100,ITC,neutral,10,left,8,ITC_outcome,0,undefined,0,0,795,26731,1725445
25,24,female,Netherlands,3,101,guess,loss,5,right,4,guess_start,687,space,0,0,795,26042,1726134
25,24,female,Netherlands,3,101,guess,loss,5,right,4,guess_choice,1621,j,0,0,795,24417,1727759
25,24,female,Netherlands,3,101,guess,loss,5,right,4,guess_outcome,0,undefined,0,0,780,22860,1729316
25,24,female,Netherlands,3,101,ITC,loss,5,right,4,ITC_start,495,space,0,0,780,22363,1729813
25,24,female,Netherlands,3,101,ITC,loss,5,right,4,ITC_choice,961,j,0,0,780,21399,1730777
25,24,female,Netherlands,3,101,ITC,loss,5,right,4,ITC_wait,0,undefined,0,0,780,16395,1735781
25,24,female,Netherlands,3,101,ITC,loss,5,right,4,ITC_collect,451,k,0,0,780,15942,1736234
25,24,female,Netherlands,3,101,ITC,loss,5,right,4,ITC_outcome,0,undefined,0,0,800,14935,1737241
25,24,female,Netherlands,3,102,guess,loss,5,left,3,guess_start,859,space,0,0,800,14073,1738103
25,24,female,Netherlands,3,102,guess,loss,5,left,3,guess_choice,628,j,0,0,800,13440,1738736
25,24,female,Netherlands,3,102,guess,loss,5,left,3,guess_outcome,0,undefined,0,0,785,11881,1740295
25,24,female,Netherlands,3,102,ITC,loss,5,left,3,ITC_start,721,space,0,0,785,11158,1741018
25,24,female,Netherlands,3,102,ITC,loss,5,left,3,ITC_choice,551,f,0,0,785,10604,1741572
25,24,female,Netherlands,3,102,ITC,loss,5,left,3,ITC_wait,0,undefined,0,0,785,5601,1746575
25,24,female,Netherlands,3,102,ITC,loss,5,left,3,ITC_collect,404,k,0,0,785,5194,1746982
25,24,female,Netherlands,3,102,ITC,loss,5,left,3,ITC_outcome,0,undefined,0,0,805,4190,1747986
25,24,female,Netherlands,3,103,guess,loss,5,left,14,guess_start,451,space,0,0,805,3737,1748439
25,24,female,Netherlands,3,103,guess,loss,5,left,14,guess_choice,758,j,0,0,805,2975,1749201
25,24,female,Netherlands,3,103,guess,loss,5,left,14,guess_outcome,0,undefined,0,0,790,1420,1750756
25,24,female,Netherlands,3,103,ITC,loss,5,left,14,ITC_start,936,space,0,0,790,482,1751694
25,24,female,Netherlands,3,103,ITC,loss,5,left,14,ITC_choice,0,undefined,0,0,790,-4,1752180
25,24,female,Netherlands,4,104,guess,neutral,10,right,7,guess_start,1371,space,0,0,0,478628,1813631
25,24,female,Netherlands,4,104,guess,neutral,10,right,7,guess_choice,759,j,0,0,0,477865,1814394
25,24,female,Netherlands,4,104,guess,neutral,10,right,7,guess_outcome,0,undefined,0,0,0,476311,1815948
25,24,female,Netherlands,4,104,ITC,neutral,10,right,7,ITC_start,512,space,0,0,0,475797,1816462
25,24,female,Netherlands,4,104,ITC,neutral,10,right,7,ITC_choice,734,j,0,0,0,475061,1817198
25,24,female,Netherlands,4,104,ITC,neutral,10,right,7,ITC_wait,0,undefined,0,0,0,465060,1827199
25,24,female,Netherlands,4,104,ITC,neutral,10,right,7,ITC_collect,636,k,0,0,0,464421,1827838
25,24,female,Netherlands,4,104,ITC,neutral,10,right,7,ITC_outcome,0,undefined,0,0,20,463414,1828845
25,24,female,Netherlands,4,105,guess,win,5,right,1,guess_start,557,space,0,0,20,462855,1829404
25,24,female,Netherlands,4,105,guess,win,5,right,1,guess_choice,592,j,0,0,20,462260,1829999
25,24,female,Netherlands,4,105,guess,win,5,right,1,guess_outcome,0,undefined,0,0,40,460702,1831557
25,24,female,Netherlands,4,105,ITC,win,5,right,1,ITC_start,564,space,0,0,40,460136,1832123
25,24,female,Netherlands,4,105,ITC,win,5,right,1,ITC_choice,623,j,0,0,40,459509,1832750
25,24,female,Netherlands,4,105,ITC,win,5,right,1,ITC_wait,0,undefined,0,0,40,454506,1837753
25,24,female,Netherlands,4,105,ITC,win,5,right,1,ITC_collect,896,k,0,0,40,453608,1838651
25,24,female,Netherlands,4,105,ITC,win,5,right,1,ITC_outcome,0,undefined,0,0,60,452602,1839657
25,24,female,Netherlands,4,106,guess,loss,5,left,13,guess_start,716,space,0,0,60,451883,1840376
25,24,female,Netherlands,4,106,guess,loss,5,left,13,guess_choice,471,j,0,0,60,451409,1840850
25,24,female,Netherlands,4,106,guess,loss,5,left,13,guess_outcome,0,undefined,0,0,45,449850,1842409
25,24,female,Netherlands,4,106,ITC,loss,5,left,13,ITC_start,417,space,0,0,45,449431,1842828
25,24,female,Netherlands,4,106,ITC,loss,5,left,13,ITC_choice,561,f,0,0,45,448869,1843390
25,24,female,Netherlands,4,106,ITC,loss,5,left,13,ITC_wait,0,undefined,0,0,45,443863,1848396
25,24,female,Netherlands,4,106,ITC,loss,5,left,13,ITC_collect,608,k,0,0,45,443252,1849007
25,24,female,Netherlands,4,106,ITC,loss,5,left,13,ITC_outcome,0,undefined,0,0,65,442246,1850013
25,24,female,Netherlands,4,107,guess,neutral,5,right,16,guess_start,475,space,0,0,65,441769,1850490
25,24,female,Netherlands,4,107,guess,neutral,5,right,16,guess_choice,826,f,0,0,65,440939,1851320
25,24,female,Netherlands,4,107,guess,neutral,5,right,16,guess_outcome,0,undefined,0,0,65,439382,1852877
25,24,female,Netherlands,4,107,ITC,neutral,5,right,16,ITC_start,612,space,0,0,65,438768,1853491
25,24,female,Netherlands,4,107,ITC,neutral,5,right,16,ITC_choice,545,j,0,0,65,438220,1854039
25,24,female,Netherlands,4,107,ITC,neutral,5,right,16,ITC_wait,0,undefined,0,0,65,433217,1859042
25,24,female,Netherlands,4,107,ITC,neutral,5,right,16,ITC_collect,473,k,0,0,65,432741,1859518
25,24,female,Netherlands,4,107,ITC,neutral,5,right,16,ITC_outcome,0,undefined,0,0,85,431735,1860524
25,24,female,Netherlands,4,108,guess,loss,10,left,5,guess_start,468,space,0,0,85,431264,1860995
25,24,female,Netherlands,4,108,guess,loss,10,left,5,guess_choice,564,f,0,0,85,430696,1861563
25,24,female,Netherlands,4,108,guess,loss,10,left,5,guess_outcome,0,undefined,0,0,70,429138,1863121
25,24,female,Netherlands,4,108,ITC,loss,10,left,5,ITC_start,875,space,0,0,70,428261,1863998
25,24,female,Netherlands,4,108,ITC,loss,10,left,5,ITC_choice,564,f,0,0,70,427694,1864565
25,24,female,Netherlands,4,108,ITC,loss,10,left,5,ITC_wait,0,undefined,0,0,70,417689,1874570
25,24,female,Netherlands,4,108,ITC,loss,10,left,5,ITC_collect,685,k,0,0,70,417002,1875257
25,24,female,Netherlands,4,108,ITC,loss,10,left,5,ITC_outcome,0,undefined,0,0,90,415995,1876264
25,24,female,Netherlands,4,109,guess,loss,5,left,7,guess_start,551,space,0,0,90,415441,1876818
25,24,female,Netherlands,4,109,guess,loss,5,left,7,guess_choice,974,f,0,0,90,414463,1877796
25,24,female,Netherlands,4,109,guess,loss,5,left,7,guess_outcome,0,undefined,0,0,75,412909,1879350
25,24,female,Netherlands,4,109,ITC,loss,5,left,7,ITC_start,518,space,0,0,75,412388,1879871
25,24,female,Netherlands,4,109,ITC,loss,5,left,7,ITC_choice,651,f,0,0,75,411735,1880524
25,24,female,Netherlands,4,109,ITC,loss,5,left,7,ITC_wait,0,undefined,0,0,75,406727,1885532
25,24,female,Netherlands,4,109,ITC,loss,5,left,7,ITC_collect,1108,k,0,0,75,405617,1886642
25,24,female,Netherlands,4,109,ITC,loss,5,left,7,ITC_outcome,0,undefined,0,0,95,404613,1887646
25,24,female,Netherlands,4,110,guess,win,5,left,13,guess_start,516,space,0,0,95,404095,1888164
25,24,female,Netherlands,4,110,guess,win,5,left,13,guess_choice,647,f,0,0,95,403444,1888815
25,24,female,Netherlands,4,110,guess,win,5,left,13,guess_outcome,0,undefined,0,0,115,401888,1890371
25,24,female,Netherlands,4,110,ITC,win,5,left,13,ITC_start,491,space,0,0,115,401396,1890863
25,24,female,Netherlands,4,110,ITC,win,5,left,13,ITC_choice,678,f,0,0,115,400715,1891544
25,24,female,Netherlands,4,110,ITC,win,5,left,13,ITC_wait,0,undefined,0,0,115,395709,1896550
25,24,female,Netherlands,4,110,ITC,win,5,left,13,ITC_collect,891,k,0,0,115,394817,1897442
25,24,female,Netherlands,4,110,ITC,win,5,left,13,ITC_outcome,0,undefined,0,0,135,393810,1898449
25,24,female,Netherlands,4,111,guess,loss,10,left,7,guess_start,523,space,0,0,135,393285,1898974
25,24,female,Netherlands,4,111,guess,loss,10,left,7,guess_choice,558,j,0,0,135,392723,1899536
25,24,female,Netherlands,4,111,guess,loss,10,left,7,guess_outcome,0,undefined,0,0,120,391168,1901091
25,24,female,Netherlands,4,111,ITC,loss,10,left,7,ITC_start,666,space,0,0,120,390500,1901759
25,24,female,Netherlands,4,111,ITC,loss,10,left,7,ITC_choice,590,f,0,0,120,389908,1902351
25,24,female,Netherlands,4,111,ITC,loss,10,left,7,ITC_wait,0,undefined,0,0,120,379901,1912358
25,24,female,Netherlands,4,111,ITC,loss,10,left,7,ITC_collect,2016,k,0,0,120,377882,1914377
25,24,female,Netherlands,4,111,ITC,loss,10,left,7,ITC_outcome,0,undefined,0,0,140,376875,1915384
25,24,female,Netherlands,4,112,guess,win,5,left,10,guess_start,780,space,0,0,140,376093,1916166
25,24,female,Netherlands,4,112,guess,win,5,left,10,guess_choice,1161,j,0,0,140,374927,1917332
25,24,female,Netherlands,4,112,guess,win,5,left,10,guess_outcome,0,undefined,0,0,160,373369,1918890
25,24,female,Netherlands,4,112,ITC,win,5,left,10,ITC_start,747,space,0,0,160,372620,1919639
25,24,female,Netherlands,4,112,ITC,win,5,left,10,ITC_choice,597,f,0,0,160,372021,1920238
25,24,female,Netherlands,4,112,ITC,win,5,left,10,ITC_wait,0,undefined,0,0,160,367019,1925240
25,24,female,Netherlands,4,112,ITC,win,5,left,10,ITC_collect,495,k,0,0,160,366522,1925737
25,24,female,Netherlands,4,112,ITC,win,5,left,10,ITC_outcome,0,undefined,0,0,180,365515,1926744
25,24,female,Netherlands,4,113,guess,win,5,right,8,guess_start,528,space,0,0,180,364985,1927274
25,24,female,Netherlands,4,113,guess,win,5,right,8,guess_choice,564,f,0,0,180,364417,1927842
25,24,female,Netherlands,4,113,guess,win,5,right,8,guess_outcome,0,undefined,0,0,200,362858,1929401
25,24,female,Netherlands,4,113,ITC,win,5,right,8,ITC_start,851,space,0,0,200,362005,1930254
25,24,female,Netherlands,4,113,ITC,win,5,right,8,ITC_choice,1168,j,0,0,200,360835,1931424
25,24,female,Netherlands,4,113,ITC,win,5,right,8,ITC_wait,0,undefined,0,0,200,355828,1936431
25,24,female,Netherlands,4,113,ITC,win,5,right,8,ITC_collect,548,k,0,0,200,355277,1936982
25,24,female,Netherlands,4,113,ITC,win,5,right,8,ITC_outcome,0,undefined,0,0,220,354273,1937986
25,24,female,Netherlands,4,114,guess,win,10,left,3,guess_start,464,space,0,0,220,353807,1938452
25,24,female,Netherlands,4,114,guess,win,10,left,3,guess_choice,541,f,0,0,220,353262,1938997
25,24,female,Netherlands,4,114,guess,win,10,left,3,guess_outcome,0,undefined,0,0,240,351707,1940552
25,24,female,Netherlands,4,114,ITC,win,10,left,3,ITC_start,520,space,0,0,240,351184,1941075
25,24,female,Netherlands,4,114,ITC,win,10,left,3,ITC_choice,570,f,0,0,240,350612,1941647
25,24,female,Netherlands,4,114,ITC,win,10,left,3,ITC_wait,0,undefined,0,0,240,340608,1951651
25,24,female,Netherlands,4,114,ITC,win,10,left,3,ITC_collect,531,k,0,0,240,340075,1952184
25,24,female,Netherlands,4,114,ITC,win,10,left,3,ITC_outcome,0,undefined,0,0,260,339071,1953188
25,24,female,Netherlands,4,115,guess,neutral,5,right,13,guess_start,704,space,0,0,260,338365,1953894
25,24,female,Netherlands,4,115,guess,neutral,5,right,13,guess_choice,670,f,0,0,260,337690,1954569
25,24,female,Netherlands,4,115,guess,neutral,5,right,13,guess_outcome,0,undefined,0,0,260,336135,1956124
25,24,female,Netherlands,4,115,ITC,neutral,5,right,13,ITC_start,782,space,0,0,260,335350,1956909
25,24,female,Netherlands,4,115,ITC,neutral,5,right,13,ITC_choice,678,j,0,0,260,334670,1957589
25,24,female,Netherlands,4,115,ITC,neutral,5,right,13,ITC_wait,0,undefined,0,0,260,329663,1962596
25,24,female,Netherlands,4,115,ITC,neutral,5,right,13,ITC_collect,779,k,0,0,260,328882,1963377
25,24,female,Netherlands,4,115,ITC,neutral,5,right,13,ITC_outcome,0,undefined,0,0,280,327875,1964384
25,24,female,Netherlands,4,116,guess,neutral,5,right,15,guess_start,458,space,0,0,280,327414,1964845
25,24,female,Netherlands,4,116,guess,neutral,5,right,15,guess_choice,941,j,0,0,280,326470,1965789
25,24,female,Netherlands,4,116,guess,neutral,5,right,15,guess_outcome,0,undefined,0,0,280,324912,1967347
25,24,female,Netherlands,4,116,ITC,neutral,5,right,15,ITC_start,440,space,0,0,280,324470,1967789
25,24,female,Netherlands,4,116,ITC,neutral,5,right,15,ITC_choice,579,j,0,0,280,323889,1968370
25,24,female,Netherlands,4,116,ITC,neutral,5,right,15,ITC_wait,0,undefined,0,0,280,318887,1973372
25,24,female,Netherlands,4,116,ITC,neutral,5,right,15,ITC_collect,944,k,0,0,280,317940,1974319
25,24,female,Netherlands,4,116,ITC,neutral,5,right,15,ITC_outcome,0,undefined,0,0,300,316933,1975326
25,24,female,Netherlands,4,117,guess,neutral,10,left,1,guess_start,436,space,0,0,300,316495,1975764
25,24,female,Netherlands,4,117,guess,neutral,10,left,1,guess_choice,694,j,0,0,300,315797,1976462
25,24,female,Netherlands,4,117,guess,neutral,10,left,1,guess_outcome,0,undefined,0,0,300,314239,1978020
25,24,female,Netherlands,4,117,ITC,neutral,10,left,1,ITC_start,581,space,0,0,300,313655,1978604
25,24,female,Netherlands,4,117,ITC,neutral,10,left,1,ITC_choice,785,f,0,0,300,312868,1979391
25,24,female,Netherlands,4,117,ITC,neutral,10,left,1,ITC_wait,0,undefined,0,0,300,302861,1989398
25,24,female,Netherlands,4,117,ITC,neutral,10,left,1,ITC_collect,796,k,0,0,300,302063,1990196
25,24,female,Netherlands,4,117,ITC,neutral,10,left,1,ITC_outcome,0,undefined,0,0,320,301057,1991202
25,24,female,Netherlands,4,118,guess,loss,10,right,8,guess_start,652,space,0,0,320,300402,1991857
25,24,female,Netherlands,4,118,guess,loss,10,right,8,guess_choice,802,f,0,0,320,299597,1992662
25,24,female,Netherlands,4,118,guess,loss,10,right,8,guess_outcome,0,undefined,0,0,305,298039,1994220
25,24,female,Netherlands,4,118,ITC,loss,10,right,8,ITC_start,502,space,0,0,305,297535,1994724
25,24,female,Netherlands,4,118,ITC,loss,10,right,8,ITC_choice,598,j,0,0,305,296936,1995323
25,24,female,Netherlands,4,118,ITC,loss,10,right,8,ITC_wait,0,undefined,0,0,305,286930,2005329
25,24,female,Netherlands,4,118,ITC,loss,10,right,8,ITC_collect,617,k,0,0,305,286311,2005948
25,24,female,Netherlands,4,118,ITC,loss,10,right,8,ITC_outcome,0,undefined,0,0,325,285307,2006952
25,24,female,Netherlands,4,119,guess,neutral,10,left,4,guess_start,520,space,0,0,325,284784,2007475
25,24,female,Netherlands,4,119,guess,neutral,10,left,4,guess_choice,809,j,0,0,325,283972,2008287
25,24,female,Netherlands,4,119,guess,neutral,10,left,4,guess_outcome,0,undefined,0,0,325,282413,2009846
25,24,female,Netherlands,4,119,ITC,neutral,10,left,4,ITC_start,1027,space,0,0,325,281384,2010875
25,24,female,Netherlands,4,119,ITC,neutral,10,left,4,ITC_choice,758,f,0,0,325,280624,2011635
25,24,female,Netherlands,4,119,ITC,neutral,10,left,4,ITC_wait,0,undefined,0,0,325,270621,2021638
25,24,female,Netherlands,4,119,ITC,neutral,10,left,4,ITC_collect,1159,k,0,0,325,269461,2022798
25,24,female,Netherlands,4,119,ITC,neutral,10,left,4,ITC_outcome,0,undefined,0,0,345,268454,2023805
25,24,female,Netherlands,4,120,guess,neutral,5,left,3,guess_start,644,space,0,0,345,267808,2024451
25,24,female,Netherlands,4,120,guess,neutral,5,left,3,guess_choice,675,j,0,0,345,267129,2025130
25,24,female,Netherlands,4,120,guess,neutral,5,left,3,guess_outcome,0,undefined,0,0,345,265575,2026684
25,24,female,Netherlands,4,120,ITC,neutral,5,left,3,ITC_start,1134,space,0,0,345,264439,2027820
25,24,female,Netherlands,4,120,ITC,neutral,5,left,3,ITC_choice,2501,f,0,0,345,261935,2030324
25,24,female,Netherlands,4,120,ITC,neutral,5,left,3,ITC_wait,0,undefined,0,0,345,256933,2035326
25,24,female,Netherlands,4,120,ITC,neutral,5,left,3,ITC_collect,531,k,0,0,345,256400,2035859
25,24,female,Netherlands,4,120,ITC,neutral,5,left,3,ITC_outcome,0,undefined,0,0,365,255393,2036866
25,24,female,Netherlands,4,121,guess,win,10,right,7,guess_start,402,space,0,0,365,254989,2037270
25,24,female,Netherlands,4,121,guess,win,10,right,7,guess_choice,560,j,0,0,365,254425,2037834
25,24,female,Netherlands,4,121,guess,win,10,right,7,guess_outcome,0,undefined,0,0,385,252871,2039388
25,24,female,Netherlands,4,121,ITC,win,10,right,7,ITC_start,506,space,0,0,385,252362,2039897
25,24,female,Netherlands,4,121,ITC,win,10,right,7,ITC_choice,539,j,0,0,385,251821,2040438
25,24,female,Netherlands,4,121,ITC,win,10,right,7,ITC_wait,0,undefined,0,0,385,241815,2050444
25,24,female,Netherlands,4,121,ITC,win,10,right,7,ITC_collect,533,k,0,0,385,241279,2050980
25,24,female,Netherlands,4,121,ITC,win,10,right,7,ITC_outcome,0,undefined,0,0,405,240272,2051987
25,24,female,Netherlands,4,122,guess,loss,10,right,1,guess_start,531,space,0,0,405,239739,2052520
25,24,female,Netherlands,4,122,guess,loss,10,right,1,guess_choice,770,j,0,0,405,238965,2053294
25,24,female,Netherlands,4,122,guess,loss,10,right,1,guess_outcome,0,undefined,0,0,390,237409,2054850
25,24,female,Netherlands,4,122,ITC,loss,10,right,1,ITC_start,544,space,0,0,390,236863,2055396
25,24,female,Netherlands,4,122,ITC,loss,10,right,1,ITC_choice,850,j,0,0,390,236010,2056249
25,24,female,Netherlands,4,122,ITC,loss,10,right,1,ITC_wait,0,undefined,0,0,390,226007,2066252
25,24,female,Netherlands,4,122,ITC,loss,10,right,1,ITC_collect,645,k,0,0,390,225360,2066899
25,24,female,Netherlands,4,122,ITC,loss,10,right,1,ITC_outcome,0,undefined,0,0,410,224353,2067906
25,24,female,Netherlands,4,123,guess,neutral,5,left,5,guess_start,523,space,0,0,410,223827,2068432
25,24,female,Netherlands,4,123,guess,neutral,5,left,5,guess_choice,785,f,0,0,410,223039,2069220
25,24,female,Netherlands,4,123,guess,neutral,5,left,5,guess_outcome,0,undefined,0,0,410,221480,2070779
25,24,female,Netherlands,4,123,ITC,neutral,5,left,5,ITC_start,986,space,0,0,410,220492,2071767
25,24,female,Netherlands,4,123,ITC,neutral,5,left,5,ITC_choice,561,f,0,0,410,219929,2072330
25,24,female,Netherlands,4,123,ITC,neutral,5,left,5,ITC_wait,0,undefined,0,0,410,214923,2077336
25,24,female,Netherlands,4,123,ITC,neutral,5,left,5,ITC_collect,1815,k,0,0,410,213107,2079152
25,24,female,Netherlands,4,123,ITC,neutral,5,left,5,ITC_outcome,0,undefined,0,0,430,212102,2080157
25,24,female,Netherlands,4,124,guess,win,5,left,9,guess_start,466,space,0,0,430,211634,2080625
25,24,female,Netherlands,4,124,guess,win,5,left,9,guess_choice,655,f,0,0,430,210975,2081284
25,24,female,Netherlands,4,124,guess,win,5,left,9,guess_outcome,0,undefined,0,0,450,209416,2082843
25,24,female,Netherlands,4,124,ITC,win,5,left,9,ITC_start,374,space,0,0,450,209041,2083218
25,24,female,Netherlands,4,124,ITC,win,5,left,9,ITC_choice,555,f,0,0,450,208483,2083776
25,24,female,Netherlands,4,124,ITC,win,5,left,9,ITC_wait,0,undefined,0,0,450,203476,2088783
25,24,female,Netherlands,4,124,ITC,win,5,left,9,ITC_collect,436,k,0,0,450,203037,2089222
25,24,female,Netherlands,4,124,ITC,win,5,left,9,ITC_outcome,0,undefined,0,0,470,202030,2090229
25,24,female,Netherlands,4,125,guess,neutral,10,right,6,guess_start,360,space,0,0,470,201668,2090591
25,24,female,Netherlands,4,125,guess,neutral,10,right,6,guess_choice,694,f,0,0,470,200970,2091289
25,24,female,Netherlands,4,125,guess,neutral,10,right,6,guess_outcome,0,undefined,0,0,470,199411,2092848
25,24,female,Netherlands,4,125,ITC,neutral,10,right,6,ITC_start,544,space,0,0,470,198865,2093394
25,24,female,Netherlands,4,125,ITC,neutral,10,right,6,ITC_choice,678,j,0,0,470,198185,2094074
25,24,female,Netherlands,4,125,ITC,neutral,10,right,6,ITC_wait,0,undefined,0,0,470,188178,2104081
25,24,female,Netherlands,4,125,ITC,neutral,10,right,6,ITC_collect,434,k,0,0,470,187742,2104517
25,24,female,Netherlands,4,125,ITC,neutral,10,right,6,ITC_outcome,0,undefined,0,0,490,186735,2105524
25,24,female,Netherlands,4,126,guess,win,5,right,3,guess_start,444,space,0,0,490,186289,2105970
25,24,female,Netherlands,4,126,guess,win,5,right,3,guess_choice,659,f,0,0,490,185626,2106633
25,24,female,Netherlands,4,126,guess,win,5,right,3,guess_outcome,0,undefined,0,0,510,184071,2108188
25,24,female,Netherlands,4,126,ITC,win,5,right,3,ITC_start,498,space,0,0,510,183571,2108688
25,24,female,Netherlands,4,126,ITC,win,5,right,3,ITC_choice,602,j,0,0,510,182966,2109293
25,24,female,Netherlands,4,126,ITC,win,5,right,3,ITC_wait,0,undefined,0,0,510,177963,2114296
25,24,female,Netherlands,4,126,ITC,win,5,right,3,ITC_collect,929,k,0,0,510,177032,2115227
25,24,female,Netherlands,4,126,ITC,win,5,right,3,ITC_outcome,0,undefined,0,0,530,176026,2116233
25,24,female,Netherlands,4,127,guess,neutral,10,right,3,guess_start,541,space,0,0,530,175482,2116777
25,24,female,Netherlands,4,127,guess,neutral,10,right,3,guess_choice,708,f,0,0,530,174771,2117488
25,24,female,Netherlands,4,127,guess,neutral,10,right,3,guess_outcome,0,undefined,0,0,530,173212,2119047
25,24,female,Netherlands,4,127,ITC,neutral,10,right,3,ITC_start,763,space,0,0,530,172447,2119812
25,24,female,Netherlands,4,127,ITC,neutral,10,right,3,ITC_choice,610,j,0,0,530,171835,2120424
25,24,female,Netherlands,4,127,ITC,neutral,10,right,3,ITC_wait,0,undefined,0,0,530,161828,2130431
25,24,female,Netherlands,4,127,ITC,neutral,10,right,3,ITC_collect,633,k,0,0,530,161193,2131066
25,24,female,Netherlands,4,127,ITC,neutral,10,right,3,ITC_outcome,0,undefined,0,0,550,160186,2132073
25,24,female,Netherlands,4,128,guess,loss,5,left,10,guess_start,632,space,0,0,550,159551,2132708
25,24,female,Netherlands,4,128,guess,loss,5,left,10,guess_choice,628,f,0,0,550,158919,2133340
25,24,female,Netherlands,4,128,guess,loss,5,left,10,guess_outcome,0,undefined,0,0,535,157360,2134899
25,24,female,Netherlands,4,128,ITC,loss,5,left,10,ITC_start,657,space,0,0,535,156699,2135560
25,24,female,Netherlands,4,128,ITC,loss,5,left,10,ITC_choice,673,f,0,0,535,156024,2136235
25,24,female,Netherlands,4,128,ITC,loss,5,left,10,ITC_wait,0,undefined,0,0,535,151022,2141237
25,24,female,Netherlands,4,128,ITC,loss,5,left,10,ITC_collect,508,k,0,0,535,150513,2141746
25,24,female,Netherlands,4,128,ITC,loss,5,left,10,ITC_outcome,0,undefined,0,0,555,149507,2142752
25,24,female,Netherlands,4,129,guess,loss,5,left,11,guess_start,536,space,0,0,555,148969,2143290
25,24,female,Netherlands,4,129,guess,loss,5,left,11,guess_choice,736,j,0,0,555,148230,2144029
25,24,female,Netherlands,4,129,guess,loss,5,left,11,guess_outcome,0,undefined,0,0,540,146675,2145584
25,24,female,Netherlands,4,129,ITC,loss,5,left,11,ITC_start,875,space,0,0,540,145797,2146462
25,24,female,Netherlands,4,129,ITC,loss,5,left,11,ITC_choice,652,f,0,0,540,145143,2147116
25,24,female,Netherlands,4,129,ITC,loss,5,left,11,ITC_wait,0,undefined,0,0,540,140137,2152122
25,24,female,Netherlands,4,129,ITC,loss,5,left,11,ITC_collect,1211,k,0,0,540,138924,2153335
25,24,female,Netherlands,4,129,ITC,loss,5,left,11,ITC_outcome,0,undefined,0,0,560,137917,2154342
25,24,female,Netherlands,4,130,guess,neutral,10,right,5,guess_start,737,space,0,0,560,137177,2155082
25,24,female,Netherlands,4,130,guess,neutral,10,right,5,guess_choice,753,j,0,0,560,136420,2155839
25,24,female,Netherlands,4,130,guess,neutral,10,right,5,guess_outcome,0,undefined,0,0,560,134866,2157393
25,24,female,Netherlands,4,130,ITC,neutral,10,right,5,ITC_start,878,space,0,0,560,133987,2158272
25,24,female,Netherlands,4,130,ITC,neutral,10,right,5,ITC_choice,619,j,0,0,560,133366,2158893
25,24,female,Netherlands,4,130,ITC,neutral,10,right,5,ITC_wait,0,undefined,0,0,560,123362,2168897
25,24,female,Netherlands,4,130,ITC,neutral,10,right,5,ITC_collect,533,k,0,0,560,122827,2169432
25,24,female,Netherlands,4,130,ITC,neutral,10,right,5,ITC_outcome,0,undefined,0,0,580,121821,2170438
25,24,female,Netherlands,4,131,guess,win,10,right,5,guess_start,456,space,0,0,580,121362,2170897
25,24,female,Netherlands,4,131,guess,win,10,right,5,guess_choice,593,f,0,0,580,120765,2171494
25,24,female,Netherlands,4,131,guess,win,10,right,5,guess_outcome,0,undefined,0,0,600,119206,2173053
25,24,female,Netherlands,4,131,ITC,win,10,right,5,ITC_start,450,space,0,0,600,118754,2173505
25,24,female,Netherlands,4,131,ITC,win,10,right,5,ITC_choice,758,j,0,0,600,117994,2174265
25,24,female,Netherlands,4,131,ITC,win,10,right,5,ITC_wait,0,undefined,0,0,600,107991,2184268
25,24,female,Netherlands,4,131,ITC,win,10,right,5,ITC_collect,500,k,0,0,600,107489,2184770
25,24,female,Netherlands,4,131,ITC,win,10,right,5,ITC_outcome,0,undefined,0,0,620,106482,2185777
25,24,female,Netherlands,4,132,guess,loss,10,right,4,guess_start,543,space,0,0,620,105936,2186323
25,24,female,Netherlands,4,132,guess,loss,10,right,4,guess_choice,651,f,0,0,620,105281,2186978
25,24,female,Netherlands,4,132,guess,loss,10,right,4,guess_outcome,0,undefined,0,0,605,103723,2188536
25,24,female,Netherlands,4,132,ITC,loss,10,right,4,ITC_start,647,space,0,0,605,103074,2189185
25,24,female,Netherlands,4,132,ITC,loss,10,right,4,ITC_choice,783,j,0,0,605,102289,2189970
25,24,female,Netherlands,4,132,ITC,loss,10,right,4,ITC_wait,0,undefined,0,0,605,92282,2199977
25,24,female,Netherlands,4,132,ITC,loss,10,right,4,ITC_collect,639,k,0,0,605,91641,2200618
25,24,female,Netherlands,4,132,ITC,loss,10,right,4,ITC_outcome,0,undefined,0,0,625,90634,2201625
25,24,female,Netherlands,4,133,guess,win,10,left,4,guess_start,1248,space,0,0,625,89383,2202876
25,24,female,Netherlands,4,133,guess,win,10,left,4,guess_choice,991,j,0,0,625,88388,2203871
25,24,female,Netherlands,4,133,guess,win,10,left,4,guess_outcome,0,undefined,0,0,645,86833,2205426
25,24,female,Netherlands,4,133,ITC,win,10,left,4,ITC_start,488,space,0,0,645,86343,2205916
25,24,female,Netherlands,4,133,ITC,win,10,left,4,ITC_choice,591,f,0,0,645,85751,2206508
25,24,female,Netherlands,4,133,ITC,win,10,left,4,ITC_wait,0,undefined,0,0,645,75745,2216514
25,24,female,Netherlands,4,133,ITC,win,10,left,4,ITC_collect,591,k,0,0,645,75152,2217107
25,24,female,Netherlands,4,133,ITC,win,10,left,4,ITC_outcome,0,undefined,0,0,665,74144,2218115
25,24,female,Netherlands,4,134,guess,loss,5,right,5,guess_start,529,space,0,0,665,73613,2218646
